accelerometer_timestamp	accelerometer_x_data	accelerometer_y_data	accelerometer_z_data
1493853031020	1.2320709	6.003723	7.314453
1493853031041	1.388855	6.0485687	7.1414948
1493853031059	1.5969696	6.0406036	6.868042
1493853031079	1.8217468	6.015503	6.9587097
1493853031098	1.910965	5.9544067	7.859024
1493853031118	1.6155243	5.7391205	8.065201
1493853031138	1.5458679	5.728897	7.2819824
1493853031158	1.6633606	5.8154907	6.6195374
1493853031178	1.7500458	5.8372345	6.0980988
1493853031198	2.1994476	6.029312	5.674988
1493853031218	3.0034485	6.0962524	6.250946
1493853031237	3.1951904	5.707077	6.8224945
1493853031257	2.5900726	5.482544	6.9548645
1493853031277	2.4142761	5.6384277	6.5025177
1493853031297	1.7006836	4.8737335	4.7647247
1493853031317	2.1061554	3.8052979	4.2579803
1493853031337	3.120163	3.6596527	5.646225
1493853031356	3.0529175	2.4322662	5.5006256
1493853031376	2.9841003	1.3140717	3.8781738
1493853031396	0.51156616	-0.38134766	2.4825745
1493853031416	-1.3582458	-1.9629364	2.145935
1493853031436	0.38046265	-3.7090912	3.0127106
1493853031456	4.0923004	-3.4872131	2.9821167
1493853031475	4.7231293	-2.594345	4.0074005
1493853031495	5.981537	-3.2523499	2.7554321
1493853031515	5.3323364	-6.838608	1.3246307
1493853031535	5.831085	-6.116867	3.3328552
1493853031555	9.447098	-5.174576	7.641464
1493853031575	11.843887	-5.635315	9.017426
1493853031595	17.871841	-0.2012024	8.107376
1493853031614	17.14859	-4.891144	11.987991
1493853031634	19.421295	0.26669312	11.730789
1493853031654	19.461044	1.8486176	5.6278534
1493853031694	19.461044	2.845459	6.0204163
1493853031714	19.461044	3.4159546	4.6859436
1493853031733	19.321777	6.468216	-5.0606537
1493853031753	15.8064575	4.4870453	-4.328644
1493853031773	7.284088	-3.2307587	-5.31073
1493853031793	5.5401917	-3.4517975	5.0934753
1493853031812	10.313812	0.6490326	0.5840759
1493853031832	4.954117	-0.65989685	-6.629257
1493853031852	5.378479	-1.3070526	-0.06387329
1493853031872	2.0709991	-4.4701996	2.4401703
1493853031892	0.9826355	-5.8387756	0.6022949
1493853031912	4.161392	-6.1475677	-3.3221893
1493853031931	6.837143	-6.474411	-4.2941284
1493853031951	11.516235	-5.5748444	2.1960754
1493853031971	10.072128	-6.282135	0.768692
1493853031991	8.625092	-5.3702087	-1.947815
1493853032011	8.656723	-5.922867	-0.6255493
1493853032030	6.935074	-7.036316	-0.0789032
1493853032050	4.43544	-7.796936	0.97335815
1493853032070	4.252182	-7.547531	1.4111328
1493853032090	3.7501526	-7.564987	-0.92289734
1493853032110	4.2782288	-7.706436	-1.1183777
1493853032130	3.801941	-7.8828583	-0.26063538
1493853032149	1.3288116	-8.053345	-0.8528137
1493853032170	1.7947388	-8.1957245	0.9209595
1493853032189	4.4454956	-9.844467	1.7087402
1493853032209	2.5355988	-14.929642	2.7778015
1493853032229	1.8097382	-17.202957	2.3688965
1493853032249	5.7187347	-12.872482	1.6193237
1493853032269	6.014801	-10.613312	1.3057404
1493853032288	3.6885376	-10.106461	0.58750916
1493853032308	1.7632294	-9.762024	0.83322144
1493853032328	3.3045502	-8.860443	1.8204193
1493853032348	3.3073273	-8.574768	2.0098572
1493853032368	2.1971436	-9.534729	1.0225983
1493853032388	1.6237793	-10.030167	1.3010559
1493853032408	1.5397186	-8.216171	2.2659607
1493853032427	1.3021088	-8.0794525	1.6742401
1493853032447	1.5965271	-9.173187	0.90345764
1493853032467	1.1311951	-8.248474	1.2192688
1493853032487	1.0090027	-9.093658	0.7620239
1493853032507	1.5516815	-9.135864	1.2558289
1493853032527	1.6122284	-7.409546	2.126007
1493853032546	0.67652893	-8.169754	0.5672455
1493853032566	0.6661377	-8.441757	-0.09112549
1493853032586	1.3893585	-6.665909	-9.0026855E-4
1493853032606	1.4351044	-5.99411	1.1127625
1493853032626	7.260727	-0.57884216	-0.06312561
1493853032646	3.6073303	0.5040283	-0.087875366
1493853032666	-2.7723846	-7.080658	14.734283
1493853032685	-2.3693237	-10.801773	4.532547
1493853032705	-0.80781555	-17.772446	0.5650482
1493853032727	3.3132172	-16.691406	1.003891
1493853032745	3.5605927	-11.856277	1.4506073
1493853032765	3.112381	-9.383774	1.6105652
1493853032785	5.576477	-5.8426666	0.65737915
1493853032804	-1.3137207	-15.892822	0.09761047
1493853032825	2.5538635	-12.914505	1.1382446
1493853032844	1.7892609	-15.821335	0.9874573
1493853032864	3.8547363	-17.928452	2.4612885
1493853032884	2.373703	-12.487839	1.5303192
1493853032904	2.0462646	-12.595718	0.41285706
1493853032923	2.1105804	-11.679626	-0.2199707
1493853032943	2.2530212	-11.817825	-0.097839355
1493853032963	1.9913483	-11.798279	-0.31445313
1493853033003	2.054367	-11.175964	-0.8995514
1493853033023	1.5565643	-11.801376	-0.38710022
1493853033042	0.39019775	-9.961243	2.028366
1493853033062	-0.5463257	-10.301773	3.1867676
1493853033082	-0.99282837	-10.969269	1.6535492
1493853033102	-1.272934	-11.550781	0.9156189
1493853033122	-0.7071991	-11.631226	-0.3123474
1493853033142	0.6476135	-11.087189	-0.72210693
1493853033161	1.2840576	-10.172546	-0.080718994
1493853033182	1.9858704	-9.078995	1.0425568
1493853033201	1.6703491	-8.978806	1.6669769
1493853033221	0.92289734	-8.450943	0.8432617
1493853033241	-0.036346436	-7.891861	0.285141
1493853033261	-0.98809814	-7.481842	0.21635437
1493853033281	-1.5348663	-7.1612244	0.101882935
1493853033300	-1.6974487	-6.7295074	0.3643341
1493853033320	-1.9174042	-5.943985	0.09362793
1493853033340	-1.3260651	-5.8092194	-0.5721588
1493853033360	-1.138031	-5.675049	-1.8330078
1493853033380	-0.8179474	-6.344925	-3.2876892
1493853033399	0.30593872	-7.81868	-5.0176697
1493853033419	0.84425354	-9.510117	-6.55513
1493853033439	0.3616333	-10.819519	-7.3131866
1493853033459	-0.5178833	-11.59671	-7.7228394
1493853033479	-0.78881836	-12.050049	-7.4872437
1493853033499	-0.8244171	-11.786392	-6.76857
1493853033518	-1.2963104	-9.283768	-5.630417
1493853033538	-2.3112488	-6.9350433	-5.7840576
1493853033558	-4.1097717	-9.492981	-5.8963013
1493853033578	-6.856003	-15.434067	-4.0413055
1493853033598	-5.3884277	-15.7812805	-1.3105774
1493853033618	-1.0644379	-9.890442	3.0081024
1493853033638	0.46348572	-5.2171936	5.4048157
1493853033657	-0.39112854	-5.643036	6.2158356
1493853033677	-0.015716553	-9.389908	6.083252
1493853033697	1.2498016	-12.552429	3.986786
1493853033717	2.2858734	-12.601044	1.5052948
1493853033737	3.5773163	-12.374527	0.4460907
1493853033757	4.0218964	-11.74054	0.66767883
1493853033776	2.8874512	-9.644409	0.58761597
1493853033796	0.57250977	-8.201324	0.1446991
1493853033816	-1.0463257	-7.897171	0.44607544
1493853033836	-1.3096008	-8.202087	-0.26055908
1493853033856	-0.8901367	-8.86824	-1.0927734
1493853033876	0.4278717	-9.545746	-0.2492218
1493853033895	1.253891	-9.386353	0.22525024
1493853033915	1.5707092	-9.026718	0.006881714
1493853033935	1.7089081	-8.978851	0.62020874
1493853033955	1.1216583	-9.256317	1.2805176
1493853033975	0.016479492	-9.349976	0.84788513
1493853033995	0.46598816	-9.741318	1.1967163
1493853034014	1.554596	-10.926483	1.1820984
1493853034034	1.99263	-11.957611	-1.2511749
1493853034054	1.7163391	-11.833969	-1.9948578
1493853034074	3.5344696	-11.041748	0.90919495
1493853034094	4.160324	-11.224319	2.0651245
1493853034114	2.7697601	-11.76619	0.8095856
1493853034134	1.5642548	-11.461609	0.40979004
1493853034154	2.4505463	-11.046173	-0.79855347
1493853034174	4.6834717	-12.275787	-0.65322876
1493853034194	5.3273163	-12.985947	-2.6934052
1493853034213	4.916107	-11.709152	-3.5957336
1493853034233	2.793213	-10.8954315	-1.4411926
1493853034253	0.4655609	-9.409088	1.7292175
1493853034273	-2.0519867	-11.078613	4.3108673
1493853034293	-3.594635	-15.561493	3.7546082
1493853034332	-6.4536285	-19.450409	2.9976044
1493853034352	-4.742462	-17.767624	-0.845871
1493853034372	-3.2950134	-13.921524	-1.7134857
1493853034392	-2.2796326	-12.073502	0.1340332
1493853034412	1.3766632	-9.310287	2.090744
1493853034431	2.379715	-8.482132	1.1182251
1493853034451	2.627716	-7.8642273	0.7839203
1493853034471	2.8430176	-6.8622894	2.810257
1493853034491	0.3778839	-5.456238	3.1214905
1493853034511	-1.017334	-3.673996	3.4986115
1493853034531	-1.8797913	-2.6518097	3.1269836
1493853034550	-1.9760284	-2.2638245	2.419098
1493853034570	-1.8363037	-2.68927	1.5183716
1493853034590	-1.5736847	-4.175934	-0.44828796
1493853034610	-1.0057068	-7.4110565	-5.121353
1493853034630	-1.5623322	-12.406235	-9.687485
1493853034650	-3.3466034	-15.513275	-9.670822
1493853034669	-3.918335	-13.740768	-8.615494
1493853034689	-2.9653625	-9.983383	-5.974823
1493853034709	-1.7331848	-9.083969	-4.745117
1493853034729	-2.8913422	-9.015778	-6.406784
1493853034749	-6.0964966	-11.983246	-7.6097565
1493853034769	-7.6076202	-17.45691	-5.939743
1493853034788	-4.7812347	-15.397766	-2.2079926
1493853034808	-1.0606995	-8.163101	4.4220276
1493853034828	0.01499939	-3.919571	7.0940247
1493853034848	-0.29733276	-5.137253	6.6473083
1493853034868	1.09758	-9.43631	6.657135
1493853034887	3.7603607	-12.925232	4.7805176
1493853034908	5.4177704	-13.905121	1.0718994
1493853034927	5.026352	-12.443863	-0.9839783
1493853034947	3.028595	-10.123001	0.18405151
1493853034967	0.5435486	-8.7108	1.2932281
1493853034986	-1.3987732	-7.874771	1.5439453
1493853035007	-2.6674347	-7.9238434	1.3776245
1493853035027	-3.249771	-8.775436	-0.05621338
1493853035046	-2.2303162	-9.612366	-0.5782471
1493853035066	0.66825867	-9.879822	0.8223114
1493853035086	3.1647644	-9.452545	0.61439514
1493853035106	3.5375519	-8.925781	-0.22351074
1493853035126	2.4302673	-8.9279785	0.5265808
1493853035146	1.3176117	-9.641129	0.97232056
1493853035165	0.8132782	-11.053558	0.2717743
1493853035185	1.0739594	-11.036087	-0.62950134
1493853035205	0.92259216	-10.7261505	-1.548996
1493853035225	0.26049805	-11.020248	-0.97250366
1493853035246	0.7901459	-11.300308	-0.5300293
1493853035265	3.0919495	-11.128296	-0.0466156
1493853035284	4.9026794	-10.810486	0.86338806
1493853035304	3.9968567	-10.811325	-0.5547638
1493853035324	2.9669037	-11.154709	-2.2723389
1493853035344	4.0951385	-12.716888	-2.0738373
1493853035364	5.4709167	-12.540237	-2.4552155
1493853035384	3.3979797	-11.937347	-3.475006
1493853035403	0.04876709	-10.5997925	-1.1387329
1493853035423	-1.9112854	-11.317917	2.9179688
1493853035443	-3.4718933	-15.403458	4.427658
1493853035463	-6.1897125	-19.103989	4.1543884
1493853035483	-5.3397217	-18.824448	-0.14425659
1493853035503	-3.4595032	-15.678726	-2.1901703
1493853035522	-2.1414642	-13.264587	-0.16067505
1493853035542	2.7252197	-10.665726	1.1800079
1493853035562	3.168518	-9.598785	0.51290894
1493853035582	3.0225525	-7.8213043	-0.33750916
1493853035622	2.180252	-6.4540253	2.3406677
1493853035641	0.66526794	-4.7582855	3.9026184
1493853035661	-1.2460632	-3.151184	4.612076
1493853035681	-3.013504	-2.4521027	4.392105
1493853035702	-3.6347504	-2.1471252	3.9161987
1493853035722	-3.340042	-1.9468842	3.0279388
1493853035741	-2.609253	-2.7684326	1.220932
1493853035761	-1.9357147	-4.875107	-2.2419128
1493853035781	-1.6190643	-9.769714	-10.200638
1493853035801	-1.1202393	-15.689697	-8.685593
1493853035824	-4.1566315	-16.70546	-11.232162
1493853035844	-4.290695	-11.649475	-9.167328
1493853035865	-2.5645752	-9.575775	-6.3831787
1493853035884	-1.0263367	-9.700928	-6.292633
1493853035903	-3.614441	-9.084808	-7.527542
1493853035922	-7.1401367	-11.532318	-6.858856
1493853035944	-7.5594482	-15.297012	-3.9850922
1493853035965	-4.3810883	-14.423248	0.79371643
1493853035981	-0.68003845	-8.358765	3.372116
1493853036004	0.4433899	-5.72171	7.2631836
1493853036027	0.9241791	-6.7869263	8.05925
1493853036045	1.8723907	-10.224091	7.9048157
1493853036064	3.5724335	-13.095779	4.719574
1493853036085	4.02771	-13.451691	-0.525589
1493853036102	4.035263	-12.304718	-1.3330231
1493853036120	3.6539612	-9.688431	0.84902954
1493853036140	1.9965515	-8.58017	1.1365051
1493853036160	-0.42903137	-8.032425	0.27275085
1493853036178	-1.9062195	-8.15564	-0.80792236
1493853036199	-2.5098572	-8.662506	-1.4748688
1493853036221	-1.9787903	-9.138428	-1.7013702
1493853036237	-0.54481506	-9.4644165	-0.59065247
1493853036257	1.5409393	-9.111694	0.3761444
1493853036277	2.5529633	-8.724976	0.51698303
1493853036296	2.162506	-8.745605	1.1208496
1493853036317	0.9220886	-9.494186	1.3479309
1493853036342	0.29179382	-10.263992	0.1844635
1493853036358	0.69252014	-10.566467	-0.79634094
1493853036378	1.3073425	-10.934692	-0.89723206
1493853036400	0.83781433	-11.692032	-0.79096985
1493853036421	0.72898865	-11.950104	-0.5712433
1493853036436	2.78479	-11.699509	0.26261902
1493853036460	4.5423737	-11.621536	0.84576416
1493853036481	4.0384827	-11.449326	-0.17652893
1493853036498	3.1249695	-11.584946	-1.5700684
1493853036520	3.6945496	-12.526428	-1.9833832
1493853036537	4.6328125	-12.399841	-2.8062286
1493853036559	3.9028015	-12.160126	-2.9953918
1493853036579	1.3224945	-11.146988	-1.528656
1493853036601	-1.0055847	-11.149048	2.0842285
1493853036619	-2.7557068	-13.8647	4.5983124
1493853036638	-5.6429596	-17.891876	5.121155
1493853036660	-6.298935	-18.708466	0.87838745
1493853036680	-5.302597	-15.97905	-1.9434814
1493853036699	-3.2886658	-12.575714	-0.96466064
1493853036717	0.4654541	-10.313126	2.7432709
1493853036741	3.055359	-9.077469	0.8706665
1493853036754	2.8711395	-7.97966	0.35464478
1493853036775	3.6997375	-6.9819946	2.377121
1493853036795	1.662735	-5.632004	3.1718292
1493853036814	-0.65348816	-4.067749	3.6502533
1493853036834	-2.6504974	-2.9689484	3.7566986
1493853036857	-2.8930206	-2.1174927	3.2609558
1493853036876	-2.7130737	-2.022461	2.4216156
1493853036895	-2.1750488	-3.0365295	0.7955475
1493853036917	-1.7925262	-4.710312	-1.5887299
1493853036954	-1.7183838	-9.155121	-10.986923
1493853036979	-1.2822113	-14.487656	-7.943512
1493853036980	-3.503189	-17.47078	-11.861801
1493853037014	-3.9576263	-12.371002	-9.769516
1493853037037	-3.1789398	-9.116745	-6.505295
1493853037054	-2.779953	-8.33638	-6.0347443
1493853037077	-6.581482	-11.26387	-8.984055
1493853037098	-9.106567	-18.646912	-7.3314514
1493853037114	-5.4602966	-16.889816	-1.8324432
1493853037132	-0.5295563	-5.3602753	5.0733337
1493853037151	-0.689621	-1.6791992	7.639084
1493853037176	-1.2691956	-4.580078	6.0143127
1493853037195	0.99079895	-10.236511	8.354324
1493853037212	3.1163025	-14.8293	6.5427704
1493853037245	4.931305	-15.401077	0.3323822
1493853037253	5.149704	-13.696381	-1.6615753
1493853037278	3.8830414	-11.796127	-0.41870117
1493853037290	2.2157288	-8.693146	1.376648
1493853037309	0.42944336	-7.579376	1.0430298
1493853037330	-1.4635468	-7.61351	0.19102478
1493853037349	-2.5894012	-8.158234	-1.0355682
1493853037372	-2.4788666	-9.065063	-1.570221
1493853037390	-0.99427795	-9.532806	0.23332214
1493853037409	0.889328	-9.207108	0.39379883
1493853037431	1.9798584	-8.798462	0.074905396
1493853037453	1.2838287	-8.971481	0.25593567
1493853037473	0.20263672	-9.647461	0.47888184
1493853037492	0.553833	-10.349075	-0.5774689
1493853037513	2.2144928	-10.623535	-1.0616608
1493853037531	2.5971527	-10.767136	-1.2521973
1493853037552	1.147232	-11.231964	-1.2931824
1493853037572	0.82069397	-11.54335	-0.75286865
1493853037592	2.5807953	-11.326935	-0.052825928
1493853037610	4.202957	-11.136444	-0.40481567
1493853037631	4.2481537	-11.699005	-1.5090942
1493853037651	4.7585297	-13.20079	-1.7882385
1493853037670	5.8461456	-13.500519	-1.8610992
1493853037690	3.6160126	-12.456207	-2.3427887
1493853037709	-0.7854004	-11.26329	-2.2749481
1493853037729	-2.5244446	-11.509964	0.8845062
1493853037752	-2.9965515	-14.271439	4.2391357
1493853037776	-5.248001	-18.178696	4.4204407
1493853037786	-5.7424164	-18.995834	1.353363
1493853037806	-4.399521	-15.7851715	-1.36409
1493853037827	-2.5720367	-12.540909	-0.78897095
1493853037847	1.6702576	-9.96077	1.1244812
1493853037868	2.992752	-8.48793	1.0358734
1493853037889	2.7399445	-7.3135834	0.64082336
1493853037906	2.381668	-6.5440216	2.514328
1493853037927	1.0312653	-5.3376617	3.6222382
1493853037948	-0.4385376	-3.959259	3.6783142
1493853037968	-2.1873016	-3.2187195	3.625885
1493853037990	-2.9431458	-2.8066864	3.4882202
1493853038006	-2.796585	-2.5220947	2.7825165
1493853038029	-2.1128693	-2.853714	1.6315918
1493853038048	-1.6746063	-4.4743958	-0.78559875
1493853038064	-0.80903625	-8.793228	-9.857727
1493853038088	-0.051635742	-15.161377	-10.52066
1493853038105	-1.6873016	-18.226501	-13.432831
1493853038122	-3.661087	-13.915497	-10.408508
1493853038143	-2.0987244	-10.926941	-6.6891174
1493853038163	-1.9315186	-8.751129	-5.1688538
1493853038189	-4.2106323	-7.1185303	-6.3290405
1493853038208	-7.7003174	-11.231995	-4.8978424
1493853038253	-8.728409	-15.729233	-2.9634247
1493853038262	-5.6036987	-13.907745	2.15094
1493853038284	-0.41560364	-7.423294	3.5635529
1493853038301	0.8991394	-5.522705	7.754898
1493853038321	1.0738373	-7.538254	8.020493
1493853038341	2.1169128	-10.923233	6.4231567
1493853038362	3.572052	-13.486847	3.839798
1493853038386	4.188553	-12.845459	-0.19044495
1493853038404	3.7957458	-12.941116	-1.8002167
1493853038423	3.0408173	-10.286438	0.4788971
1493853038445	1.466629	-8.89032	0.8630676
1493853038460	-0.92466736	-7.9489594	0.19264221
1493853038484	-2.1241455	-7.6306	-0.5642853
1493853038502	-2.662384	-8.485123	-1.6846008
1493853038520	-0.2931671	-9.000839	-0.9939575
1493853038540	1.6929626	-9.422943	-0.2578888
1493853038560	2.8844452	-9.061279	-0.2816162
1493853038582	2.990036	-8.549164	-0.8714447
1493853038603	2.0139618	-8.852936	-0.53234863
1493853038620	0.95703125	-9.623688	0.802063
1493853038641	0.7432556	-10.120926	0.25456238
1493853038660	1.4700165	-10.4717865	-0.26139832
1493853038681	1.6836853	-11.114655	-0.34158325
1493853038703	0.6370697	-12.258865	-1.7034454
1493853038719	0.5790863	-12.502136	-1.587738
1493853038740	3.5830536	-12.208481	0.13763428
1493853038762	5.0023346	-12.3029175	0.29873657
1493853038784	4.0342712	-12.634491	-0.57547
1493853038799	3.5076904	-13.458572	-0.93769836
1493853038819	4.2785797	-13.544403	-2.321579
1493853038837	2.9527283	-12.631958	-3.3374481
1493853038861	-1.1991425	-10.871674	-2.1982422
1493853038880	-2.9210968	-10.2908325	1.0499878
1493853038898	-3.2905731	-12.595505	3.8005219
1493853038918	-4.9079285	-16.582458	4.2007904
1493853038938	-5.525223	-18.469528	1.691864
1493853038958	-4.20665	-16.054459	-1.0976105
1493853038979	-2.6044006	-12.984024	-0.1482544
1493853039000	0.34344482	-10.733276	1.6244202
1493853039019	2.4963837	-8.922806	0.9376831
1493853039039	3.23201	-7.6306763	0.3865204
1493853039059	2.980713	-6.741028	1.8546143
1493853039079	1.8690491	-5.4328613	2.9866333
1493853039099	0.020965576	-4.1553802	3.4319
1493853039116	-1.9655457	-3.2346497	3.7381897
1493853039135	-2.565384	-2.4628296	3.2753754
1493853039156	-2.4878845	-2.269455	2.244934
1493853039180	-2.07901	-2.8385925	0.7644348
1493853039197	-1.6136627	-4.5728607	-1.7170258
1493853039217	-1.0471954	-8.495071	-7.298996
1493853039235	-1.117981	-13.081421	-8.759399
1493853039254	-3.6505432	-16.259216	-11.592468
1493853039274	-4.9084625	-15.057617	-11.711548
1493853039299	-2.680954	-13.01564	-7.0138397
1493853039312	-1.7749634	-9.856598	-5.020508
1493853039332	-6.0052185	-7.910965	-6.70195
1493853039352	-9.316879	-12.614914	-6.592224
1493853039373	-9.403534	-15.938965	-3.2402344
1493853039394	-2.322815	-11.762711	2.691925
1493853039413	1.4586792	-5.195984	5.6552887
1493853039433	-0.47187805	-5.3217926	6.22789
1493853039454	-0.08590698	-9.003357	8.864731
1493853039477	1.0987854	-11.667358	7.979553
1493853039496	1.951294	-14.296616	1.4190216
1493853039515	3.3380585	-11.780457	0.6689606
1493853039532	3.5437317	-12.781067	-0.3560028
1493853039573	4.2308655	-10.522339	1.0122986
1493853039594	4.2259827	-8.927231	0.12747192
1493853039612	2.4629517	-8.231201	0.74453735
1493853039631	0.8332825	-8.469162	-0.39709473
1493853039653	-0.7141113	-9.558701	-1.4059143
1493853039671	-1.296341	-9.454666	-1.1569977
1493853039691	-1.8453827	-9.607285	-1.4333496
1493853039712	-2.003601	-8.781067	-0.41481018
1493853039729	-1.0869751	-8.07489	0.44163513
1493853039749	0.6252136	-7.7700043	1.5194397
1493853039773	1.4882965	-8.849777	2.067749
1493853039803	2.1571045	-10.883743	1.2635193
1493853039809	2.9427185	-11.403488	-1.039444
1493853039831	3.0946808	-10.643326	-1.2680969
1493853039848	1.8816681	-11.215363	-0.87394714
1493853039868	1.2558899	-11.602966	-0.043548584
1493853039891	3.511551	-11.809509	0.725296
1493853039908	5.3601074	-12.357437	0.83714294
1493853039928	4.1841125	-12.448959	-0.3059845
1493853039949	3.1931305	-12.526016	-1.2552795
1493853039968	4.111511	-12.398346	-1.733017
1493853039991	4.2857056	-11.902985	-3.5853577
1493853040009	2.3797913	-11.513779	-3.841568
1493853040030	-0.6670532	-11.035965	-1.4733276
1493853040049	-2.2923737	-11.223251	2.170044
1493853040067	-3.567398	-13.885101	4.659836
1493853040091	-5.70401	-17.398743	3.5814667
1493853040110	-6.429352	-18.497192	0.37226868
1493853040125	-5.1494293	-15.895142	-1.4532928
1493853040147	-3.3713074	-12.874496	1.1096191
1493853040166	-0.14738464	-10.924393	1.7896271
1493853040186	2.5911102	-9.535965	0.24227905
1493853040210	3.8144226	-8.584061	0.57392883
1493853040225	3.7594604	-7.56073	1.9917755
1493853040249	2.2597504	-5.976471	3.029892
1493853040269	-0.34584045	-4.3096466	3.5446625
1493853040284	-2.3478394	-2.83049	3.6667175
1493853040304	-3.0350342	-1.7754059	3.4441833
1493853040322	-3.050888	-1.4985809	2.507309
1493853040342	-2.738083	-2.3729858	1.2855072
1493853040362	-2.3155212	-4.2391205	-0.3266449
1493853040383	-2.2530823	-7.95549	-5.270691
1493853040404	-2.5346222	-13.320374	-8.613312
1493853040421	-3.3448029	-17.590744	-12.759186
1493853040442	-3.9918365	-15.839584	-11.676987
1493853040463	-2.5600586	-11.468933	-6.9381104
1493853040482	-1.0704803	-8.835678	-5.9338074
1493853040502	-3.8830261	-7.781494	-6.2697296
1493853040520	-7.453827	-12.894653	-7.3609924
1493853040542	-7.9737244	-17.20401	-6.084976
1493853040561	-3.2081451	-13.669586	3.1558838
1493853040581	-0.44976807	-4.6595306	5.042938
1493853040601	-0.079422	-2.893036	6.0158997
1493853040623	0.47470093	-6.21698	6.726532
1493853040639	1.8156586	-11.39917	8.463623
1493853040662	2.7822876	-15.095551	5.1652527
1493853040684	4.0802155	-13.687103	0.28300476
1493853040702	4.5764923	-12.603714	-1.6129608
1493853040721	3.1888733	-9.8654785	0.70726013
1493853040743	1.7223358	-8.381363	0.5713043
1493853040761	0.38427734	-7.796982	0.6644592
1493853040801	-0.56477356	-8.005096	0.4053192
1493853040820	-0.9944763	-9.144516	0.13076782
1493853040838	-0.15830994	-9.553009	-0.87953186
1493853040857	0.16856384	-9.483719	-0.24624634
1493853040877	0.56077576	-9.12085	-0.45236206
1493853040900	1.0468445	-8.714722	-0.88594055
1493853040917	1.3210602	-8.5216675	-1.1543579
1493853040937	1.2850952	-9.127213	7.7819824E-4
1493853040958	1.0913086	-10.024078	0.82029724
1493853040977	1.5539551	-10.226166	1.8468628
1493853040998	2.0446014	-10.226013	1.8509827
1493853041017	1.5296478	-11.467682	1.1730957
1493853041035	2.2787323	-11.664551	0.30274963
1493853041060	3.8397217	-11.203323	0.120788574
1493853041078	4.6301727	-11.042007	-0.3781433
1493853041100	3.657959	-10.789429	-1.6848602
1493853041122	2.3753662	-11.088577	-2.6442108
1493853041136	3.9836273	-11.960541	-2.712204
1493853041158	4.961426	-12.702408	-2.366745
1493853041181	2.5286865	-12.61319	-3.0171814
1493853041198	-1.4890747	-12.0564575	-2.487442
1493853041219	-3.856659	-12.029358	0.62553406
1493853041240	-5.081772	-14.512344	4.0533447
1493853041259	-7.341217	-17.907928	3.7630615
1493853041277	-8.197876	-18.433334	0.33148193
1493853041300	-6.1217957	-15.415939	-1.5362396
1493853041316	-4.107437	-12.478531	-0.73358154
1493853041337	-1.7033386	-10.709335	0.71891785
1493853041355	0.43138123	-9.786774	0.7768707
1493853041375	1.010788	-8.832397	0.3184204
1493853041397	2.4024658	-7.327713	0.7492218
1493853041416	2.4084473	-5.898819	1.6071167
1493853041434	0.6195221	-4.2698975	2.2788239
1493853041457	-1.3059998	-2.647812	2.4521027
1493853041474	-1.9603577	-1.4684296	2.250061
1493853041499	-1.5975647	-1.489624	1.5644073
1493853041517	-1.1334534	-2.5745697	-0.095321655
1493853041534	-0.5623779	-4.318222	-1.5975189
1493853041554	-0.7499237	-7.2480774	-5.265991
1493853041575	-2.7351074	-11.68129	-8.865677
1493853041595	-4.5240173	-15.130798	-12.246643
1493853041611	-4.6725464	-15.650452	-12.518799
1493853041630	-4.33873	-14.237564	-7.455063
1493853041651	-3.6548157	-11.689636	-5.2971497
1493853041670	-4.0540466	-7.7728424	-6.012924
1493853041690	-4.9019623	-8.84668	-6.1933594
1493853041710	-5.616867	-13.807053	-5.404251
1493853041731	-3.0180054	-14.1409	2.9313812
1493853041751	-0.16757202	-8.821671	4.163727
1493853041771	1.2960205	-5.7556305	7.7268677
1493853041789	-0.48265076	-6.5850677	8.108475
1493853041809	0.21530151	-9.096741	5.963684
1493853041829	1.3189392	-13.030441	3.6555023
1493853041849	4.224304	-13.690399	1.2546844
1493853041872	6.1155243	-12.521851	-0.1796875
1493853041890	4.659073	-9.609695	0.7986603
1493853041912	2.2386932	-8.828506	0.78382874
1493853041933	0.057510376	-8.089279	0.34346008
1493853041954	-0.9465637	-7.92128	-0.1819458
1493853041974	-2.0217438	-8.776245	-0.5422516
1493853041995	-1.4962616	-9.382462	0.17141724
1493853042014	-0.20701599	-9.616165	1.0219574
1493853042031	1.4126129	-9.566376	-0.07324219
1493853042050	3.04422	-9.377289	0.8291321
1493853042073	2.6070404	-9.232346	0.5322418
1493853042111	2.7197723	-8.938965	0.6835785
1493853042129	2.2482605	-9.437775	-0.1537323
1493853042149	0.6682892	-10.672012	-0.20262146
1493853042171	-0.61909485	-11.081451	-0.34510803
1493853042191	0.18127441	-11.084747	-0.83135986
1493853042212	4.5388794	-11.436478	1.2092896
1493853042230	6.7112885	-11.680939	1.821106
1493853042250	3.9759521	-11.693939	0.14060974
1493853042279	1.2501221	-11.53389	-2.0170898
1493853042288	0.7230377	-11.640945	-3.3601837
1493853042307	3.539917	-12.652313	-2.7456512
1493853042328	3.4334717	-12.481613	-3.5764313
1493853042345	1.3263092	-12.282013	-4.238968
1493853042366	-0.5395813	-11.011765	-1.0223389
1493853042388	-1.3479767	-12.118347	3.3383331
1493853042411	-3.1633759	-16.268478	5.019882
1493853042430	-5.9482727	-19.348831	4.2974854
1493853042450	-5.237152	-17.887665	-0.63375854
1493853042470	-3.9470673	-14.221085	-2.1884918
1493853042490	-2.829361	-11.843521	-0.27130127
1493853042508	-0.72514343	-9.908966	1.9155579
1493853042529	0.73677063	-8.700394	0.41415405
1493853042546	1.9463806	-7.7861176	1.4683533
1493853042569	2.666626	-6.872864	3.285019
1493853042587	2.0465546	-5.153473	4.014633
1493853042610	-0.54382324	-3.173233	4.010132
1493853042628	-2.4183197	-1.9367371	3.6422424
1493853042649	-2.404892	-1.4035492	2.9970856
1493853042670	-1.8283234	-1.8379059	1.9743195
1493853042686	-1.2203369	-3.444931	0.47618103
1493853042705	-0.52423096	-6.159973	-3.9120026
1493853042730	-1.3373718	-10.341492	-8.226944
1493853042744	-3.9892426	-14.781235	-10.486008
1493853042764	-5.200577	-15.71138	-11.875549
1493853042784	-4.388794	-13.313065	-9.906494
1493853042808	-2.5057068	-11.4205475	-7.100281
1493853042823	-2.8023682	-9.730621	-6.456436
1493853042842	-6.0772247	-10.264114	-8.285873
1493853042862	-7.0657654	-14.917923	-7.563858
1493853042882	-4.974701	-15.692383	1.7766571
1493853042904	-2.6143188	-8.456238	5.5589905
1493853042925	-0.9825287	-3.4162292	7.510376
1493853042942	-0.99679565	-5.1747284	8.586136
1493853042963	0.7507477	-9.984375	9.029297
1493853042983	3.0590973	-14.770569	7.31073
1493853043006	4.7775574	-15.085892	1.8576508
1493853043022	5.2729034	-13.771652	-2.1569672
1493853043045	3.9759216	-10.899063	-0.6729126
1493853043062	2.6463623	-8.877441	1.5807648
1493853043080	0.8852539	-7.87677	1.3037567
1493853043105	-0.4174347	-7.5709686	0.37428284
1493853043124	-1.2491455	-7.7854614	-0.8269043
1493853043140	-0.85105896	-9.005371	0.52827454
1493853043160	-0.6338501	-10.218872	0.21742249
1493853043183	0.2448883	-9.432266	-0.12437439
1493853043203	1.8695221	-8.216003	-1.5162659
1493853043222	3.2970886	-8.521545	-1.297409
1493853043243	3.261963	-9.503677	0.50302124
1493853043262	2.6832886	-10.227661	1.1856079
1493853043282	1.8228607	-10.615341	1.0179291
1493853043298	0.31315613	-10.037796	-0.9090576
1493853043318	0.079208374	-10.460724	-1.6598206
1493853043358	2.6186523	-11.484573	1.8676758
1493853043381	3.966919	-12.097702	1.4875641
1493853043399	2.7778625	-11.654907	-0.42185974
1493853043420	1.2235413	-11.378098	-1.2527618
1493853043438	1.9095917	-11.449142	-1.3360748
1493853043457	5.3726196	-13.082077	-0.815094
1493853043478	5.8738403	-12.761826	-2.9601593
1493853043500	2.9264374	-12.310638	-3.734848
1493853043521	-0.83106995	-11.500275	-1.3008118
1493853043539	-1.3512878	-11.7617035	3.791092
1493853043561	-3.583908	-15.34198	5.4310303
1493853043581	-6.6344604	-19.404007	4.6024323
1493853043598	-6.850403	-18.917404	0.5777588
1493853043621	-4.0277405	-15.552399	-1.4815674
1493853043640	-2.7159576	-12.845001	0.29058838
1493853043658	-0.86505127	-11.104431	3.0814362
1493853043680	2.2376251	-9.135345	1.2982635
1493853043699	2.8194733	-7.7799835	0.598999
1493853043718	2.6079865	-6.392395	2.3027344
1493853043739	2.187729	-4.896591	4.3937836
1493853043758	0.45059204	-3.0466766	4.8267975
1493853043780	-1.9521179	-1.8552094	4.314636
1493853043794	-2.684433	-1.2266693	3.8992767
1493853043814	-2.6475067	-1.0635681	3.0233307
1493853043836	-2.5123901	-1.9326782	1.4146729
1493853043853	-1.8779602	-4.335022	-3.0185547
1493853043874	-1.0699463	-9.467194	-8.498703
1493853043894	-1.76091	-15.239471	-10.361557
1493853043915	-4.3567505	-17.108078	-12.2500305
1493853043935	-5.1641083	-14.445831	-11.17511
1493853043953	-3.2196198	-10.969238	-8.242798
1493853043975	-2.6998138	-8.510849	-7.7658386
1493853043995	-6.0825806	-8.952942	-8.659271
1493853044015	-7.86322	-14.916397	-8.026733
1493853044035	-4.2535553	-17.789963	-0.06629944
1493853044054	-0.5036621	-10.6987	5.505432
1493853044075	0.32551575	-3.6035156	7.954468
1493853044094	-0.75442505	-3.5434418	9.387787
1493853044112	-0.59506226	-8.158646	9.852264
1493853044131	0.6576996	-14.198807	8.22728
1493853044152	3.3236694	-15.370773	1.7775726
1493853044173	4.7885895	-13.805618	-1.4256592
1493853044191	4.468643	-11.1258545	0.1815033
1493853044219	2.7558594	-8.94635	2.3323364
1493853044229	0.42144775	-7.5814667	1.3867188
1493853044249	-1.4779816	-7.196823	-0.07261658
1493853044268	-1.7363739	-8.107147	-0.6111603
1493853044289	-1.0335541	-9.851471	-0.01928711
1493853044308	0.38589478	-10.089935	-0.22189331
1493853044328	1.527008	-9.024338	-0.86383057
1493853044347	1.7488708	-8.608139	-2.0490875
1493853044367	1.540863	-8.980682	-1.624176
1493853044387	2.3595886	-9.716492	0.4875946
1493853044407	2.6053925	-9.885696	1.6947174
1493853044431	1.4325409	-10.423798	0.7247162
1493853044448	-0.077560425	-10.540817	-0.8534546
1493853044468	0.66311646	-11.675369	0.091674805
1493853044487	2.6268616	-11.873932	0.82528687
1493853044512	3.2879486	-11.497681	0.67263794
1493853044531	3.1313171	-11.66127	1.183258
1493853044549	2.2716217	-12.02449	-0.7214966
1493853044569	2.9058685	-12.479294	-1.1506195
1493853044589	4.715744	-12.773651	-1.5153351
1493853044628	4.9495087	-11.975906	-3.7999725
1493853044647	2.128662	-11.713348	-3.5340881
1493853044669	-1.1819916	-10.56041	-1.0779419
1493853044685	-1.9518433	-10.867554	4.055832
1493853044704	-3.3267822	-14.514801	4.801529
1493853044724	-6.187027	-18.469833	3.696991
1493853044744	-6.031418	-18.640488	-0.2601471
1493853044764	-4.3617554	-15.269531	-1.7475891
1493853044785	-3.4838867	-12.987839	-0.11280823
1493853044803	-1.4290771	-11.471603	2.5120697
1493853044824	1.5196228	-9.681732	0.92863464
1493853044843	2.7220001	-8.100174	0.7628937
1493853044863	2.7558136	-7.045517	2.3912506
1493853044886	2.3047638	-5.4072113	3.9882965
1493853044904	0.36880493	-3.61734	4.5022583
1493853044925	-1.9882507	-2.0391998	4.30571
1493853044946	-2.4826813	-1.138916	3.873413
1493853044964	-2.2143707	-0.99650574	2.5264282
1493853044988	-1.8857269	-1.890274	0.96069336
1493853045007	-1.3277435	-4.0717926	-2.4335785
1493853045028	-1.4443207	-8.879639	-8.90744
1493853045045	-3.5450287	-15.253677	-11.368713
1493853045066	-5.8369446	-18.541183	-12.831406
1493853045087	-5.0042267	-15.666641	-10.151688
1493853045107	-3.1256256	-10.971802	-7.4108734
1493853045127	-3.1640015	-7.1161957	-8.239731
1493853045143	-6.6670837	-10.205017	-9.463547
1493853045163	-6.924408	-17.307648	-4.1047363
1493853045186	-0.89112854	-14.785141	3.5959015
1493853045204	1.4072113	-6.1044464	8.186951
1493853045226	-1.3437653	-3.8927307	7.689575
1493853045245	-1.8786163	-7.130005	7.505432
1493853045264	0.47758484	-10.824326	8.826355
1493853045287	2.8099518	-14.259308	5.2482758
1493853045301	3.850586	-15.899872	-0.112091064
1493853045321	3.884079	-13.917862	-0.5022888
1493853045341	3.7195435	-11.079819	0.7198944
1493853045360	2.7613373	-8.666733	1.0752411
1493853045381	1.3151855	-7.5038147	1.043457
1493853045404	-0.016693115	-8.006287	0.63723755
1493853045423	-0.80670166	-8.743286	-0.74191284
1493853045444	-1.6681061	-9.117462	-0.57510376
1493853045461	-2.0010376	-8.509018	-0.95614624
1493853045484	-0.25584412	-6.8945313	-1.5430756
1493853045503	1.2738953	-6.626541	-1.710083
1493853045522	1.7494965	-8.578827	-0.66908264
1493853045545	2.60701	-9.749359	0.19126892
1493853045561	3.0725708	-10.043777	1.3510132
1493853045583	1.6714172	-11.405029	2.0929565
1493853045603	-0.41529846	-12.847549	0.94314575
1493853045621	0.15997314	-12.884964	-1.2368622
1493853045642	3.372345	-12.211899	-0.47930908
1493853045660	4.7106476	-11.905502	-0.53764343
1493853045681	4.310089	-11.90004	-2.1430817
1493853045702	3.904129	-12.131531	-3.253189
1493853045721	5.075287	-13.113968	-1.5266571
1493853045745	5.7274323	-12.944748	-0.80288696
1493853045758	2.0544586	-12.682846	-2.4683228
1493853045785	-1.3856049	-10.98114	-1.1995392
1493853045797	-2.937851	-10.995422	3.7120972
1493853045817	-4.0891113	-14.7603	4.8904266
1493853045843	-7.586334	-19.295013	4.6154327
1493853045856	-7.281494	-19.474823	0.13755798
1493853045876	-4.7693634	-15.337158	-2.3008118
1493853045917	-3.2434845	-12.4470215	-1.6252441
1493853045939	1.7176819	-10.060165	2.7359772
1493853045959	3.541809	-9.161682	0.50691223
1493853045976	4.344803	-7.532959	0.8808899
1493853046000	3.6998749	-6.592682	2.6598358
1493853046000	1.6941681	-5.4761963	4.5221252
1493853046038	-0.68914795	-3.2887573	4.6756897
1493853046058	-2.8621826	-2.1319275	4.956497
1493853046080	-3.154068	-1.3086548	4.18721
1493853046097	-3.007141	-1.2414856	2.5949097
1493853046116	-2.363388	-2.265976	0.8513336
1493853046134	-1.3969727	-4.7328796	-1.9332733
1493853046154	-0.86761475	-9.579926	-9.062881
1493853046175	-2.1895294	-15.611465	-12.079819
1493853046200	-4.8892365	-18.29512	-13.493942
1493853046217	-3.9595184	-14.629898	-9.944077
1493853046236	-1.9983978	-10.283554	-6.373825
1493853046256	-4.2911835	-8.719986	-7.6844177
1493853046274	-7.5661316	-13.188385	-10.515717
1493853046301	-5.0930634	-18.777771	-5.811096
1493853046313	-0.8909912	-13.021866	6.1160583
1493853046332	0.47088623	-2.790268	8.462448
1493853046353	-2.1433258	-2.2096558	7.6105194
1493853046371	-2.5075989	-7.2204437	8.008316
1493853046392	0.25512695	-12.635574	8.436966
1493853046413	3.04039	-15.743362	3.2252502
1493853046434	4.83136	-15.55632	-0.5258484
1493853046452	4.8403015	-13.948486	0.041030884
1493853046473	3.832901	-11.056366	1.2879333
1493853046494	1.8490448	-8.719147	0.8582611
1493853046514	-0.09602356	-7.6984863	0.057434082
1493853046534	-1.5613098	-7.7731476	-0.40031433
1493853046555	-1.7066193	-8.626541	-0.6502991
1493853046573	-0.48258972	-9.258881	0.25576782
1493853046591	0.12779236	-9.249481	0.19961548
1493853046614	0.6578522	-8.556137	-0.55207825
1493853046632	1.0792847	-7.8611755	-0.71536255
1493853046654	0.88220215	-8.277725	-0.52763367
1493853046672	1.3331909	-9.807938	-0.28599548
1493853046692	2.5215454	-11.211166	-0.13002014
1493853046713	2.7985382	-10.866043	-0.10066223
1493853046733	1.6173096	-10.286377	-0.6356659
1493853046749	0.8207855	-10.573608	-0.15231323
1493853046770	2.4107666	-10.930267	0.8639984
1493853046790	3.723999	-11.4266815	0.5940399
1493853046809	3.2098846	-11.789673	-0.96995544
1493853046835	3.0489655	-12.391907	-1.786087
1493853046848	5.210663	-13.503265	-1.3478699
1493853046868	6.1909485	-13.324326	-2.8024902
1493853046887	2.6015015	-13.016708	-4.0755157
1493853046911	-1.197586	-11.478317	-2.3552246
1493853046928	-2.4206543	-11.458176	2.2014465
1493853046950	-2.8176422	-13.856491	4.6740723
1493853046969	-4.8760223	-17.424728	4.868408
1493853046988	-5.8639984	-18.929	1.2249451
1493853047010	-4.729843	-16.283615	-1.0848389
1493853047029	-4.189743	-13.735016	-0.75631714
1493853047051	-2.5678864	-11.695663	2.2608795
1493853047068	1.5962067	-9.43927	1.4401093
1493853047090	3.686615	-8.110504	-0.5294342
1493853047110	4.2371063	-7.4353485	1.407898
1493853047124	2.3813019	-6.305359	3.6383362
1493853047145	0.9854431	-4.192337	4.468231
1493853047186	-2.5204926	-2.354721	4.340317
1493853047209	-3.0950928	-1.4245605	3.5968628
1493853047209	-2.8285675	-1.4292297	2.986679
1493853047249	-2.0659485	-2.507492	1.430542
1493853047269	-1.2891235	-4.2596436	-0.46125793
1493853047283	-1.3449402	-7.4573517	-6.235504
1493853047308	-3.59169	-13.210373	-8.724884
1493853047328	-5.288162	-16.057068	-10.663681
1493853047344	-4.961792	-15.958054	-11.216873
1493853047364	-2.608078	-13.420624	-7.9005127
1493853047384	-1.2831268	-10.193619	-6.354782
1493853047403	-3.3194733	-5.756851	-7.14534
1493853047424	-6.458679	-7.482422	-8.282486
1493853047449	-8.232162	-16.364227	-6.2834473
1493853047464	-4.183487	-18.420914	-1.0082092
1493853047483	1.1761475	-8.868332	5.564682
1493853047505	1.4723663	-2.224289	9.995651
1493853047527	-0.9694824	-3.3804932	8.272202
1493853047544	0.20196533	-8.330841	9.254257
1493853047566	2.557953	-14.044434	6.925659
1493853047583	4.018936	-16.017227	0.010177612
1493853047604	5.243103	-14.082397	-2.8667145
1493853047625	4.2068787	-10.704224	-0.049865723
1493853047645	2.0879974	-8.517166	1.5440369
1493853047662	-0.16264343	-7.188431	0.9586487
1493853047680	-1.6991272	-6.9001617	0.69111633
1493853047702	-1.9973602	-7.696167	0.0018463135
1493853047721	-1.1403046	-9.081314	-0.41864014
1493853047742	0.0786438	-10.071579	-0.3092041
1493853047762	1.5081177	-9.738647	-1.0261078
1493853047781	2.6283264	-9.045181	-1.4723358
1493853047803	2.9178162	-8.971344	-0.37547302
1493853047820	2.7387085	-9.449829	1.1322021
1493853047839	2.5218506	-9.79007	1.2852631
1493853047859	1.508255	-9.886612	0.23725891
1493853047879	-0.30995178	-10.47995	-0.57328796
1493853047901	-0.76301575	-11.551498	-0.20384216
1493853047920	1.6394196	-12.143295	0.12515259
1493853047941	4.4114532	-12.149643	0.1318512
1493853047961	4.449127	-12.011871	-0.03591919
1493853047980	2.5932617	-11.911224	-1.1924591
1493853048001	3.016693	-12.797409	-1.736023
1493853048021	5.056839	-13.430908	-2.3779297
1493853048041	4.9599915	-12.503525	-3.2595367
1493853048062	1.8674469	-11.803604	-2.6159973
1493853048079	-1.2317963	-10.657959	0.1182251
1493853048101	-2.7314606	-11.910004	3.488556
1493853048119	-4.488098	-15.583847	4.7858734
1493853048139	-6.2680054	-18.630157	3.1238403
1493853048157	-5.2387543	-17.526917	-0.38980103
1493853048178	-3.6406403	-14.747971	-1.346756
1493853048199	-0.83480835	-12.224152	1.5461121
1493853048220	2.751297	-10.266083	1.5396881
1493853048239	3.2218475	-8.598785	0.41888428
1493853048260	3.1295013	-7.3796997	1.0756683
1493853048279	1.4925079	-6.359726	2.802475
1493853048298	0.45285034	-3.696991	4.0377655
1493853048321	-1.2745361	-2.4658508	4.591522
1493853048336	-2.393036	-2.1637115	4.3740997
1493853048355	-2.8196564	-2.1276245	3.7958221
1493853048375	-2.6701813	-2.8837433	2.308609
1493853048395	-2.5417633	-4.32222	0.27571106
1493853048414	-2.5962524	-6.503128	-2.941803
1493853048435	-2.256073	-11.207611	-10.253601
1493853048475	-1.5667725	-15.531158	-8.990494
1493853048494	-3.5029755	-16.964142	-12.019791
1493853048516	-3.828476	-12.083679	-9.436447
1493853048516	-2.888092	-8.870316	-6.608612
1493853048559	-2.5869293	-7.8606873	-8.155136
1493853048575	-6.8467407	-12.136002	-9.999817
1493853048595	-8.138916	-18.953873	-6.645218
1493853048617	-2.6468658	-14.955566	3.3111115
1493853048636	1.3533936	-6.81546	6.4821625
1493853048655	1.2227631	-3.1789856	9.382446
1493853048678	-0.33128357	-5.783783	8.25885
1493853048694	1.2561646	-10.654465	8.784348
1493853048716	3.5179596	-14.005005	3.881195
1493853048735	4.330963	-13.678528	-1.8848877
1493853048754	4.1440277	-13.04837	-1.7037811
1493853048775	3.2166443	-10.531982	0.9001312
1493853048790	1.2301178	-9.003052	2.3224182
1493853048817	-0.7784729	-7.9776917	1.3827667
1493853048831	-2.09935	-7.7537384	0.07597351
1493853048851	-2.7837982	-8.306366	-1.3500366
1493853048870	-2.1282806	-9.617096	-0.8228607
1493853048889	0.52783203	-9.828964	0.69485474
1493853048910	2.793457	-8.98378	0.5643921
1493853048931	3.1215515	-8.186508	-0.2939148
1493853048952	2.118805	-8.547424	-0.06262207
1493853048978	1.3959503	-9.655365	-0.1748352
1493853048990	1.7689056	-10.324371	-0.6702118
1493853049011	2.178299	-10.329498	-0.29003906
1493853049028	1.3714905	-10.856201	-1.278183
1493853049051	1.0628204	-11.579849	-0.83795166
1493853049072	3.0673828	-11.955399	0.8747406
1493853049090	4.7463684	-11.808701	1.3178864
1493853049108	3.522644	-11.71698	0.121398926
1493853049127	2.2885742	-12.240387	-0.5529022
1493853049151	3.4603577	-13.115158	-0.92907715
1493853049170	4.5550537	-13.238312	-2.5072937
1493853049195	3.3233337	-12.80748	-3.9497223
1493853049208	-0.35494995	-11.497009	-3.4162598
1493853049230	-2.2171326	-10.362732	0.106781006
1493853049247	-2.4746552	-12.215179	3.4351807
1493853049270	-4.2125854	-16.167877	4.6688995
1493853049290	-6.003784	-18.829132	2.2983246
1493853049318	-5.1899414	-17.303986	-1.4120331
1493853049327	-3.6898804	-13.991318	-1.2916565
1493853049349	-0.3839264	-11.345047	2.3483734
1493853049366	2.709488	-9.472794	1.6333313
1493853049386	3.9414215	-7.9774017	0.8418579
1493853049406	3.4973755	-6.6778717	1.2156677
1493853049428	2.801056	-6.0067444	3.0205536
1493853049448	0.8804321	-4.83815	4.1280212
1493853049469	-1.5335388	-3.615631	4.2436676
1493853049487	-2.67276	-2.7311096	4.2832336
1493853049507	-2.7549286	-2.450714	3.7912445
1493853049529	-2.6858978	-2.9626465	2.5242157
1493853049549	-2.526413	-4.1253204	0.63679504
1493853049568	-2.5891876	-6.4328613	-2.9898987
1493853049588	-3.541031	-11.93718	-9.977219
1493853049609	-4.33461	-17.338013	-12.817871
1493853049628	-5.108368	-17.425888	-12.43718
1493853049648	-3.7877197	-12.0890045	-9.059631
1493853049668	-1.8431091	-8.7173	-5.2586823
1493853049686	-3.9139557	-8.382828	-7.3710175
1493853049706	-7.8432007	-14.351364	-6.6288757
1493853049743	-3.607605	-15.389969	-2.73555
1493853049765	-1.4727783	-10.274765	3.6510773
1493853049784	-0.31170654	-5.663162	8.261749
1493853049802	-1.3240662	-5.467743	7.2456055
1493853049828	-0.41990662	-8.565918	8.531723
1493853049842	1.3142395	-12.569336	7.8892975
1493853049862	2.8687744	-13.2771	1.9771271
1493853049882	2.9239807	-12.893997	-2.2372742
1493853049902	3.267395	-11.888519	0.43556213
1493853049921	3.7317505	-10.0403595	1.1767731
1493853049944	3.0271301	-8.613266	1.4305725
1493853049965	1.0370941	-8.0221405	0.6670685
1493853049983	-0.17558289	-8.201843	0.19169617
1493853050003	-1.408493	-9.05809	-1.7302246
1493853050025	-1.1982269	-9.686874	-0.47914124
1493853050042	0.15711975	-9.339844	0.9066467
1493853050065	1.4994507	-8.714081	-0.90914917
1493853050084	1.9276581	-8.877167	-1.2562561
1493853050102	1.3917847	-9.775955	0.1945343
1493853050123	1.260437	-10.021774	1.303299
1493853050140	1.9380798	-10.23288	1.1061401
1493853050160	1.4913635	-11.310379	-0.37590027
1493853050182	0.6135864	-11.759415	-1.3855286
1493853050202	1.071228	-11.837189	-0.8086548
1493853050223	2.5798645	-11.674408	0.35568237
1493853050241	3.0765076	-11.356674	0.04676819
1493853050262	2.584259	-11.200424	-0.7034912
1493853050282	2.9149323	-11.410187	-0.46166992
1493853050304	4.3085938	-12.08577	-0.37852478
1493853050325	4.702408	-12.612213	-2.4413452
1493853050338	1.8793182	-12.1154785	-3.5334778
1493853050358	-0.9715271	-10.998581	-1.4530029
1493853050377	-2.0092468	-11.157806	2.3414001
1493853050396	-3.27565	-13.706604	4.4663086
1493853050419	-5.6468506	-17.577942	4.193161
1493853050438	-6.26709	-18.678482	1.3308105
1493853050459	-4.7316284	-15.831619	-1.3356018
1493853050478	-2.9291687	-12.747864	-0.967865
1493853050499	0.8128357	-10.538544	1.906662
1493853050521	3.055664	-9.3081665	1.8466492
1493853050540	3.3128357	-8.266403	1.041275
1493853050560	3.0582428	-7.257614	1.5421295
1493853050580	1.6510468	-6.2543793	3.1571655
1493853050599	-0.32887268	-4.6739655	3.9805145
1493853050619	-2.0185394	-3.3729248	3.5616608
1493853050638	-2.5272522	-2.5013275	3.532364
1493853050659	-2.5739746	-2.1952362	3.159729
1493853050679	-2.40065	-2.6130676	2.217392
1493853050700	-2.2308502	-4.094574	0.7046356
1493853050715	-1.7485657	-7.0895233	-4.5499115
1493853050735	-2.0648956	-13.586365	-10.823166
1493853050756	-3.2239838	-18.620667	-14.041779
1493853050775	-3.6276703	-15.972336	-12.942673
1493853050798	-2.917038	-11.216949	-7.957123
1493853050815	-1.8344727	-9.018692	-4.6916656
1493853050834	-3.09346	-7.6042786	-6.744919
1493853050854	-5.797714	-11.973175	-5.4765015
1493853050875	-5.530548	-14.761719	-1.9716797
1493853050893	-3.8427887	-12.943527	3.2959442
1493853050913	-1.7523499	-8.128586	5.4972076
1493853050933	-1.0895996	-6.691025	6.7535706
1493853050953	1.0613708	-7.468231	9.672211
1493853050975	3.6734772	-10.914169	8.753616
1493853050992	4.1629944	-13.462006	2.7429504
1493853051013	4.0500946	-12.972824	-2.9767609
1493853051036	3.1513367	-10.850739	-1.4750671
1493853051075	2.558426	-8.688461	1.9973602
1493853051095	-0.15672302	-8.433044	1.209549
1493853051113	-1.5897064	-8.037231	-0.21136475
1493853051134	-2.2812195	-8.549301	-0.45948792
1493853051152	-1.311203	-8.773102	0.022262573
1493853051170	0.8493042	-9.3819275	1.0240021
1493853051194	2.7449646	-9.560959	1.0107422
1493853051215	2.595932	-9.412033	-0.47875977
1493853051233	1.7224121	-9.481537	-0.7883301
1493853051253	1.5177002	-9.716232	0.15081787
1493853051274	1.4707489	-10.061188	0.18722534
1493853051292	1.2965698	-9.845093	0.47720337
1493853051310	0.6128082	-10.555084	-0.25445557
1493853051338	0.22599792	-11.668793	-0.78697205
1493853051349	1.3621521	-11.649719	-0.43336487
1493853051372	3.4609833	-11.37146	0.30026245
1493853051388	4.0159607	-11.283051	0.5083313
1493853051408	3.1274414	-11.116974	0.58792114
1493853051428	2.3601837	-10.866684	-0.38587952
1493853051449	2.6772308	-11.606979	-1.2133636
1493853051470	3.6922302	-12.65361	-1.7672577
1493853051489	3.5731964	-12.592026	-2.768921
1493853051509	1.1405182	-11.581497	-2.4004211
1493853051529	-1.7031403	-10.6670685	-0.26805115
1493853051550	-3.1267242	-11.619202	3.1746826
1493853051571	-4.7745667	-14.951736	4.3886566
1493853051590	-6.770584	-18.3423	2.7870636
1493853051609	-6.3972626	-17.945755	-0.28076172
1493853051631	-4.3413696	-14.661423	-1.476181
1493853051650	-1.9891663	-11.889099	0.427948
1493853051670	2.0234375	-10.1609955	1.8454132
1493853051689	4.7263184	-8.903366	0.8050842
1493853051709	4.2777557	-7.7110596	0.7655029
1493853051730	2.8255005	-6.823471	2.148941
1493853051748	1.0768585	-5.3933563	3.5854797
1493853051769	-1.3551178	-3.8169098	3.8614502
1493853051790	-2.7335052	-2.7184906	3.589325
1493853051809	-2.8018646	-2.0998993	3.2014313
1493853051825	-2.45784	-2.2776947	2.2088623
1493853051846	-2.0550842	-3.3746796	0.7786865
1493853051870	-1.4724731	-5.6205597	-1.7354736
1493853051884	-1.066742	-10.150421	-8.415421
1493853051904	-2.0526733	-15.936325	-10.482834
1493853051924	-3.6630707	-16.231186	-10.989075
1493853051945	-4.119217	-12.191147	-10.261154
1493853051967	-3.3065033	-9.968506	-6.994461
1493853051990	-2.7750702	-9.605759	-4.9452972
1493853052005	-3.490387	-8.57135	-5.898285
1493853052028	-5.803177	-11.1483	-5.6331177
1493853052045	-6.437317	-14.6502075	-3.0623932
1493853052065	-4.2502136	-14.677399	0.6219635
1493853052087	-1.0074768	-9.70842	2.7688599
1493853052108	0.907959	-6.0848694	6.9482574
1493853052124	1.2746582	-5.5734406	8.531921
1493853052145	2.1580353	-9.424866	8.065674
1493853052164	2.6998138	-12.980423	3.992569
1493853052185	3.338501	-13.436035	-1.1593018
1493853052205	3.3756866	-11.706512	-0.87872314
1493853052224	3.498703	-10.12648	1.4115448
1493853052244	0.97966003	-9.344528	2.0392609
1493853052263	-0.8009949	-8.202972	-0.26931763
1493853052285	-2.3711853	-8.308105	0.644516
1493853052321	-2.458847	-8.877029	-0.7088928
1493853052342	-1.8960876	-9.315567	0.42549133
1493853052361	0.66070557	-9.536575	0.2962799
1493853052380	2.484085	-9.459152	0.36021423
1493853052400	2.8128052	-9.026062	-1.2569885
1493853052420	2.3729706	-8.965927	-0.733078
1493853052440	1.4941864	-9.757355	0.279953
1493853052461	1.4359894	-9.993271	0.064193726
1493853052481	1.8963318	-9.984467	0.75590515
1493853052502	1.3802948	-11.294662	0.21508789
1493853052521	1.7114105	-11.738831	-0.44058228
1493853052540	3.5996857	-11.063461	-0.080825806
1493853052562	4.8362427	-10.784546	0.9644623
1493853052583	3.3244019	-11.194763	0.7349243
1493853052602	1.6471252	-11.290985	-1.3941803
1493853052620	2.1338806	-11.817001	-1.938034
1493853052642	4.3996887	-12.769165	-1.48143
1493853052660	3.6302338	-13.527237	-3.1635437
1493853052682	0.4320984	-13.152237	-3.326294
1493853052700	-1.8398285	-11.80806	-0.26983643
1493853052720	-2.7602081	-11.98848	3.3791351
1493853052740	-4.133835	-14.811478	5.04158
1493853052761	-5.7611084	-17.461868	3.1444397
1493853052781	-5.387924	-17.041336	-0.51950073
1493853052799	-3.4474945	-14.047958	-1.6246643
1493853052819	-2.0451355	-11.860733	0.13197327
1493853052839	0.07662964	-10.231232	2.0122528
1493853052859	1.9620972	-8.672455	1.8335114
1493853052891	2.2755127	-7.432556	0.87142944
1493853052896	2.3432312	-6.5596313	1.9198151
1493853052915	1.2969666	-5.4450684	3.07193
1493853052935	-0.1578064	-4.062393	3.162506
1493853052955	-1.4060211	-3.2620087	3.5126953
1493853052975	-2.027359	-2.806488	3.1084137
1493853052997	-2.1870117	-2.8299713	2.2085724
1493853053014	-2.154953	-3.4512634	0.871109
1493853053034	-1.6954956	-5.200485	-1.8665771
1493853053053	-1.2130585	-9.318039	-7.828766
1493853053078	-2.2291565	-14.589432	-11.2578125
1493853053098	-4.3069916	-17.394333	-12.296143
1493853053113	-4.184616	-14.7860565	-10.1979065
1493853053133	-2.213211	-10.990372	-7.025818
1493853053156	-2.298767	-8.585342	-6.7864227
1493853053173	-5.867325	-11.383347	-7.7138977
1493853053197	-6.6672516	-15.376358	-7.3758698
1493853053215	-4.3963776	-12.471298	1.2200317
1493853053236	-1.612854	-6.224457	5.4067993
1493853053256	-2.3563538	-5.0752563	5.981552
1493853053279	-2.6887512	-7.4060974	6.498581
1493853053297	0.18365479	-10.325043	8.378265
1493853053314	3.034027	-12.530914	6.613983
1493853053335	5.435913	-12.699722	2.1351776
1493853053352	5.584732	-12.874863	-0.89953613
1493853053383	4.743408	-11.192001	0.13290405
1493853053392	3.1549835	-8.997711	0.99412537
1493853053411	0.61883545	-8.309128	0.53700256
1493853053431	-1.6743469	-8.181	-0.20664978
1493853053452	-3.4844666	-8.587372	-0.7207794
1493853053476	-3.3597717	-8.786148	-0.90289307
1493853053495	-1.9049988	-8.972794	1.2087097
1493853053513	1.0423737	-9.389252	0.9646759
1493853053531	3.4657745	-9.131454	0.23187256
1493853053554	3.447281	-9.380478	-0.44657898
1493853053580	2.2230072	-9.586868	1.0827332
1493853053594	1.2710266	-10.116333	0.42242432
1493853053631	1.903656	-10.293533	-0.446167
1493853053654	2.2715607	-10.268051	-1.3424377
1493853053672	0.6880646	-10.735565	-1.502243
1493853053694	-0.035217285	-11.559799	-0.39001465
1493853053713	2.0845642	-11.66655	0.32234192
1493853053731	4.1792145	-11.551666	0.8722229
1493853053749	3.3608246	-11.522415	1.1021118
1493853053769	2.376297	-11.671036	-0.32359314
1493853053790	4.31575	-13.008545	-0.010482788
1493853053808	4.6098633	-12.985504	-1.7240906
1493853053831	2.332199	-12.4783325	-4.37764
1493853053846	-1.2425537	-10.850555	-2.4563751
1493853053865	-2.1412659	-10.552109	0.4402771
1493853053885	-2.8235016	-11.871475	3.5800629
1493853053905	-4.4022064	-14.864395	3.3817596
1493853053924	-6.231903	-18.290405	1.9245148
1493853053949	-5.8803864	-17.802704	-0.66252136
1493853053966	-3.9101868	-14.232391	-1.4532166
1493853053986	-0.7266083	-11.424744	0.6603546
1493853054008	3.7130585	-9.445862	3.16716
1493853054031	5.1581116	-8.278748	1.7027588
1493853054047	4.1232147	-7.401581	1.7007599
1493853054069	1.8421783	-6.5572357	2.6486664
1493853054090	-0.087265015	-5.2332153	3.272293
1493853054109	-1.348465	-3.7937164	3.5363617
1493853054133	-2.0347443	-2.9882355	3.5004883
1493853054149	-2.238449	-2.663742	2.9672089
1493853054166	-2.5381165	-3.0782318	1.9459839
1493853054190	-2.5717468	-4.3253174	0.513855
1493853054209	-2.5634003	-6.732025	-2.8445435
1493853054225	-2.9536896	-11.420792	-7.5440674
1493853054249	-3.283554	-16.321564	-11.358704
1493853054268	-3.425827	-16.070404	-11.507523
1493853054287	-3.0973053	-11.837662	-8.371597
1493853054304	-1.9706421	-9.107727	-5.9821777
1493853054326	-2.6773987	-8.990921	-6.8076935
1493853054345	-5.7246857	-13.697372	-7.609894
1493853054367	-6.0939026	-16.776352	-4.4233704
1493853054392	-3.4099426	-12.079834	1.7784729
1493853054403	-2.0235443	-6.3655243	6.317337
1493853054423	-2.3924713	-4.55719	6.930908
1493853054443	-1.0437317	-6.722336	7.7537537
1493853054465	1.6003265	-10.844238	8.435898
1493853054483	4.4936676	-13.222961	4.474991
1493853054504	5.3119965	-13.335907	-0.6816406
1493853054522	5.0301666	-12.220718	-1.2541351
1493853054544	3.6762238	-9.76178	0.6348114
1493853054568	0.869812	-8.553284	0.59780884
1493853054587	-1.3063049	-7.9509277	-0.16453552
1493853054606	-2.6188202	-8.297989	0.3700714
1493853054625	-2.935791	-8.999054	-0.9786072
1493853054643	-1.4680939	-9.436386	-0.36680603
1493853054665	0.60858154	-9.507645	0.48635864
1493853054684	2.3845062	-9.068527	0.15032959
1493853054705	2.3753815	-8.686279	-0.81427
1493853054724	1.3071747	-8.739304	0.7642517
1493853054743	0.6282654	-9.218353	1.0369415
1493853054762	1.5545654	-10.214935	0.7956238
1493853054780	1.7880859	-11.443802	-0.05052185
1493853054801	0.9691467	-11.665665	-1.0158081
1493853054821	-0.098983765	-11.5690155	-1.7018127
1493853054839	1.8486176	-11.436523	-0.44631958
1493853054872	4.003662	-11.084137	0.3118744
1493853054899	4.013077	-11.698746	1.3523865
1493853054918	1.9644012	-11.734482	-0.63420105
1493853054938	2.8661957	-12.151276	-0.9865875
1493853054958	5.1383514	-12.279633	-0.75901794
1493853054980	5.381424	-11.882126	-3.4579315
1493853055000	2.2230225	-11.554916	-3.0005646
1493853055019	-0.4156952	-10.607376	-0.5041809
1493853055038	-1.3452454	-11.570038	4.065338
1493853055060	-3.0865173	-14.734985	4.3782806
1493853055081	-5.566696	-18.535873	3.5594635
1493853055099	-6.438507	-18.919907	0.8644867
1493853055121	-4.748825	-15.191254	-1.4627228
1493853055137	-3.701477	-12.308334	-0.30856323
1493853055157	-0.50061035	-10.282089	1.9845276
1493853055178	3.2810974	-8.920776	0.8002472
1493853055200	4.171936	-7.9666443	0.07821655
1493853055220	3.9873505	-7.1447754	2.2707367
1493853055241	1.6972046	-6.090637	4.05542
1493853055259	-0.9259949	-4.3454437	4.040909
1493853055279	-2.8329773	-2.72406	3.9034882
1493853055300	-3.2053833	-1.8072662	3.633667
1493853055319	-2.7411804	-1.6558228	2.8881073
1493853055339	-2.2306519	-2.72435	1.6463623
1493853055369	-1.6395111	-5.0758514	-1.0857239
1493853055375	-1.2702942	-9.699646	-7.3624573
1493853055401	-1.8751831	-15.994934	-12.551971
1493853055415	-3.464447	-17.37474	-11.473221
1493853055433	-4.121933	-12.713013	-8.950485
1493853055454	-2.9568481	-8.996979	-6.360489
1493853055474	-2.1231537	-8.309219	-5.5033264
1493853055496	-4.5748444	-9.660324	-6.4979553
1493853055515	-7.719742	-13.4370575	-6.6506653
1493853055534	-7.416809	-15.754059	-3.150528
1493853055555	-3.4148712	-11.957733	0.9255676
1493853055577	-0.7846527	-6.8288727	4.986786
1493853055597	-0.77449036	-5.500778	6.8998566
1493853055619	0.49134827	-7.550812	7.9301453
1493853055635	2.6882477	-11.215149	8.08905
1493853055655	4.3233185	-13.006973	3.707611
1493853055675	5.1219788	-12.718643	-0.60809326
1493853055695	5.061722	-12.0186	-1.0122986
1493853055715	4.0524597	-9.974228	0.9819641
1493853055733	1.2085724	-8.714844	0.7939148
1493853055753	-1.3103027	-8.177444	-0.49676514
1493853055773	-2.7416687	-8.627426	-0.30696106
1493853055793	-2.5944366	-8.664597	-0.2999878
1493853055813	-1.9131927	-9.364975	-1.3230286
1493853055832	0.26722717	-9.432785	-0.4864807
1493853055851	2.2716827	-9.371689	-0.09162903
1493853055871	2.9937897	-9.3129425	-0.108291626
1493853055892	2.5801392	-9.36116	1.1286011
1493853055910	1.2454224	-9.916107	2.731018
1493853055930	0.81355286	-10.0368805	0.5948181
1493853055950	1.8227844	-10.305771	-2.9287262
1493853055972	2.566742	-10.843643	-3.0931854
1493853055989	2.4608307	-11.374649	-0.2939453
1493853056012	2.2687836	-10.918442	0.32507324
1493853056030	2.6172028	-11.3701935	-0.21221924
1493853056049	2.3327026	-11.905441	1.0114136
1493853056073	0.7574768	-11.952957	-0.13899231
1493853056091	1.0678406	-12.475479	-1.0865631
1493853056111	3.9184418	-13.468521	-3.061081
1493853056129	4.6961975	-12.371796	-3.5436096
1493853056171	2.5441284	-11.34433	-2.7109985
1493853056190	-0.91430664	-9.931625	0.38964844
1493853056208	-2.7067413	-11.73291	3.2091522
1493853056227	-4.2566376	-15.215317	3.559021
1493853056247	-5.9430084	-18.401566	2.2461548
1493853056270	-4.324707	-16.968277	-1.4415741
1493853056290	-2.85701	-13.7230835	-1.9261627
1493853056310	-0.6421509	-11.475479	0.3128357
1493853056326	4.431061	-9.644211	2.503601
1493853056345	4.8132324	-8.618317	0.62805176
1493853056364	4.087906	-7.568207	0.76704407
1493853056383	1.9787292	-6.697006	2.8621979
1493853056404	-0.3356018	-5.106003	3.3108368
1493853056424	-2.103363	-3.6258545	3.7839966
1493853056445	-3.063736	-2.7882233	4.0326843
1493853056470	-3.0861664	-2.282318	3.3853302
1493853056489	-3.0825043	-2.7507324	2.141159
1493853056509	-2.8946075	-4.064087	0.40675354
1493853056529	-2.5766144	-6.691986	-2.6394196
1493853056547	-2.4606934	-11.122406	-7.341522
1493853056569	-2.8852081	-15.456985	-10.152679
1493853056588	-4.223633	-16.213852	-11.5746
1493853056607	-4.299713	-13.209763	-8.943085
1493853056629	-2.5630646	-10.673767	-6.2835236
1493853056645	-2.8091888	-8.7846985	-5.5675354
1493853056667	-5.169876	-8.816681	-6.921982
1493853056685	-6.3478546	-12.903	-6.7308044
1493853056706	-4.1224213	-14.767014	-1.7442169
1493853056727	-1.3874512	-11.523941	3.8456116
1493853056748	-0.32911682	-7.3101807	6.8825226
1493853056766	-0.05570984	-5.5256653	8.543793
1493853056784	0.18589783	-7.846878	7.86644
1493853056803	2.2357178	-11.470657	6.1823425
1493853056824	4.1147614	-13.376724	1.8131866
1493853056842	5.0763397	-13.40033	-1.7496033
1493853056863	4.291748	-11.172882	-0.8274536
1493853056882	1.8875122	-9.041702	0.23118591
1493853056910	-0.50457764	-8.01445	-0.40174866
1493853056922	-1.9040375	-7.949417	0.07385254
1493853056941	-2.1229095	-8.372208	-0.11665344
1493853056961	-1.2670135	-9.142273	-0.4718933
1493853056982	0.3818512	-9.92485	0.047286987
1493853057004	1.7370758	-9.523804	-0.4402008
1493853057023	2.0437927	-8.795334	-0.85606384
1493853057042	1.4303741	-8.806366	-0.1031189
1493853057061	0.39149475	-9.4782715	1.4004517
1493853057082	0.3725586	-9.949493	0.9755707
1493853057103	1.4857025	-9.782242	-0.8634033
1493853057124	2.285324	-10.408844	-1.8202362
1493853057139	1.8385773	-11.631088	-0.5643616
1493853057160	1.5586548	-11.8871155	-0.032791138
1493853057181	2.7674255	-11.33223	-0.14767456
1493853057202	3.6271515	-11.055603	1.1677246
1493853057223	2.6625824	-11.137573	0.6705017
1493853057241	3.9610443	-12.043884	0.6424866
1493853057262	5.719269	-12.527573	0.0054473877
1493853057282	4.5610657	-12.707443	-3.4504547
1493853057299	-0.8890228	-12.356934	-4.408203
1493853057322	-2.9768066	-10.925476	-2.5012054
1493853057339	-1.8359222	-11.161972	2.088272
1493853057359	-2.4424438	-13.030487	4.011688
1493853057378	-4.676773	-17.107712	3.488678
1493853057409	-6.373352	-19.264145	1.2196655
1493853057437	-4.2481537	-16.222595	-1.5881042
1493853057458	-3.4421997	-13.045914	-0.769516
1493853057477	-1.4934998	-10.976044	1.0359039
1493853057497	2.8622894	-9.153778	1.3034058
1493853057518	3.5154114	-8.3003235	0.462677
1493853057539	3.619278	-7.0976257	1.0500946
1493853057556	2.305481	-6.336502	2.6752167
1493853057576	0.41448975	-5.0079803	2.7949524
1493853057599	-0.71377563	-3.7328491	3.364746
1493853057622	-1.9993591	-2.8825378	3.1296997
1493853057639	-2.3879547	-2.2750397	2.9852753
1493853057661	-2.5634918	-2.6352234	1.4235535
1493853057678	-2.1553802	-3.7854462	-0.41479492
1493853057696	-1.5731049	-6.5581207	-4.5735626
1493853057719	-2.0175934	-11.966415	-10.728226
1493853057738	-3.2826996	-16.404938	-11.4019165
1493853057756	-4.7181854	-16.653091	-9.774048
1493853057777	-3.6154633	-11.386246	-7.3880463
1493853057799	-2.6170807	-8.5095215	-5.9230347
1493853057816	-4.585602	-7.17894	-6.313736
1493853057838	-8.061752	-9.627823	-5.2622375
1493853057854	-7.853256	-14.471405	-3.924286
1493853057880	-3.609787	-14.825912	0.039001465
1493853057893	-0.19114685	-10.792358	4.371216
1493853057914	0.60317993	-6.4053802	6.9951477
1493853057932	0.34736633	-6.6634827	6.8049927
1493853057953	2.1217499	-9.426331	8.153534
1493853057973	3.8885803	-12.065033	5.083252
1493853057995	4.5848694	-13.299667	-0.12904358
1493853058014	4.6774597	-12.917221	-1.7492218
1493853058034	3.7566376	-10.351028	0.45933533
1493853058051	1.2946777	-8.432861	0.6150665
1493853058075	-1.0627136	-7.594757	0.029067993
1493853058093	-2.7498322	-7.805084	-0.5439911
1493853058114	-2.9824219	-8.507385	-0.5606079
1493853058133	-1.4897919	-9.180801	-0.35858154
1493853058152	0.93922424	-9.289185	-0.13964844
1493853058170	2.7429657	-9.024277	-0.43499756
1493853058194	2.851181	-9.154251	-0.83351135
1493853058213	1.8552856	-9.70314	0.34233093
1493853058234	1.2373047	-10.104858	1.1034546
1493853058253	1.0342255	-10.035278	0.24440002
1493853058274	1.1191711	-10.017624	-0.3842163
1493853058293	0.47607422	-10.642578	-0.7694397
1493853058313	-0.4010315	-11.5082855	-0.7808075
1493853058329	1.2120514	-11.784775	-0.17770386
1493853058353	3.810852	-11.803207	0.5120392
1493853058379	4.7776184	-11.849625	0.3565216
1493853058389	3.7198486	-11.528	-1.0371094
1493853058411	3.7639465	-11.7981415	-1.592453
1493853058428	4.8491516	-12.644501	-2.1277924
1493853058448	4.727295	-12.36705	-3.3410492
1493853058468	1.9712372	-12.157669	-3.0462189
1493853058492	-1.482132	-10.304657	-0.3066864
1493853058507	-3.2019806	-11.067551	3.2947235
1493853058532	-3.7967834	-14.13089	3.9108124
1493853058551	-6.415146	-18.554306	3.1719055
1493853058570	-5.370468	-18.599442	-0.17118835
1493853058591	-3.1712341	-15.269501	-1.6113586
1493853058612	-1.6235352	-12.603073	0.24772644
1493853058630	2.649704	-10.449524	2.046112
1493853058650	2.1120758	-9.123016	0.923584
1493853058669	2.5436554	-7.4121246	0.6920929
1493853058709	2.0929413	-6.66835	2.3903198
1493853058730	0.61447144	-5.525757	2.8211365
1493853058747	-0.36990356	-3.8407593	3.9217072
1493853058767	-2.0219421	-2.8595428	4.0090637
1493853058790	-2.5949402	-2.2291718	3.7845306
1493853058808	-2.376648	-2.0348206	2.457611
1493853058829	-2.2467651	-2.74617	0.93315125
1493853058850	-1.7211914	-4.915573	-2.0317383
1493853058872	-1.5147705	-10.339676	-10.487839
1493853058885	-1.8820648	-16.252426	-12.131241
1493853058908	-4.445282	-18.525742	-12.767181
1493853058924	-4.178055	-13.003235	-8.191483
1493853058944	-2.8515625	-9.115219	-6.9263763
1493853058962	-5.6043396	-10.778473	-8.423584
1493853058984	-9.204163	-17.631012	-6.2803345
1493853059005	-4.4116516	-15.108368	-1.9948883
1493853059024	-0.09080505	-5.679901	5.8279877
1493853059045	-0.9712982	-2.1390686	7.128891
1493853059063	-2.9581604	-5.506119	5.6566772
1493853059085	-0.6454315	-11.170349	7.5684357
1493853059104	3.0546722	-14.719254	6.8471375
1493853059125	6.1717834	-14.362915	1.7800598
1493853059142	5.896805	-13.1345215	-1.9772797
1493853059161	4.0250854	-12.123535	-0.66848755
1493853059184	2.1651917	-9.510101	1.6765594
1493853059205	0.046585083	-8.102371	1.0672607
1493853059226	-1.7337036	-7.50058	0.013793945
1493853059244	-2.6635284	-8.018631	-0.77101135
1493853059262	-2.2443237	-8.881561	-1.1201172
1493853059285	-0.8791809	-9.748993	-0.74728394
1493853059305	0.73373413	-9.732269	-0.28056335
1493853059325	1.824997	-9.083847	-0.47909546
1493853059344	2.2493439	-8.486664	-0.40597534
1493853059361	1.6034851	-8.421982	0.72795105
1493853059389	0.81806946	-8.959732	1.3075409
1493853059401	1.3164215	-9.739624	0.23425293
1493853059420	2.200821	-10.389206	-1.0745239
1493853059440	1.3422699	-11.393463	-0.9785156
1493853059459	-0.16438293	-12.161041	-0.29188538
1493853059479	0.15457153	-11.93515	-0.24684143
1493853059501	1.9697418	-11.398056	0.23852539
1493853059522	3.483078	-11.373459	0.6104431
1493853059543	3.5885468	-11.315994	-0.64564514
1493853059559	3.6343079	-12.067947	-2.021698
1493853059582	4.649231	-13.537781	-2.6123047
1493853059602	4.9501495	-12.980774	-3.0392609
1493853059621	3.0808868	-11.973053	-3.0807495
1493853059642	0.35353088	-10.487946	-0.43553162
1493853059659	-1.6089783	-10.937775	3.201233
1493853059680	-3.103485	-14.003616	3.920456
1493853059699	-5.533203	-17.719193	3.952713
1493853059721	-5.106201	-18.076096	0.9419403
1493853059741	-4.0091248	-15.356842	-1.1703796
1493853059760	-2.608963	-12.563553	-0.19355774
1493853059779	2.2283173	-10.442932	2.0153809
1493853059800	3.670517	-9.469849	0.8187866
1493853059818	3.8288422	-8.060806	0.25837708
1493853059836	3.608139	-7.4476776	1.7356415
1493853059856	1.9233398	-6.077133	2.9126587
1493853059879	0.031982422	-4.272064	3.8699036
1493853059908	-2.4544983	-3.2184906	4.813843
1493853059919	-2.9500427	-2.4452057	4.373535
1493853059957	-3.1866302	-1.9458313	3.070572
1493853059974	-2.9704132	-2.5042877	1.3079376
1493853059995	-2.5845947	-4.238388	-0.4500885
1493853060014	-2.3699646	-8.517181	-7.657074
1493853060037	-2.4065552	-15.790451	-11.016403
1493853060057	-2.6484375	-18.988556	-13.490326
1493853060071	-3.2328339	-13.020599	-9.742172
1493853060092	-3.3189087	-8.534149	-6.011505
1493853060111	-2.1745148	-7.8062134	-5.883072
1493853060131	-4.3694916	-7.342514	-6.409195
1493853060151	-8.57637	-10.271454	-4.130554
1493853060171	-7.2800903	-16.048828	-1.7375336
1493853060191	-3.7924042	-16.935547	1.001831
1493853060211	1.526001	-9.581772	5.847473
1493853060232	2.7584229	-5.6189423	9.508072
1493853060255	2.4167786	-6.7470703	9.204269
1493853060271	3.2129517	-10.94368	7.21402
1493853060295	3.701889	-13.430328	1.9825897
1493853060313	3.4113617	-13.749069	-2.182846
1493853060338	3.2158203	-11.879211	-0.36473083
1493853060356	1.9570923	-9.951553	1.0003357
1493853060374	-0.86390686	-8.385544	0.72746277
1493853060392	-2.4008636	-7.9684753	0.111343384
1493853060411	-2.5992737	-8.033463	-0.41223145
1493853060433	-1.1168518	-8.564453	-0.40260315
1493853060450	1.0906067	-9.569092	0.35014343
1493853060471	2.93721	-9.375916	0.40083313
1493853060490	3.32193	-8.426559	-0.8741455
1493853060511	2.6551666	-8.184937	-0.47227478
1493853060534	1.3703461	-8.890732	1.072052
1493853060554	0.65722656	-9.893875	0.3784027
1493853060573	0.9598999	-10.569443	-1.0405426
1493853060594	1.0062408	-10.882797	-1.7304382
1493853060613	0.4207611	-11.206192	-0.79008484
1493853060635	1.2637482	-11.269897	0.45925903
1493853060653	3.5405273	-10.985352	0.71458435
1493853060673	4.308563	-11.023132	0.2013092
1493853060689	2.9013977	-11.608292	-1.2885284
1493853060711	3.234436	-12.318069	-1.8275757
1493853060735	5.0418243	-13.338898	-2.1813965
1493853060747	5.5880585	-12.780167	-1.8599854
1493853060771	2.420639	-11.87236	-3.041153
1493853060789	-1.2028503	-11.148331	-0.723938
1493853060805	-2.4021606	-11.767227	3.492508
1493853060826	-3.763565	-15.045151	3.73349
1493853060846	-6.4100037	-18.5878	3.739624
1493853060865	-5.726822	-18.94487	0.5775299
1493853060885	-4.3434906	-15.943832	-1.6197968
1493853060908	-2.3410492	-12.87146	0.065979004
1493853060924	2.328888	-10.53598	1.6720886
1493853060944	4.0282593	-8.999039	0.78723145
1493853060964	4.464279	-7.515259	0.5230408
1493853060986	3.5695648	-6.7526703	2.5845337
1493853061006	1.047287	-5.2114563	4.023636
1493853061025	-1.2305145	-3.3399048	4.8874664
1493853061049	-3.196457	-2.3243103	4.715332
1493853061072	-3.5217743	-1.5466309	4.024933
1493853061085	-3.1202087	-1.4824066	2.8836975
1493853061110	-2.481369	-2.2610016	1.5209808
1493853061128	-1.8900757	-4.311081	-0.21835327
1493853061144	-1.5089417	-9.393204	-9.463852
1493853061165	-1.5256195	-16.636993	-10.077438
1493853061186	-4.589676	-19.470642	-14.253601
1493853061208	-4.2615814	-14.184708	-10.480377
1493853061247	-2.7061462	-10.082764	-6.3797913
1493853061268	-2.7114105	-8.59346	-5.792618
1493853061284	-4.7068176	-5.4257355	-7.5213013
1493853061305	-7.7790375	-9.417831	-4.3279724
1493853061325	-7.2342377	-15.178131	-0.30955505
1493853061345	-4.3588257	-17.007843	2.0894623
1493853061365	1.8448792	-9.928909	3.9558105
1493853061382	2.6917114	-6.330078	10.101837
1493853061407	2.9473267	-6.8535767	9.075409
1493853061422	3.0202026	-11.238724	6.572357
1493853061442	3.0109406	-13.676636	0.634552
1493853061461	3.5071564	-13.341675	-2.8051758
1493853061481	4.170044	-11.180115	0.20503235
1493853061501	2.2830505	-9.62291	1.4232025
1493853061522	-0.55726624	-8.456604	0.39863586
1493853061545	-2.2617798	-7.814026	-0.32443237
1493853061564	-3.044464	-7.8611603	-1.2779846
1493853061582	-2.1391296	-8.852753	-0.8678589
1493853061604	0.3975067	-9.750671	-0.28311157
1493853061623	2.1394196	-9.48967	0.21977234
1493853061644	3.0988922	-8.444046	-0.64289856
1493853061663	2.7969666	-8.4370575	-0.6607666
1493853061682	2.0848846	-9.192963	-0.315094
1493853061704	1.9648743	-9.597107	-0.29507446
1493853061722	2.046814	-9.89917	-0.2813263
1493853061741	1.0495453	-10.811981	-0.18009949
1493853061762	0.41662598	-12.261871	0.0030212402
1493853061782	2.3204346	-13.062561	0.37799072
1493853061799	4.2360687	-12.602646	0.37391663
1493853061822	3.975708	-12.172562	-0.8727417
1493853061842	4.157608	-12.304703	-2.345993
1493853061861	5.2691956	-13.123581	-2.654007
1493853061878	5.1455994	-13.183609	-3.063202
1493853061899	2.5775757	-12.54335	-3.0529022
1493853061925	-0.36044312	-11.138947	-1.0851593
1493853062023	-2.0220642	-10.53653	2.6899414
1493853062024	-3.0039215	-13.254364	4.3241425
1493853062024	-5.0896454	-17.755463	3.657257
1493853062024	-5.9407196	-19.474823	1.0784607
1493853062024	-4.6217957	-16.83789	-1.4992065
1493853062034	-2.6975708	-13.316483	0.20570374
1493853062064	1.5115356	-10.7789	1.1561127
1493853062075	2.8312836	-9.140869	0.42851257
1493853062094	3.198227	-7.432129	0.8955841
1493853062114	2.4781647	-6.3478546	2.183838
1493853062133	1.3475342	-4.812958	3.4016418
1493853062153	-0.110305786	-3.4647064	4.732956
1493853062173	-2.08313	-2.5896454	4.8260803
1493853062192	-2.8150177	-1.895874	4.204712
1493853062213	-2.7110138	-1.6911163	3.0269623
1493853062232	-2.416687	-2.4765167	1.0314789
1493853062252	-1.685791	-4.5654297	-2.1708527
1493853062272	-1.8080292	-9.566345	-8.020523
1493853062292	-2.1068115	-15.774292	-11.33165
1493853062312	-4.5484467	-19.179733	-13.63652
1493853062331	-4.2845154	-14.6922455	-9.885498
1493853062353	-3.0381012	-9.801437	-5.805359
1493853062372	-3.6182709	-6.560379	-5.7705536
1493853062392	-5.1236877	-4.61322	-6.4379272
1493853062411	-9.3923645	-12.743439	-4.798462
1493853062433	-5.8503265	-16.450089	-0.61131287
1493853062471	-0.8807373	-15.4272	2.9694824
1493853062490	2.8468018	-8.045822	8.5065
1493853062510	2.3717957	-5.431259	9.7877655
1493853062530	2.8202362	-7.6254272	9.7447815
1493853062550	2.9954987	-12.953415	6.365219
1493853062569	2.669571	-13.43895	-0.6721344
1493853062589	3.1772156	-12.472763	-1.6968231
1493853062609	3.9275818	-10.456085	1.0552979
1493853062629	1.0865631	-9.312042	1.8648071
1493853062649	-1.115799	-8.05484	0.09603882
1493853062668	-2.8567963	-7.6936035	-0.29284668
1493853062688	-2.5130463	-7.9630127	-0.6666107
1493853062708	-1.3680573	-9.133072	-0.73143005
1493853062728	1.2679443	-9.346481	0.49098206
1493853062748	2.7049866	-9.058899	-0.062423706
1493853062768	2.65802	-8.893829	-0.8088379
1493853062787	1.9812012	-9.524521	1.0038147
1493853062814	1.8955078	-10.490524	0.9212036
1493853062831	2.8383942	-10.662064	-1.24086
1493853062848	2.3978882	-10.92421	-2.233429
1493853062867	0.8040161	-11.77298	-1.5217133
1493853062887	0.8486481	-12.3367	-0.24855042
1493853062907	2.663559	-12.1586	-0.03717041
1493853062926	3.3139648	-11.663345	-0.25006104
1493853062946	3.0508118	-11.199387	-1.6718903
1493853062966	3.7815247	-11.712448	-2.184906
1493853062986	5.2239227	-12.930862	-1.8801422
1493853063006	3.8511505	-12.85733	-2.7675629
1493853063026	0.010116577	-11.328552	-1.7816925
1493853063046	-2.638855	-10.807159	1.5772705
1493853063066	-3.344101	-13.793152	4.1183777
1493853063086	-5.0489044	-17.846878	3.7423248
1493853063105	-5.786789	-19.084778	1.1502991
1493853063125	-4.027817	-16.556076	-1.334198
1493853063145	-2.9166412	-13.440292	-0.895401
1493853063166	-0.34529114	-11.158585	2.2831116
1493853063186	1.752121	-9.592911	2.5033722
1493853063205	2.6907043	-7.9662323	0.7599182
1493853063227	3.198578	-6.8221893	1.2924652
1493853063251	2.4694366	-5.912491	3.0570068
1493853063269	0.9990692	-3.9574127	4.4003906
1493853063290	-1.0398712	-2.3592987	4.6954803
1493853063305	-2.26062	-1.7056274	4.321869
1493853063329	-2.243225	-1.5577698	3.4986572
1493853063347	-1.9784546	-2.0262756	2.0349426
1493853063369	-1.7447815	-3.6462555	0.0011291504
1493853063388	-1.9150696	-8.177032	-8.83374
1493853063408	-2.1499481	-14.418106	-11.636307
1493853063427	-5.429886	-18.666763	-13.349991
1493853063447	-5.313202	-16.445297	-10.614273
1493853063465	-3.4408264	-10.882919	-6.0711517
1493853063488	-3.368164	-6.866379	-5.6788483
1493853063508	-7.025528	-9.260483	-9.866821
1493853063525	-6.232727	-17.939056	-10.286575
1493853063549	-2.254837	-15.302139	3.1505737
1493853063565	1.0613098	-4.745636	8.827637
1493853063587	-0.5993042	-2.123001	7.4969635
1493853063608	-2.8502045	-6.533951	6.242279
1493853063624	0.045791626	-11.430359	9.848099
1493853063646	2.6393585	-15.21344	4.8528137
1493853063668	3.9314423	-14.264709	-0.8948822
1493853063683	4.557312	-14.488327	-1.5273743
1493853063704	4.0113373	-11.80545	1.2271423
1493853063723	2.6252747	-9.217804	1.3980408
1493853063745	0.17315674	-7.8449097	0.85028076
1493853063765	-1.2815552	-7.8513184	0.7462616
1493853063802	-2.2291718	-8.617569	-2.7955475
1493853063821	-2.4571686	-9.630447	-1.9754791
1493853063841	-0.60809326	-9.6362915	-0.17945862
1493853063861	1.1805573	-8.667282	0.15176392
1493853063883	1.3678741	-7.880844	-0.28416443
1493853063902	1.2788849	-7.519562	0.6677551
1493853063922	0.84465027	-8.22345	1.3226471
1493853063942	1.0864258	-9.787506	0.3287506
1493853063961	2.6553192	-10.41362	-1.1761322
1493853063982	2.649002	-10.830963	-1.0701904
1493853064002	0.6677551	-11.806793	-1.1598816
1493853064021	0.5967865	-12.009827	-0.6284332
1493853064040	3.1188965	-12.326416	0.5260773
1493853064060	4.4283447	-12.521545	-0.3723755
1493853064079	4.076935	-12.298859	-2.749817
1493853064102	4.5766907	-12.349991	-2.8702698
1493853064122	6.004471	-13.195068	-2.108368
1493853064140	4.619873	-12.992966	-3.2856598
1493853064158	1.183075	-12.033173	-1.3223724
1493853064178	-1.4426422	-11.524017	2.2069244
1493853064201	-3.2003174	-13.494553	4.5438995
1493853064221	-5.0701447	-17.262299	3.8236084
1493853064241	-6.476471	-19.365479	1.9928436
1493853064260	-4.996643	-17.68808	-0.76867676
1493853064281	-3.2607422	-14.205338	-0.7938843
1493853064306	0.09375	-11.574081	1.3590088
1493853064317	3.4314728	-9.745346	2.266632
1493853064335	3.783142	-8.248627	0.54115295
1493853066740	3.2779694	-6.842819	1.5153198
1493853066741	1.7651062	-5.432205	3.5914917
1493853066741	0.1328888	-3.6842957	4.340454
1493853066741	-1.4970398	-2.3511505	4.6306915
1493853066741	-2.6674042	-1.4765015	4.626465
1493853066741	-2.8214111	-1.0394745	3.8708038
1493853066741	-2.2565613	-1.5502167	2.3447266
1493853066742	-1.5950775	-3.3201447	0.079940796
1493853066742	-1.4470673	-7.218292	-6.6966095
1493853066742	-2.2368317	-13.645889	-10.190414
1493853066742	-4.2377167	-18.374847	-13.3845215
1493853066742	-3.6134644	-16.313904	-11.304443
1493853066742	-1.8085785	-11.081039	-7.373337
1493853066743	-1.9520874	-7.8689423	-6.824829
1493853066743	-4.9478607	-6.854721	-7.532364
1493853066743	-8.420151	-12.461548	-6.19783
1493853066743	-8.330978	-17.177155	-3.5411682
1493853066743	-3.7290955	-14.542511	1.1545105
1493853066743	0.36868286	-6.7505646	6.5501556
1493853066744	-0.32469177	-4.516449	7.683792
1493853066744	0.59103394	-6.6384583	9.092575
1493853066744	2.8503723	-10.927124	8.860794
1493853066744	5.189102	-14.120514	1.5648956
1493853066744	3.7983398	-13.828766	-2.806961
1493853066744	3.175827	-12.556213	-0.86305237
1493853066744	2.8127441	-9.825607	1.353653
1493853066745	1.0009613	-8.596832	1.1686554
1493853066745	-0.48701477	-7.857483	-0.17433167
1493853066745	-1.6488342	-8.502853	-0.50323486
1493853066745	-2.0476837	-8.93663	-0.9329529
1493853066745	-1.7761383	-8.799332	-1.9557495
1493853066745	-0.16343689	-8.240997	-0.740036
1493853066745	1.5311737	-7.72818	0.044448853
1493853066746	2.090744	-8.067841	-0.94421387
1493853066746	1.300003	-9.472366	0.61564636
1493853066746	0.6762085	-10.554993	1.665451
1493853066746	1.5523529	-10.4392395	0.50109863
1493853066746	3.3185577	-9.102371	-0.0660553
1493853066746	1.631485	-11.196121	-1.4272003
1493853066747	0.2710724	-12.579636	-0.83769226
1493853066747	1.8615265	-12.544098	-0.47073364
1493853066747	3.3810425	-12.955551	-0.16242981
1493853066747	3.6389313	-12.572327	-0.008804321
1493853066747	3.9832306	-12.660919	-0.7220764
1493853066747	5.59877	-13.917999	-0.5930939
1493853066747	5.032791	-13.570557	-2.9105377
1493853066748	1.5173492	-12.733215	-4.1925964
1493853066748	-2.193039	-10.980347	-2.3176117
1493853066748	-2.6383057	-11.030685	2.0537262
1493853066748	-2.7373962	-13.468628	4.3335876
1493853066748	-4.2274323	-16.755829	3.2068634
1493853066750	-5.15448	-18.19432	0.8556061
1493853066750	-3.4560852	-15.541595	-1.350708
1493853066750	-2.6464386	-12.425247	-0.1890564
1493853066750	-0.8540039	-10.418015	2.1120148
1493853066751	1.9895172	-8.666779	2.7033997
1493853066751	2.7699127	-7.492264	1.1625061
1493853066751	2.6556396	-6.3307953	0.934906
1493853066751	2.2572327	-5.5702667	2.7285767
1493853066751	0.850647	-4.6574097	3.6729126
1493853066752	-0.8650055	-3.4458466	4.175934
1493853066752	-2.2006989	-2.5764465	3.9381104
1493853066752	-2.533432	-2.05159	2.8792725
1493853066752	-2.198532	-2.134079	1.0738525
1493853066752	-1.6241608	-3.8625793	-2.6546478
1493853066752	-1.6400146	-8.409454	-7.9045715
1493853066752	-2.4444275	-13.87796	-11.320694
1493853066753	-4.467209	-16.284576	-11.875519
1493853066753	-5.031006	-14.15506	-10.061768
1493853066753	-3.5420074	-11.561935	-7.157303
1493853066753	-4.6383514	-10.54068	-7.211685
1493853066753	-7.845169	-14.62648	-9.434235
1493853066754	-6.5860443	-18.650146	-10.137543
1493853066754	-1.544693	-11.926468	2.6042328
1493853066754	0.49969482	-1.8456879	9.568909
1493853066754	-2.8712616	-1.261383	6.466461
1493853066754	-3.4915009	-7.1097107	7.55925
1493853066754	0.3374939	-12.456406	11.99231
1493853066755	4.033478	-15.752258	4.5044556
1493853066755	5.035904	-14.525024	-2.5284119
1493853066755	4.7593384	-13.434891	-1.9305725
1493853066755	3.3626556	-10.787064	0.84259033
1493853066755	2.615097	-8.679581	0.19212341
1493853066756	1.1943512	-7.388672	-0.6606598
1493853066756	-0.18682861	-7.5276184	-1.4165497
1493853066756	-0.74739075	-8.282135	-1.7611389
1493853066756	-1.4608002	-8.787186	-1.1153717
1493853066756	-1.13237	-8.759384	-1.2160339
1493853066756	0.12579346	-7.9760284	0.058670044
1493853066756	0.288208	-7.7213287	0.33836365
1493853066757	-0.76034546	-8.440277	0.38020325
1493853066757	-1.4006348	-9.147293	1.065445
1493853066757	0.86628723	-9.79277	0.119262695
1493853066757	3.328125	-10.452148	-0.68188477
1493853066757	3.2844086	-11.407593	-0.36732483
1493853066757	0.8588562	-12.887222	-0.1555481
1493853066757	1.0532532	-12.680374	-0.65815735
1493853066758	3.8843994	-12.687637	0.0803833
1493853066758	5.145233	-12.502914	0.13597107
1493853066758	5.4378967	-13.394089	0.8985443
1493853066758	6.2552795	-13.684769	0.2316742
1493853066760	3.7378845	-13.785233	-3.6582947
1493853066761	-1.2839661	-13.289917	-4.816925
1493853066761	-3.247467	-10.902786	-2.1088257
1493853066761	-2.0766144	-11.182892	1.8717651
1493853066761	-2.3674927	-12.7339325	4.0261993
1493853066762	-4.150894	-16.172989	2.873825
1493853066762	-5.691696	-18.4198	0.6446228
1493853066762	-4.2184143	-15.722549	-1.0960388
1493853066762	-2.9676056	-12.59227	0.03111267
1493853066763	-1.3831329	-10.611938	1.6704865
1493853066763	1.749939	-8.789017	2.4082336
1493853066783	2.1083374	-7.6711273	1.0200806
1493853066804	2.3160248	-6.5777435	1.6534882
1493853066822	1.9159851	-6.061447	2.848999
1493853066844	1.1456451	-5.2565002	3.92128
1493853066864	-0.4761505	-3.6577606	3.7318878
1493853066881	-2.136444	-2.2593079	3.125824
1493853066904	-2.517624	-1.4544067	2.6383362
1493853066923	-2.3331757	-1.7495422	1.2765198
1493853066943	-1.707016	-3.2079468	-1.322998
1493853066963	-1.0306244	-6.95842	-7.1188507
1493853066981	-1.3214417	-12.62413	-11.575745
1493853067002	-3.9182587	-16.779099	-12.02623
1493853067022	-4.989029	-15.453369	-10.709366
1493853067042	-3.1914368	-11.634125	-7.5689697
1493853067061	-2.8440857	-8.478638	-7.8819885
1493853067079	-4.2552795	-5.458008	-7.665619
1493853067098	-8.970413	-7.729248	-3.8407898
1493853067116	-8.57515	-14.072876	-2.9268494
1493853067135	-4.427948	-18.438065	-1.7449493
1493853067156	1.3977661	-12.855515	7.0132446
1493853084294	2.527481	-6.5147552	9.822601
1493853084294	0.9841461	-6.3930206	9.964798
1493853084294	0.96868896	-10.449387	8.629196
1493853084294	1.2583618	-13.735611	3.8499908
1493853084294	1.7254639	-13.905289	0.3854828
1493853084294	2.8401947	-12.851883	-0.24996948
1493853084294	3.578415	-10.280792	1.7094727
1493853084294	1.8147736	-8.457001	1.7330017
1493853084294	-0.8097992	-7.6212006	-0.7081604
1493853084294	-1.649704	-7.8184204	-1.3091583
1493853084294	-1.483017	-8.2439575	-1.870163
1493853084294	-0.14831543	-9.25914	-0.70777893
1493853084294	1.7962646	-9.323563	0.04676819
1493853084294	3.0041962	-8.61969	-0.74461365
1493853084295	3.0092468	-7.7568207	-1.1421661
1493853084295	1.3861084	-8.69133	0.6747894
1493853084295	0.30891418	-10.960159	1.609436
1493853084295	1.8378754	-11.274094	-0.27742004
1493853084295	2.1257172	-10.34317	-1.4118958
1493853084295	0.36831665	-10.816376	-1.6821442
1493853084295	-0.7099762	-11.603317	-1.0297089
1493853084295	2.034378	-11.629868	-0.25942993
1493853084295	4.000168	-11.615173	1.416275
1493853084295	3.4959717	-11.52272	-0.09194946
1493853084295	2.977478	-11.465668	-1.7294312
1493853084295	5.276169	-13.090485	-0.20141602
1493853084295	5.3001404	-13.263458	-1.9716339
1493853084295	2.0016022	-12.944763	-3.7398224
1493853084295	-2.2714844	-10.832474	-2.090866
1493853084295	-2.025589	-11.259293	3.5626068
1493853084295	-2.4622803	-15.07869	5.053833
1493853084295	-4.650894	-19.188416	4.2793427
1493853084296	-4.6753387	-18.911362	1.4376373
1493853084296	-2.3615417	-14.994705	-0.99879456
1493853084297	-2.7242432	-12.474838	0.11152649
1493853084297	-2.038391	-10.851257	2.4132996
1493853084297	0.9969635	-8.926971	1.4618378
1493853084297	1.3619385	-7.661972	0.16699219
1493853084297	2.0084076	-6.1179047	1.5727692
1493853084297	1.8782959	-5.200424	3.2716064
1493853084297	0.6057129	-4.0858307	4.115494
1493853084302	-1.1070862	-2.9750214	4.0085754
1493853084302	-2.4108124	-2.5423737	3.5576782
1493853084302	-2.5813446	-2.2627258	2.761551
1493853084302	-2.0171509	-2.9587708	1.4667664
1493853084302	-1.1457825	-4.797119	-1.3883209
1493853084302	-0.9184265	-8.689575	-6.719589
1493853084302	-2.2229156	-13.860123	-10.231201
1493853084302	-3.9786224	-16.022705	-11.313492
1493853084302	-4.7781067	-14.032822	-8.978119
1493853084302	-4.086731	-10.952789	-6.252762
1493853084302	-3.1288605	-8.915619	-5.9597473
1493853084302	-5.08374	-9.573456	-8.765274
1493853084302	-7.162781	-15.208282	-9.051819
1493853084302	-4.683304	-17.137848	-1.1418457
1493853084302	-0.7940674	-10.568802	6.616928
1493853084302	0.07685852	-4.636627	8.097961
1493853084303	-0.5908966	-5.005493	8.483673
1493853084303	0.6286316	-9.407455	9.479309
1493853084303	2.7493744	-13.712341	6.1678314
1493853084303	3.5028534	-13.869904	0.039916992
1493853084303	3.5201416	-12.500977	-1.9508667
1493853084303	3.061615	-10.700485	0.41563416
1493853084303	1.7499542	-8.933594	2.1361542
1493853084303	0.013900757	-7.9959106	1.3228455
1493853084303	-1.5419922	-7.890686	-0.17070007
1493853084303	-2.040619	-8.50708	-1.0536041
1493853084303	-1.1042633	-9.445358	-0.5239258
1493853084303	0.9034729	-9.737778	0.5683136
1493853084303	1.904419	-9.14447	-0.1816101
1493853084303	1.8567505	-8.551941	-1.0446625
1493853084303	1.410553	-8.771759	-0.011688232
1493853084303	0.9747772	-9.711166	1.2774506
1493853084303	1.6526794	-10.339737	0.6613312
1493853084303	2.2335815	-10.039688	-0.6817322
1493853084303	1.2686157	-10.538483	-1.2141876
1493853084303	0.37872314	-11.507904	0.04359436
1493853084303	1.8347168	-11.833206	-0.44613647
1493853084303	3.902069	-11.641418	-0.46795654
1493853084303	3.8719177	-11.524643	0.22702026
1493853084303	3.0712738	-11.680725	-1.6850128
1493853084303	3.871292	-11.975403	-2.8152618
1493853084303	5.238098	-13.156998	-2.0528107
1493853084304	5.3884277	-12.943253	-2.9994202
1493853084304	1.9316711	-12.735275	-2.8452454
1493853084304	-0.87257385	-10.239548	0.31948853
1493853084304	-1.9015808	-11.759338	4.0653076
1493853084304	-3.1389008	-16.052673	4.310211
1493853084304	-6.2491302	-19.472748	3.676773
1493853084304	-5.89534	-19.13173	-0.3985138
1493853084304	-4.049637	-14.369675	-1.8220215
1493853084304	-2.5981293	-11.593094	0.39640808
1493853084304	1.6025391	-9.594788	2.0250397
1493853084304	1.6389465	-8.458145	1.488678
1493853084304	2.6262665	-6.8053436	0.8948059
1493853084304	2.4363403	-6.0676117	2.6412811
1493853084304	1.442749	-4.6606903	3.7476501
1493853084304	-0.45098877	-3.320282	4.369461
1493853084304	-1.9896088	-2.5279694	4.346237
1493853084304	-2.5037231	-1.9172668	3.8878174
1493853084304	-2.2700653	-2.1610107	2.4633179
1493853084304	-1.8835144	-3.4610748	0.24137878
1493853084304	-1.7215271	-6.3052063	-3.7320862
1493853084304	-2.2882385	-11.006363	-9.000046
1493853084304	-3.7412872	-16.336761	-11.68515
1493853084304	-5.498886	-17.6678	-11.729828
1493853084304	-4.6466064	-12.50618	-8.442749
1493853084304	-3.4438782	-9.314026	-5.806122
1493853084304	-4.855118	-9.436569	-7.622162
1493853084305	-7.3451385	-14.360901	-9.832657
1493853084305	-4.61438	-17.3723	-3.3106842
1493853084305	-0.588974	-10.602783	6.110794
1493853084305	-0.28225708	-3.9177551	7.5315857
1493853084305	-2.0951843	-4.494919	7.506729
1493853084305	-0.7314911	-8.814346	8.455017
1493853084305	2.753296	-13.139572	7.870697
1493853084305	4.5093384	-14.19754	1.9800415
1493853084305	4.9223785	-13.389084	-1.9950104
1493853084305	4.217575	-12.12059	-0.5571594
1493853084305	2.839325	-9.5728	1.6275482
1493853084305	0.5937805	-7.996887	1.0868073
1493853084305	-1.603775	-7.845688	-0.05973816
1493853084305	-2.6066284	-8.492081	-1.1782837
1493853084305	-1.8853302	-9.272095	-1.300827
1493853084305	-0.013793945	-9.511139	0.2930298
1493853084305	1.5086975	-9.187958	0.605011
1493853084305	2.0620728	-8.626007	-0.010604858
1493853084305	1.7420349	-8.337494	-0.3070526
1493853084305	0.8257141	-8.976288	0.95474243
1493853084305	0.4361725	-9.994354	0.39460754
1493853084305	1.7099457	-10.002213	-1.0428009
1493853084305	2.3074646	-10.14978	-1.4648895
1493853084305	1.1425629	-11.485916	-1.1110382
1493853084305	0.22219849	-12.488937	-0.8424072
1493853084305	2.547226	-12.273071	-0.22492981
1493853084305	4.7565765	-12.04071	0.50161743
1493853084306	4.2420654	-12.137527	-1.5884247
1493853084306	3.3416595	-12.674591	-2.8088226
1493853084306	4.7293854	-13.713837	-1.8497009
1493853084306	4.4277344	-13.381409	-3.0296783
1493853084306	1.8215637	-12.435654	-2.8950195
1493853084306	-1.385376	-10.388611	-0.47390747
1493853084306	-3.080902	-11.122986	3.4135284
1493853084306	-3.4916534	-14.784775	4.5733795
1493853084306	-5.836136	-18.256577	4.6691895
1493853084306	-5.4358673	-17.93718	0.69207764
1493853084306	-3.7420044	-14.51442	-1.6509247
1493853084306	-2.651947	-11.90831	-0.26229858
1493853084306	0.49887085	-9.791519	3.9201813
1493853084306	2.2575684	-8.977356	0.68896484
1493853084306	3.0161438	-7.374832	0.40296936
1493853084306	3.1209412	-6.5211487	2.419464
1493853084306	2.3081665	-5.1831665	3.5395355
1493853084306	0.22761536	-3.35466	3.9438782
1493853084306	-2.2359009	-2.8639984	4.0906067
1493853084306	-2.8579254	-2.2203674	3.6926422
1493853084306	-2.7503815	-2.183319	2.5478516
1493853084306	-2.4671936	-3.3143463	0.66038513
1493853084306	-2.1229095	-5.622711	-2.1373596
1493853084306	-2.1153412	-10.461517	-9.550354
1493853084306	-2.695465	-16.15332	-11.512253
1493853084306	-5.0590363	-17.749832	-13.307419
1493853084306	-4.547333	-12.335159	-8.313995
1493853084307	-3.1017303	-8.235901	-6.4479523
1493853084307	-4.01326	-7.5567017	-6.6115265
1493853084307	-7.897934	-11.149231	-6.6433105
1493853084307	-7.943741	-17.024506	-4.337677
1493853084307	-2.7363434	-14.718445	1.0999146
1493853084307	1.0405884	-8.529266	5.186722
1493853084307	1.2146912	-5.4882355	8.669815
1493853084307	1.0317688	-7.386551	9.632996
1493853084307	2.4862213	-11.193954	9.206543
1493853084307	3.0018768	-13.65213	3.2543793
1493853084307	2.494995	-12.948944	-1.1675415
1493853084307	2.4065552	-11.811935	-0.8690033
1493853084307	2.8454895	-10.191238	0.85879517
1493853084307	1.562851	-8.589493	1.1195831
1493853084307	0.06840515	-7.9293365	0.22026062
1493853084308	-0.6387329	-8.124588	-0.28585815
1493853084308	-0.43928528	-8.581665	-1.221756
1493853084308	-0.004501343	-9.1645355	-1.1906891
1493853084308	-0.0018615723	-9.437317	-0.9433899
1493853084308	0.6327667	-8.8650055	-0.80804443
1493853084308	1.4416199	-8.550644	-0.66244507
1493853084308	1.423584	-9.119492	0.5924835
1493853084308	1.1382141	-9.676453	1.4599152
1493853084308	1.763382	-9.9653015	0.86094666
1493853084308	2.4601746	-10.484787	-0.14364624
1493853084308	1.9447632	-11.216919	-1.193924
1493853084308	0.84184265	-11.705017	-1.7834778
1493853084308	1.7207184	-11.858124	-1.1525269
1493853084308	4.017746	-12.176849	0.6166229
1493853084308	4.093567	-12.464722	0.2514038
1493853084308	2.1230621	-12.364563	-1.1385651
1493853084308	3.1123047	-12.913895	-0.2855835
1493853084308	4.714554	-13.273132	-1.406723
1493853084308	3.279953	-12.644348	-3.4829254
1493853084308	-0.31118774	-11.0099945	-2.9734344
1493853084308	-2.008957	-9.829651	1.3877106
1493853084308	-2.2394257	-11.493378	4.2756653
1493853084308	-3.512024	-15.17131	3.6819153
1493853084308	-5.5487823	-18.43106	2.29245
1493853084309	-4.20842	-16.709198	-0.5440521
1493853084309	-3.533554	-13.578232	-0.81547546
1493853084309	-2.5064392	-11.079727	1.7592621
1493853084309	0.52786255	-9.379105	1.5835724
1493853084309	2.588974	-8.344559	0.35993958
1493853084309	2.9185333	-7.357971	0.51182556
1493853084309	2.6704865	-6.547226	2.6893616
1493853084309	1.5491943	-5.1574707	3.4763336
1493853084309	-0.8269501	-4.0786743	3.901596
1493853084309	-2.7275238	-3.3491516	4.0782623
1493853084309	-2.9187775	-2.473938	3.371231
1493853084309	-2.5308075	-2.6701965	1.9524384
1493853084309	-2.172104	-3.8996582	0.122558594
1493853084309	-1.8606873	-6.7098846	-3.7254791
1493853084309	-1.4840088	-12.632187	-10.343552
1493853084309	-2.1553192	-17.130966	-12.261688
1493853084309	-4.2526855	-16.059357	-11.700653
1493853084309	-3.8920135	-11.28157	-7.9078674
1493853084309	-3.2114258	-9.003098	-5.313751
1493853084309	-4.875046	-10.067535	-6.2109833
1493853084309	-7.380249	-13.935394	-7.663727
1493853084309	-5.7404175	-15.7682495	-3.807434
1493853084309	-3.1865997	-10.208176	5.1963196
1493853084309	-0.62194824	-4.658905	6.3891296
1493853084309	-0.3559723	-4.992981	7.5319366
1493853084309	0.6535492	-9.01059	7.7117615
1493853084309	3.3974457	-12.872635	6.889557
1493853084310	4.5188446	-13.637131	1.875824
1493853084310	4.309128	-12.508469	-2.1148987
1493853084310	3.155548	-11.318314	-0.8807831
1493853084310	1.7892609	-9.24379	1.4144897
1493853084310	0.6320343	-8.219772	1.1520691
1493853084310	-0.8042145	-7.986725	0.5994415
1493853084310	-1.5230103	-8.741821	-0.08201599
1493853084310	-1.4240112	-9.529892	-0.8609009
1493853084310	-0.32426453	-9.800293	0.18591309
1493853084310	0.83403015	-9.4292755	0.1873169
1493853084310	1.41539	-8.619019	-0.302536
1493853084310	1.4480743	-8.501602	-0.33158875
1493853084310	1.0531616	-9.077225	0.9556122
1493853084310	0.918396	-9.768387	1.3040466
1493853084310	1.6983643	-10.185013	-0.07849121
1493853084310	2.3013306	-10.326569	-0.69415283
1493853084310	2.1353912	-10.719269	-0.33691406
1493853084310	1.3807526	-11.355576	-0.5824127
1493853084310	1.7583466	-11.557648	-1.1819763
1493853084310	3.0520477	-11.672028	0.09736633
1493853084310	3.4546814	-11.816132	0.6793518
1493853084310	3.0388947	-11.817734	-1.3131714
1493853084310	3.4383392	-12.320969	-1.6658173
1493853084311	4.800476	-13.204178	-1.595993
1493853084311	4.1411896	-13.175903	-2.7900696
1493853084311	0.52319336	-11.580475	-3.7791748
1493853084311	-2.2743073	-10.088257	-0.9083557
1493853084311	-2.7067719	-11.479736	2.7508392
1493853084311	-3.8691711	-15.639496	3.6739502
1493853084311	-6.3025208	-18.913712	3.4054413
1493853084311	-5.1302795	-18.34311	-0.2632599
1493853084311	-3.8220673	-14.522873	-2.197113
1493853084311	-1.0940857	-11.186417	1.2202606
1493853084311	2.4291077	-9.783386	0.8509674
1493853084311	4.6211243	-8.79071	-0.17546082
1493853084311	4.297714	-7.902191	1.4584961
1493853084311	3.3267517	-6.126663	2.7438965
1493853084311	1.2779388	-4.486496	3.7106476
1493853084311	-1.5579376	-3.748169	4.241333
1493853084311	-3.1694794	-2.4698792	4.0505524
1493853084311	-3.6345062	-1.7069702	3.6361084
1493853084311	-3.2211456	-1.5562439	2.3509674
1493853084311	-2.3430634	-2.7261963	0.98217773
1493853084311	-1.5279999	-5.0511017	-0.5697174
1493853084311	-1.4607239	-10.142899	-8.796829
1493853084311	-2.181076	-16.749756	-11.5815735
1493853084311	-4.382126	-19.143692	-15.30159
1493853084312	-2.7763977	-14.825317	-8.614151
1493853084312	-1.4411926	-10.380203	-6.318573
1493853084312	-2.5746613	-7.7550507	-7.081833
1493853084312	-6.0602417	-7.549225	-8.019348
1493853084312	-7.7887726	-13.593475	-4.2856445
1493853084312	-4.233322	-14.123123	0.4419098
1493853084312	-1.357544	-10.174377	2.8226776
1493853084312	-0.5272827	-6.8537903	6.6236725
1493853084312	-0.7410126	-6.771408	7.636017
1493853084312	0.68333435	-9.190826	7.5639496
1493853084312	2.586197	-12.241074	4.884247
1493853084312	3.754486	-13.296875	1.1813965
1493853084312	3.6287537	-12.905884	-0.02973938
1493853084312	3.8986206	-11.2712555	0.3516693
1493853084312	2.4461517	-8.974823	0.68118286
1493853084312	0.13050842	-8.093887	-0.016052246
1493853084312	-1.0482483	-8.05069	-0.27120972
1493853084312	-1.0488281	-8.638382	0.1081543
1493853084312	-0.60343933	-9.167023	-0.18006897
1493853084312	0.37020874	-9.548477	0.091033936
1493853084312	1.3806152	-9.403564	-0.13160706
1493853084312	1.6519775	-8.735168	-0.4799652
1493853084312	1.4573364	-8.597885	-0.32859802
1493853084313	0.89645386	-9.363922	0.53163147
1493853084313	1.0351715	-10.142151	0.3419342
1493853084313	1.8937988	-10.1254425	-0.36384583
1493853084313	1.3490753	-10.343735	-0.841568
1493853084313	0.18240356	-11.40123	-0.79689026
1493853084313	1.597992	-11.931213	-0.07455444
1493853084313	3.7180634	-11.810226	0.19976807
1493853084313	3.7213745	-11.729477	-0.09857178
1493853084313	3.1016693	-12.330338	-0.5954437
1493853084313	3.926651	-13.806961	-0.6926575
1493853084313	4.64357	-13.878906	-2.0470428
1493853084313	3.9422302	-12.903519	-3.4154968
1493853084313	1.1354828	-11.518311	-3.1036682
1493853084313	-1.3937225	-10.19957	-0.21984863
1493853084313	-2.4848938	-11.590195	3.0995026
1493853084313	-3.8042908	-15.137558	3.6334686
1493853084313	-6.0890503	-18.593079	2.7490692
1493853084313	-4.7678833	-17.793564	0.48399353
1493853084313	-3.8509674	-14.429871	-0.21829224
1493853084313	-2.4020996	-11.639175	1.8953247
1493853084313	0.89875793	-9.610779	1.0469666
1493853084313	2.428894	-7.907669	0.53215027
1493853084313	4.054184	-6.987747	1.111206
1493853084313	3.7930603	-6.3018036	2.470398
1493853084313	2.0440063	-5.0179596	2.892212
1493853084313	-0.33769226	-3.975174	3.6077118
1493853084313	-2.2599335	-2.7705383	4.019943
1493853084314	-2.582199	-1.9888153	3.68956
1493853084314	-2.6298676	-2.2606506	2.5895386
1493853084314	-2.1276093	-2.8697662	1.2553558
1493853084314	-2.0202026	-4.695465	-1.4149933
1493853084314	-2.5070953	-10.217117	-13.500839
1493853084314	-2.0298004	-16.545761	-9.713196
1493853084314	-4.607071	-19.470474	-14.970673
1493853084314	-2.8695831	-16.494522	-7.336609
1493853084314	-1.3668671	-9.791992	-5.765518
1493853084314	-5.0068817	-5.234421	-6.91214
1493853084314	-7.3314514	-5.6249847	-6.694031
1493853084314	-8.084412	-13.120605	-5.604019
1493853084314	-3.156021	-14.842819	1.1478577
1493853084314	-0.39778137	-11.388657	2.5439148
1493853084314	-0.3678589	-6.462021	6.8418274
1493853084314	-1.289505	-6.3694763	6.3604126
1493853084314	-0.020141602	-8.717926	6.8873596
1493853084314	2.5134125	-11.414337	6.1705017
1493853084314	4.2350464	-12.859604	3.0596313
1493853084314	4.7046967	-12.772156	-0.5174103
1493853084314	4.793579	-11.960968	-0.043518066
1493853084314	3.1126404	-9.558945	0.1391449
1493853084314	0.42816162	-8.617325	-0.43058777
1493853084314	-1.3448944	-8.164093	-0.07901001
1493853084314	-1.7375183	-8.6017	0.59280396
1493853084315	-1.0418396	-8.775879	-0.6516266
1493853084315	-0.18980408	-9.00798	-1.1659851
1493853084315	0.8338165	-9.061325	-0.25704956
1493853084315	1.3274841	-8.735764	-0.041671753
1493853084315	1.4109497	-8.90744	-0.19204712
1493853084315	1.3096924	-9.549393	0.73895264
1493853084315	1.5130157	-9.864105	0.5932617
1493853084315	2.5149384	-9.725372	-0.61756897
1493853084315	2.8797455	-10.414871	-1.0106964
1493853084315	1.5582428	-11.676636	-0.67181396
1493853084315	0.38813782	-12.276657	-0.7195282
1493853084315	1.7340088	-12.007309	-0.27746582
1493853084315	3.1400146	-11.701187	0.7677002
1493853084315	2.339264	-11.426041	0.14237976
1493853084315	2.0280762	-11.286148	-0.88275146
1493853084315	4.0083923	-12.17189	-0.64971924
1493853084315	5.1205597	-13.151184	-1.9920349
1493853084315	3.5138702	-12.920074	-3.3365936
1493853084315	0.8032532	-11.853653	-1.9514923
1493853084315	-1.8316803	-10.470398	1.2944946
1493853084315	-3.5208282	-11.472778	3.6338959
1493853084315	-5.52594	-15.107468	4.005554
1493853084315	-6.653488	-17.726425	1.5518494
1493853084315	-4.725891	-15.874069	-1.2999878
1493853084315	-2.6851196	-13.069778	-0.9878235
1493853084315	-0.21258545	-10.831558	2.819519
1493853084315	1.9981384	-9.65921	2.6650085
1493853084316	2.4508667	-8.722321	0.9035034
1493853084316	2.599945	-7.7529297	1.4584808
1493853084316	1.7846985	-6.975174	2.0131683
1493853084316	0.6042328	-5.223709	2.9654083
1493853084316	-0.9957886	-3.878418	3.6845245
1493853084316	-2.0692291	-3.1355896	3.9004517
1493853084316	-2.4135132	-2.7438965	3.3857117
1493853084316	-2.3421783	-2.843689	1.8187103
1493853084316	-2.2314758	-3.9455414	-0.45715332
1493853084316	-1.9108734	-6.357071	-3.7537842
1493853084316	-2.0870209	-11.8016815	-9.246872
1493853084316	-2.454712	-16.874298	-14.517593
1493853084316	-3.3293304	-17.152985	-12.253952
1493853084316	-2.291687	-11.146362	-7.2807007
1493853084316	-1.9050293	-7.1791687	-5.1177216
1493853084316	-3.7578735	-6.368393	-8.223145
1493853084316	-9.798386	-17.210724	-5.4616547
1493853084316	-5.4660645	-19.209656	-2.1610565
1493853084316	0.42300415	-9.63324	5.002594
1493853084316	1.5724945	-3.773407	8.500992
1493853084316	-0.80392456	-5.181183	7.4810486
1493853084316	1.0050354	-10.003235	9.426086
1493853084316	2.5704803	-14.722549	6.6191254
1493853084316	4.012024	-15.130753	-0.0138549805
1493853084316	3.8997345	-12.911652	-1.0532227
1493853084316	3.300476	-10.560104	1.4066467
1493853084317	0.9393616	-8.907928	3.1377106
1493853084317	-1.3634949	-8.332504	1.7173767
1493853084317	-2.7575684	-7.710495	1.4984283
1493853084317	-3.9644623	-8.41095	-1.5064545
1493853084317	-2.5317535	-9.6575775	-0.81518555
1493853084317	1.0646667	-9.78302	0.031585693
1493853084317	4.401245	-9.165451	0.75405884
1493853084317	3.9746704	-9.036942	-0.1473999
1493853084317	2.8525696	-9.137848	-0.017547607
1493853084317	2.3143768	-9.847305	0.10083008
1493853084317	2.5113678	-10.119278	-0.26843262
1493853084317	2.234726	-9.962219	-1.1453247
1493853084317	0.6869507	-10.498215	-1.0229187
1493853084317	0.19883728	-11.244797	-0.2929535
1493853084317	1.6259613	-10.934143	0.45315552
1493853084317	3.179718	-10.114471	0.6213989
1493853084317	3.0848236	-10.277786	-0.73265076
1493853084317	2.937439	-11.209366	-2.2703552
1493853084317	4.3493805	-12.726059	-1.9755249
1493853084317	5.8566437	-13.9075775	-1.8535004
1493853084317	4.608124	-13.464203	-2.4417572
1493853084317	0.34074402	-12.191528	-1.8457794
1493853084317	-2.5338593	-11.950745	1.7107391
1493853084317	-3.3253021	-14.158737	4.429291
1493853084317	-4.9760895	-17.560211	3.98497
1493853084317	-5.65506	-18.813461	1.7456055
1493853084317	-4.1029053	-16.548004	-0.9430542
1493853084317	-2.3435364	-13.464661	-0.6013031
1493853084318	1.3361664	-10.972336	1.8913422
1493853084318	2.332672	-9.773514	1.3950348
1493853084318	1.3878784	-8.38298	0.18374634
1493853084318	1.6155701	-6.8417664	1.4240875
1493853084318	0.76335144	-5.668228	2.9413757
1493853084318	-0.20962524	-3.614212	3.1273499
1493853084318	-1.234375	-2.4289246	3.5617065
1493853084318	-2.2680054	-1.9074554	3.6773224
1493853084318	-2.6324463	-1.9757233	2.907257
1493853084318	-2.364975	-2.849411	1.7172852
1493853084318	-1.7028961	-4.7128754	-0.009246826
1493853084318	-0.98661804	-8.104202	-7.003586
1493853084318	-0.44589233	-14.297134	-9.604202
1493853084318	-2.0182495	-18.172562	-11.034088
1493853084318	-2.6250153	-14.046555	-10.247147
1493853084318	-2.4032288	-9.557388	-7.108856
1493853084318	-1.5701599	-8.314011	-5.839966
1493853084318	-1.5828857	-8.127731	-5.4796906
1493853084318	-3.372284	-7.694702	-7.126526
1493853084318	-7.244568	-12.465912	-3.2673187
1493853084318	-7.694092	-15.39299	-0.7535095
1493853084318	-6.319687	-14.942856	0.99490356
1493853084318	-1.1927185	-7.907898	2.6734467
1493853084318	1.4680634	-5.5763397	8.038666
1493853084318	2.546585	-6.4036407	9.035934
1493853084318	3.151245	-10.944626	7.4636536
1493853084318	3.6672363	-13.7482605	2.616867
1493853084319	3.5415192	-12.580734	-0.75068665
1493853084319	3.836258	-11.619308	-1.6955109
1493853084319	2.590866	-9.192627	0.08924866
1493853084319	0.43876648	-8.59639	1.7637177
1493853084319	-1.4024048	-8.003006	1.4100037
1493853084319	-2.353424	-7.9119263	0.37442017
1493853084319	-2.4187927	-8.590012	-1.2112122
1493853084319	-1.1480713	-9.406448	-0.3671112
1493853084319	1.2568207	-9.785629	-0.0030059814
1493853084319	2.5800476	-9.270645	-0.83558655
1493853084319	2.5360413	-9.185471	-0.8914795
1493853084319	1.9777832	-9.308075	0.54473877
1493853084319	1.6558075	-9.552353	1.0065918
1493853084319	1.7771912	-9.811066	0.43119812
1493853084319	1.3126831	-10.297226	-0.3955536
1493853084319	0.38865662	-11.342346	-0.7264557
1493853084319	0.5411377	-12.03064	-0.39723206
1493853084319	2.2013702	-11.957443	0.01940918
1493853084319	3.7830505	-11.601044	0.65956116
1493853084319	3.3754578	-11.681763	-0.1741333
1493853084319	2.3853912	-12.084457	-2.0915222
1493853084319	3.3970337	-12.65654	-2.201355
1493853084319	4.455017	-13.286972	-3.150467
1493853084319	2.9026642	-12.685913	-4.0467987
1493853084319	0.2399292	-10.988052	-2.0263824
1493853084319	-1.4911957	-10.35524	1.1799927
1493853084320	-2.415329	-12.266663	3.802719
1493853084320	-4.11763	-15.995346	3.9161072
1493853084320	-4.72731	-17.876709	1.5098724
1493853084320	-3.193924	-15.968994	-1.4678802
1493853084320	-2.2432098	-13.257202	-0.9110565
1493853084320	0.12574768	-10.724716	1.6168213
1493853084320	0.9733887	-9.261749	1.2873383
1493853084320	1.3264465	-8.258606	-0.22940063
1493853084320	2.4773407	-7.600174	0.86198425
1493853084320	2.627304	-6.584732	2.5033112
1493853084320	1.4619904	-5.044174	3.2796173
1493853084320	-1.2511292	-4.151596	3.882309
1493853084320	-2.826477	-3.363861	3.9395294
1493853084320	-2.9745178	-2.5827332	3.1402588
1493853084320	-2.60701	-2.63443	1.6499176
1493853084320	-2.3553162	-3.5731354	0.012573242
1493853084320	-1.9918365	-6.2097626	-3.4128113
1493853084320	-1.6448975	-11.681747	-9.2352295
1493853084320	-2.4748993	-17.313385	-14.164764
1493853084320	-2.8959503	-18.572983	-12.869064
1493853084320	-2.1423798	-13.174316	-7.728073
1493853084320	-2.1003723	-8.528717	-5.5082245
1493853084320	-3.8114166	-5.2273865	-6.284775
1493853084320	-7.769821	-8.246048	-2.6723328
1493853084320	-7.6870117	-13.68219	-1.5565796
1493853084320	-4.9071198	-16.680511	-0.39831543
1493853084320	0.9326019	-11.99707	2.855194
1493853084320	2.6871948	-6.203598	9.39888
1493853084321	1.7363586	-5.3354797	9.4874115
1493853084321	1.2047272	-9.692444	6.899414
1493853084321	2.0121002	-13.229385	2.5178833
1493853084321	1.6461487	-13.196564	-1.3669891
1493853084321	2.580246	-11.889984	-0.86227417
1493853084321	3.928009	-9.780579	0.7141876
1493853084321	2.0383759	-9.296524	1.4779816
1493853084321	0.1608429	-8.566132	0.19784546
1493853084321	0.039001465	-8.536026	0.5098419
1493853084321	-0.49673462	-9.045578	-1.3861694
1493853084321	-0.45645142	-9.382263	-1.3218689
1493853084321	-0.31100464	-9.52504	-0.35368347
1493853084321	0.1651001	-8.659409	-0.6770325
1493853084321	0.87008667	-7.9392395	0.25904846
1493853084321	0.92152405	-8.566681	1.268219
1493853084321	0.6195221	-9.620041	1.7657471
1493853084321	1.3479462	-10.7859955	-0.53952026
1493853084321	2.766693	-10.993347	-1.6470184
1493853084321	1.9105988	-11.087341	-1.0992126
1493853084321	0.5769806	-11.652206	0.05101013
1493853084321	1.5665588	-11.786514	-0.8002472
1493853084321	3.7658234	-11.878693	0.090911865
1493853084321	3.4920502	-11.6940155	0.09552002
1493853084321	2.5500183	-11.669617	-0.95570374
1493853084321	3.7837372	-12.732208	-0.9960022
1493853084321	4.347824	-13.218338	-2.657135
1493853084321	2.1101837	-12.615906	-4.0101776
1493853084322	-1.3065643	-10.89595	-2.0057526
1493853084322	-2.0454102	-10.152481	1.4251709
1493853084322	-1.9476318	-12.881989	4.170929
1493853084322	-3.5329895	-16.839462	4.116028
1493853084322	-5.019699	-18.320358	1.9017181
1493853084322	-4.6937256	-15.841202	-0.9307556
1493853084322	-4.4480896	-13.083435	-0.80010986
1493853084322	-3.4262238	-11.427551	2.2173615
1493853084322	-0.40065002	-9.699173	2.3560028
1493853084322	2.339737	-8.251556	-0.20773315
1493853084322	3.96109	-7.285309	0.12768555
1493853084322	3.8849945	-6.4660187	2.0234222
1493853084322	1.7956696	-5.30249	3.1125336
1493853084322	-1.0426636	-3.9868774	3.3953552
1493853084322	-2.7734375	-2.7369995	3.2687225
1493853084322	-3.0463867	-1.9240112	2.626358
1493853084322	-2.778061	-2.1104279	1.1984253
1493853084322	-1.7163086	-3.505722	-0.49339294
1493853084322	-0.2893219	-7.0750275	-7.1261597
1493853084322	-0.581131	-12.921234	-11.773102
1493853084322	-2.7589874	-17.85643	-12.731506
1493853084322	-4.3773346	-15.60054	-9.119659
1493853084322	-3.8122559	-10.555084	-5.684387
1493853084322	-3.5912323	-7.863022	-5.124481
1493853084322	-5.7394257	-8.170685	-8.080063
1493853084322	-8.045441	-16.01445	-6.848831
1493853084322	-5.570465	-16.420929	-0.049621582
1493853084323	-0.94081116	-9.034271	4.355377
1493853084323	-0.41174316	-4.6268463	7.711487
1493853084323	-1.5459137	-5.3094635	6.8401947
1493853084323	0.75779724	-9.140793	8.044571
1493853084323	3.3187103	-12.788681	5.7274017
1493853084323	5.687851	-14.012329	1.4461212
1493853084323	5.0334167	-13.556808	-2.2689362
1493853084323	4.070709	-11.264328	-1.1265564
1493853084323	2.2981415	-9.157501	1.3543701
1493853084323	-0.2530365	-8.009277	1.0114746
1493853084323	-2.157196	-7.872513	-0.044906616
1493853084323	-3.6934204	-8.449265	-1.608902
1493853084323	-2.0862732	-8.997437	-0.3212433
1493853084323	-0.8461914	-9.754105	-0.2757721
1493853084323	1.1672058	-9.566986	-0.20445251
1493853084323	1.9102478	-8.99823	-0.17385864
1493853084323	2.1019592	-8.59758	0.35250854
1493853084323	1.2192535	-8.832916	1.6204071
1493853084323	0.37005615	-9.627945	1.4973755
1493853084323	0.89149475	-10.73201	-0.8183441
1493853084323	2.094101	-10.628418	-1.5413666
1493853084323	1.0907288	-10.492065	-1.0809021
1493853084323	-0.18763733	-11.088425	0.23684692
1493853084323	1.0661926	-11.403641	0.032318115
1493853084323	3.5279236	-11.672501	0.30378723
1493853084323	3.8244019	-11.907959	0.14859009
1493853084323	2.7530365	-11.949432	-1.4163818
1493853084324	3.0702057	-13.205353	-2.2854614
1493853084324	4.512985	-14.122559	-2.806076
1493853084324	4.154541	-12.906937	-3.1699677
1493853084324	1.9812622	-11.384689	-1.3543701
1493853084324	-0.6353607	-10.529053	1.1230164
1493853084324	-2.3805237	-12.078354	3.97789
1493853084324	-4.390045	-15.618622	4.1647797
1493853084324	-6.010147	-18.1277	2.624527
1493853084324	-5.368622	-16.768082	-0.3534851
1493853084324	-4.021881	-13.401382	-1.1859741
1493853084324	-0.4786377	-10.736191	0.2492218
1493853084324	2.9156647	-9.1315155	0.3777008
1493853084324	3.386078	-7.913086	0.030258179
1493853084324	3.740219	-6.806183	1.5622864
1493853084324	2.45047	-5.995163	3.1165924
1493853084324	0.2588501	-4.9442444	3.2562103
1493853084324	-1.831665	-4.2473755	3.5924225
1493853084324	-2.9788666	-3.7007904	3.6696014
1493853084324	-2.994751	-3.1798553	3.0386658
1493853084324	-2.6385498	-3.3265839	1.4627533
1493853084324	-2.2048492	-4.4544525	-0.21636963
1493853084324	-1.6224518	-6.9360046	-3.8666687
1493853084324	-1.6629639	-11.276016	-8.234741
1493853084324	-1.8922119	-15.780914	-12.745819
1493853084324	-2.4394836	-16.95491	-12.492004
1493853084324	-2.725235	-13.446747	-7.795868
1493853084325	-2.1205597	-9.482742	-5.519562
1493853084325	-3.1994934	-7.1704865	-6.098816
1493853084325	-6.5851746	-10.467834	-5.3938904
1493853084325	-6.97908	-13.855026	-2.653946
1493853084325	-5.005005	-13.272156	1.1515961
1493853084325	-1.9401855	-9.280838	4.0442657
1493853084325	1.0834808	-6.113739	8.066757
1493853084325	1.5375671	-7.1549835	9.508759
1493853084325	2.8200836	-10.527725	7.018738
1493853084325	3.856247	-13.018982	2.5233154
1493853084325	3.2412415	-12.351425	-1.1928558
1493853084325	2.7952728	-11.590775	-0.3887787
1493853084325	2.643631	-9.60733	1.4285431
1493853084325	-0.09194946	-9.153336	0.86079407
1493853084325	-1.5294647	-8.574982	-0.011642456
1493853084325	-2.2708588	-8.518875	-1.0010681
1493853084325	-1.5648956	-9.078964	-0.9838867
1493853084325	-0.26652527	-9.228256	-0.15345764
1493853084325	1.8400116	-9.286407	0.17539978
1493853084325	3.0298157	-9.20697	-0.079696655
1493853084325	2.6856384	-8.852707	-0.42663574
1493853084325	1.6873779	-8.979065	0.5640106
1493853084325	0.49188232	-9.564148	1.7219696
1493853084325	0.34924316	-10.433563	0.5224304
1493853084325	1.4664764	-10.13736	-0.96203613
1493853084325	1.2484131	-10.550049	-1.6372375
1493853084325	0.7797699	-11.707321	-0.12049866
1493853084326	1.7636566	-12.515701	-0.11828613
1493853084326	3.7364807	-12.337128	-0.07170105
1493853084326	4.5123596	-11.719864	0.497406
1493853084326	2.2230377	-11.496796	-1.5492401
1493853084326	1.0861053	-12.782425	-2.2430725
1493853084326	3.4954224	-13.917007	-1.9021912
1493853084326	3.7460175	-12.565308	-2.5134735
1493853084326	0.5905609	-11.333389	-2.2841492
1493853084326	-1.4627075	-10.208878	-0.34545898
1493853084326	-2.0041962	-11.725815	3.359558
1493853084326	-3.3063354	-15.020782	4.423218
1493853084326	-4.927658	-17.407074	3.6070557
1493853084326	-4.3173523	-16.356094	0.02545166
1493853084326	-3.118805	-13.276352	-1.276535
1493853084326	-1.2537994	-11.154694	1.0619354
1493853084326	1.39888	-9.694321	2.2719116
1493853084326	2.034958	-8.807434	1.0199432
1493853084326	2.3049774	-7.756317	1.0106964
1493853084326	1.9784851	-6.8773193	1.8809662
1493853084326	1.0294037	-5.7571564	2.9378815
1493853084326	-0.990921	-4.626892	3.525772
1493853084326	-2.64917	-3.4755096	3.4457245
1493853084326	-3.0066833	-2.6169434	2.8357391
1493853084326	-2.7404785	-2.566742	1.7608185
1493853084326	-2.1378326	-3.6293793	0.2733307
1493853084326	-1.4650269	-6.1798096	-3.8644714
1493853084326	-1.2666931	-10.810959	-8.931702
1493853084327	-2.5640259	-15.774063	-12.427353
1493853084327	-3.801117	-16.571472	-11.42981
1493853084327	-2.9359894	-12.795654	-7.1385803
1493853084327	-1.9389801	-9.0937805	-5.1371765
1493853084327	-3.1109009	-7.069809	-5.608551
1493853084327	-5.576477	-10.747025	-7.3209686
1493853084327	-5.990143	-16.407333	-7.4088135
1493853084327	-3.348816	-14.60524	0.12237549
1493853084327	-0.8191223	-7.5951233	4.8121033
1493853084327	-1.1672211	-4.0248566	6.620285
1493853084327	-2.7966003	-5.5919952	5.92247
1493853084327	-0.79138184	-9.360291	7.2573547
1493853084327	2.3854218	-13.343124	5.226532
1493853084327	4.7162476	-14.049301	0.5984497
1493853084327	4.6237793	-13.227707	-0.9221039
1493853084327	4.0072784	-11.17038	0.14909363
1493853084327	2.259369	-9.168411	1.0440369
1493853084327	0.07748413	-8.372635	-0.06413269
1493853084327	-1.1478729	-8.402069	1.261383
1493853084327	-1.1766052	-8.697189	0.7523651
1493853084327	-0.7024536	-9.152252	-1.0158081
1493853084327	-0.38635254	-9.38266	-0.4540558
1493853084327	0.95448303	-9.219559	0.37350464
1493853084327	1.2212982	-8.678574	-0.020477295
1493853084327	1.4014282	-8.485031	-0.431015
1493853084327	1.1184998	-9.398712	0.97909546
1493853084327	0.7495117	-10.753296	1.1707916
1493853084327	1.7515411	-11.286194	-0.4306488
1493853084328	2.7510376	-10.443588	-0.90231323
1493853084328	1.4110565	-10.811005	-1.4022369
1493853084328	0.22598267	-11.50705	-0.96292114
1493853084328	1.7795105	-11.680923	0.34674072
1493853084328	2.7223206	-11.83638	0.21795654
1493853084328	2.4907532	-11.523056	-0.43644714
1493853084328	2.897873	-11.536423	-1.0243835
1493853084328	4.8231506	-13.026108	-0.82762146
1493853084328	4.482361	-12.906906	-3.2376556
1493853084328	1.0520325	-12.608765	-4.418808
1493853084328	-1.0554657	-11.139282	-1.9563599
1493853084328	-1.1083374	-11.146805	2.4279633
1493853084328	-2.593933	-14.152435	4.457321
1493853084328	-5.0170746	-17.632996	3.3987427
1493853084328	-5.8382263	-18.33316	0.47125244
1493853084328	-4.2657013	-14.655609	-1.6271057
1493853084328	-3.2261353	-12.07431	-0.09867859
1493853084328	-0.18310547	-10.336807	1.7115631
1493853084328	2.6074066	-8.916534	0.98287964
1493853084328	2.785431	-7.647949	0.5137329
1493853084328	2.440857	-6.8278656	1.6480103
1493853084328	0.95788574	-6.3582153	2.875351
1493853084328	-0.6014252	-5.404114	3.1886902
1493853084328	-1.8092346	-4.052185	3.1477814
1493853084328	-2.4187775	-2.5986023	3.0499115
1493853084328	-2.5928497	-2.2313843	2.2561493
1493853084329	-2.2210388	-2.751999	0.8087158
1493853084329	-1.6444092	-4.3526306	-1.2346802
1493853084329	-1.3814392	-7.7876587	-5.7295837
1493853084329	-1.8759308	-12.598953	-11.182587
1493853084329	-3.3639374	-16.847	-13.82991
1493853084329	-3.6075897	-15.875259	-10.14003
1493853084329	-2.594925	-10.913925	-5.8392334
1493853084329	-3.2850037	-8.058426	-6.550537
1493853084329	-7.45961	-12.290573	-6.7441406
1493853084329	-6.9405823	-16.53601	-4.261032
1493853084329	-2.4015045	-12.68042	1.537384
1493853084329	-0.2620697	-6.2734222	6.2970886
1493853084329	-1.7691193	-5.095154	6.634674
1493853084329	-1.838623	-7.917694	7.2438507
1493853084329	0.79751587	-11.902817	7.544281
1493853084329	4.013733	-13.859619	3.7571106
1493853084329	4.1728516	-12.865326	-0.91111755
1493853084329	3.460373	-11.651672	-0.74664307
1493853084329	2.6413422	-10.338196	0.86750793
1493853084329	1.1740875	-8.809219	1.6301727
1493853084329	-0.6852417	-7.9416046	0.8288574
1493853084329	-1.6151733	-8.063812	-0.05870056
1493853084329	-2.0536957	-9.031387	-1.787323
1493853084329	-1.4464722	-9.485916	-1.346405
1493853084329	-0.29270935	-9.3988495	0.04475403
1493853084329	0.8408203	-8.520737	-0.59413147
1493853084329	2.2733917	-8.491104	-0.47627258
1493853084330	2.787918	-8.850906	0.43243408
1493853084330	2.269928	-9.147736	1.9902496
1493853084330	1.3778076	-9.927826	1.4887848
1493853084330	1.0144196	-11.102982	-0.9777527
1493853084330	1.2976379	-10.209702	-1.5758972
1493853084330	-0.10342407	-10.250504	-1.5325317
1493853084330	-1.6529999	-11.411682	-0.20419312
1493853084330	1.2421722	-12.208679	-0.20462036
1493853084330	5.506317	-12.156387	0.5998535
1493853084330	5.427307	-11.970474	0.31419373
1493853084330	3.133377	-12.015289	-1.3569641
1493853084330	3.7139435	-12.88176	-0.8625641
1493853084330	3.9928741	-13.385864	-2.5476227
1493853084330	3.9425964	-12.586304	-3.925415
1493853084330	1.0257874	-11.644257	-2.1950073
1493853084330	-2.0115662	-10.340027	-0.40623474
1493853084330	-2.74469	-11.499237	3.1908417
1493853084330	-3.8578339	-14.658752	3.5429688
1493853084330	-5.2366486	-17.688385	2.633545
1493853084330	-4.47258	-16.913223	-0.30285645
1493853084330	-3.4543	-13.695984	-1.2001953
1493853084330	-1.7566223	-11.299667	1.0648804
1493853084330	1.3798981	-9.736954	2.7122498
1493853084330	2.388214	-9.015915	0.67178345
1493853084331	2.9386292	-7.904953	0.23068237
1493853084331	2.7513275	-7.0507965	2.324707
1493853084331	0.7441406	-5.702057	3.354309
1493853084331	-1.3554688	-4.12677	3.4468994
1493853084331	-2.680481	-2.966278	3.7556915
1493853084331	-2.6868286	-2.2372894	3.46904
1493853084331	-2.5655975	-2.2855072	2.2517853
1493853084331	-2.3418427	-3.4814148	0.5356903
1493853084331	-2.33313	-5.725281	-1.9912872
1493853084331	-2.7731934	-10.158478	-6.5744476
1493853084331	-3.354721	-16.287598	-13.017532
1493853084331	-3.3074646	-18.941696	-14.331085
1493853084331	-2.415512	-14.733871	-9.373199
1493853084331	-1.8983002	-9.200241	-5.26503
1493853084331	-3.895172	-7.1523438	-5.9141235
1493853084331	-6.8498077	-12.191742	-7.1389465
1493853084331	-6.306717	-16.261429	-1.9663391
1493853084331	-2.6680756	-11.152176	3.4064178
1493853084331	-0.5012665	-5.7973785	6.7992096
1493853084331	-0.69477844	-5.539337	7.293396
1493853084331	0.046951294	-8.742035	7.570465
1493853084331	2.7306519	-12.561707	7.1591034
1493853084331	4.8015747	-13.805588	2.1179352
1493853084331	4.648407	-12.775467	-1.5707245
1493853084331	3.576706	-11.204956	-1.0851593
1493853084331	2.3651733	-9.228851	1.1923523
1493853084331	0.25497437	-8.15213	0.92962646
1493853084331	-1.3754425	-7.961563	0.48036194
1493853084332	-2.3447418	-8.69664	-0.7644806
1493853084332	-1.463211	-9.202118	-0.91108704
1493853084332	-0.2658081	-9.553818	-0.23988342
1493853084332	1.1898804	-9.202591	0.12361145
1493853084332	1.983841	-8.92186	-0.5087433
1493853084332	1.7700195	-9.036133	0.1151886
1493853084332	1.0725403	-9.640244	1.6152496
1493853084332	1.0572205	-10.354904	1.1844177
1493853084332	1.9174042	-10.325607	-0.55049133
1493853084332	1.196518	-10.151566	-2.2033691
1493853084332	-0.23947144	-10.898788	-1.1205902
1493853084332	-0.054214478	-11.670517	0.25804138
1493853084332	2.3747253	-11.390915	0.32696533
1493853084332	4.537216	-10.980286	0.9263916
1493853084332	3.8035736	-11.143005	0.22434998
1493853084332	1.3415375	-12.089539	-1.1702423
1493853084332	3.237152	-14.070038	-0.6704254
1493853084332	4.5811462	-13.694321	-3.4279938
1493853084332	2.675476	-11.674744	-3.3406677
1493853084332	-0.6932373	-10.428635	-2.7707977
1493853084332	-1.6571045	-10.402634	2.3320007
1493853084332	-2.783844	-12.815277	4.279358
1493853084332	-4.6206055	-16.564774	2.872116
1493853084332	-5.439087	-18.407822	1.2713928
1493853084332	-4.035507	-16.082184	-0.7732239
1493853084332	-3.7601776	-13.32637	-0.1239624
1493853084333	-1.7578583	-10.954361	1.1386108
1493853084333	1.4114227	-9.100586	1.0887909
1493853084333	2.5737305	-7.874283	-0.055725098
1493853084333	3.4734192	-6.8817444	1.5828552
1493853084333	2.963791	-6.437195	2.957672
1493853084333	0.97094727	-5.307358	3.3870392
1493853084333	-0.8894806	-3.7087555	3.9371948
1493853084333	-1.9638214	-2.8551025	3.9394073
1493853084333	-2.180954	-2.3849945	2.9837189
1493853084333	-2.1432495	-2.9019012	0.78652954
1493853084333	-1.9037933	-4.5966187	-1.6733856
1493853084350	-2.3892212	-8.015015	-4.620926
1493853084370	-4.2269745	-13.120209	-9.479034
1493853084390	-5.238098	-17.444061	-13.139755
1493853084409	-3.5050812	-16.658264	-10.388306
1493853084429	-1.2431946	-11.474243	-5.6712646
1493853084449	-0.77757263	-6.7953644	-5.608139
1493853084469	-3.5628662	-7.1858826	-8.241608
1493853084489	-6.0148315	-13.987961	-7.5272217
1493853084509	-4.447281	-16.51503	-1.1044769
