accelerometer_timestamp accelerometer_x_data  accelerometer_y_data  accelerometer_z_data
1493846379215 -1.1737671  2.8810883 10.191238
1493846379215 -0.7368622  3.0059814 8.009598
1493846379219 0.0055999756  3.737259  7.0232697
1493846379219 0.72584534  4.413971  7.956909
1493846379239 0.8849182 4.4184723 8.532425
1493846379258 0.4198761 4.000839  8.509171
1493846379277 0.08921814  3.891571  8.692291
1493846379297 -0.047058105  3.835312  8.99707
1493846379318 -0.39990234 3.6256714 8.924194
1493846379337 -0.6206207  3.398346  8.913361
1493846379357 -0.3215332  3.4121857 9.521118
1493846379377 -0.13136292 3.3643646 10.082718
1493846379397 -0.46380615 3.3776398 10.319672
1493846379416 -0.88253784 3.2936249 10.519165
1493846379436 -1.2341919  3.0112915 10.429703
1493846379456 -0.9284363  2.565155  9.831223
1493846379476 -0.23461914 2.9141388 9.080597
1493846379495 0.56004333  3.6489716 9.226242
1493846379515 0.309021  3.6444702 9.545059
1493846379535 0.014923096 3.1690826 9.2968445
1493846379555 0.37443542  3.0077972 9.041138
1493846379574 0.40090942  3.170166  9.315872
1493846379594 -0.09197998 3.2174835 9.970444
1493846379614 -0.70710754 2.7736053 9.519043
1493846379634 -0.84713745 2.381256  9.152069
1493846379654 -1.2330475  2.581726  10.767746
1493846379674 -1.6525879  2.5903473 12.824432
1493846379694 -2.744812 2.5888367 14.513367
1493846379713 3.5709534 0.6378784 6.9374847
1493846379733 3.2314453 3.291275  7.366928
1493846379753 1.1190338 2.9639587 7.6582947
1493846379792 0.3790741 2.5960236 9.418274
1493846379812 1.3785095 3.514145  9.809189
1493846379832 -0.3208313  3.0096283 9.189636
1493846379852 -6.815445 0.7863159 7.0585327
1493846379871 -0.51338196 1.8795319 10.513382
1493846379891 -0.7063751  3.9557037 8.635239
1493846379911 0.41168213  4.11615 8.623856
1493846379931 0.5669861 3.5030975 8.68483
1493846379951 -2.6151733  2.1879578 6.700302
1493846379970 -2.7159271  2.926468  8.257507
1493846379990 -1.4640045  3.4329987 10.315552
1493846380010 -0.19436646 3.1953888 11.248016
1493846380030 -1.1632385  2.8680878 10.003342
1493846380050 -2.159256 2.9686432 7.3203125
1493846380069 -2.3859406  3.093689  6.238861
1493846380089 -2.0436096  2.7201843 7.537216
1493846380109 -0.7668457  2.6952057 10.292831
1493846380129 0.15393066  3.3025818 11.914719
1493846380149 -0.9327545  2.5856476 10.153503
1493846380168 -1.9636993  1.9045258 9.735489
1493846380188 -1.8900146  1.5074158 11.08049
1493846380208 -0.947464 1.8664246 10.91275
1493846380228 0.21963501  3.4645538 9.536514
1493846380247 0.08532715  3.7585754 8.677765
1493846380267 -0.39863586 3.2420807 7.7753754
1493846380287 -0.6142273  2.8169708 8.233353
1493846380307 -0.38578796 2.5946045 10.148178
1493846380327 0.043167114 2.9616852 9.444138
1493846380346 0.31269836  3.392807  8.198563
1493846380366 -0.049362183  3.3983765 8.603867
1493846380386 -0.008331299  3.4960785 8.192276
1493846380406 0.38771057  3.9648895 7.295532
1493846380431 1.41362 4.0851135 6.6352386
1493846380446 0.9644623 3.2873077 6.623581
1493846380504 0.29441833  1.3453674 7.8055573
1493846380504 0.7543335 -0.43562317 6.5821686
1493846380508 1.4118042 -1.0850983  3.4332428
1493846380525 -0.9722748  -4.2888336  -0.49864197
1493846380545 -3.0600739  -6.6002655  -7.1139984
1493846380564 2.5024261 -5.407776 -11.946823
1493846380585 7.9555206 -7.7802277  -6.9193726
1493846380604 7.9740295 -9.669678 -0.8878937
1493846380624 2.8369446 -16.46164 -0.4012909
1493846380643 3.3974  -16.557343  2.20253
1493846380663 4.386032  -18.65094 2.1167908
1493846380683 11.842865 -19.474823  2.8816986
1493846380703 18.376404 -19.474823  11.975159
1493846380723 19.461044 -19.474823  7.5005646
1493846380743 19.461044 -16.812714  2.3741608
1493846380762 19.461044 -14.319305  2.4080048
1493846380782 19.461044 -13.527206  0.8687897
1493846380802 19.461044 -10.666199  0.77082825
1493846380822 19.461044 -7.516266 -4.763565
1493846380842 19.461044 -2.8168182  -5.9813232
1493846380861 19.461044 -1.0828552  -1.617279
1493846380881 16.687714 -2.5277405  -5.3134613
1493846380901 10.50473  -4.298584 -2.593277
1493846380921 10.021088 -3.9976501  1.7741394
1493846380961 9.411896  -1.8608398  -5.624283
1493846380980 2.672409  -4.9496 1.8753967
1493846381000 0.6341553 -5.0863647  7.886978
1493846381020 -1.6228333  -6.2950287  1.814743
1493846381039 -0.64601135 -3.7696075  4.1686554
1493846381059 -0.9782562  -3.9627228  0.81788635
1493846381079 0.7170868 -3.8993835  -1.274292
1493846381099 1.8016205 -4.599106 -2.466629
1493846381119 1.3485413 -6.437134 -2.828415
1493846381138 -1.094635 -6.549286 -1.2386627
1493846381158 8.237961  -9.445999 4.577072
1493846381178 11.5164795  -11.9513855 2.022995
1493846381198 11.738815 -14.131256  -0.25758362
1493846381218 17.06755  -10.965515  -0.8332672
1493846381238 9.318359  -8.472321 -3.177246
1493846381257 8.043747  -8.323578 0.11038208
1493846381277 5.753418  -8.056564 2.7748566
1493846381297 2.5228882 -7.050705 4.590317
1493846381319 0.97517395  -3.828888 3.4141846
1493846381337 5.0474243 -3.5178375  0.89297485
1493846381365 6.587967  -5.54393  -2.3298035
1493846381377 6.126831  -8.006989 -2.046936
1493846381396 9.561996  -6.798477 -0.54933167
1493846381415 9.73555 -6.475342 -1.823822
1493846381435 6.6148224 -6.2102814  -1.7785187
1493846381455 2.980484  -8.225494 0.42414856
1493846381475 2.98703 -8.334946 -0.17837524
1493846381495 4.594925  -6.095993 0.7516022
1493846381515 5.148224  -6.53627  4.323105
1493846381534 7.5513  -7.937683 2.6444702
1493846381554 9.09819 -7.487976 -0.9061432
1493846381574 1.768631  -5.3485413  0.47912598
1493846381594 3.1233368 0.5550232 3.185852
1493846381613 2.9895325 0.8990631 -0.46046448
1493846381633 -1.9228821  -6.0915833  -3.0079498
1493846381653 0.6018677 -14.141144  2.7172852
1493846381673 1.427536  -15.665619  3.4164276
1493846381693 1.2833252 -16.64209 0.18309021
1493846381713 2.0892334 -12.650635  2.5862732
1493846381732 2.801834  -9.44873  2.710846
1493846381752 3.5572968 -8.366669 1.0654602
1493846381772 2.3308258 -7.8488007  2.1220245
1493846381792 3.191986  -9.5481415  2.7352905
1493846381812 -1.8995361  -17.25084 0.49421692
1493846381831 8.013321  -15.683105  3.438614
1493846381851 2.572754  -13.740326  2.1977386
1493846381871 -3.408966 -13.321533  -1.3353729
1493846381891 -1.4473724  -10.377655  -0.10571289
1493846381911 1.7532959 -8.855942 -1.5584869
1493846381930 -0.94947815 -9.561783 -2.0829773
1493846381950 -2.2477264  -10.19928 -1.9831238
1493846381970 -1.9864197  -9.008514 -0.2588501
1493846381990 -1.2837982  -8.208847 1.3087769
1493846382009 -0.3222351  -8.160156 0.50102234
1493846382029 -0.58387756 -8.951981 -0.83747864
1493846382049 -0.19180298 -9.340027 -0.3846283
1493846382069 0.46905518  -9.510727 -0.24377441
1493846382108 0.8553467 -9.4517975  0.18508911
1493846382128 0.5513153 -9.08934  0.93367004
1493846382148 -0.43989563 -9.002258 1.4312744
1493846382168 -0.26742554 -9.464172 0.56269836
1493846382188 -1.6789398  -9.809708 -0.0894928
1493846382207 -1.9855194  -9.977417 -0.85112
1493846382227 -1.8981323  -10.247208  -0.35791016
1493846382247 -0.8738098  -10.063934  0.3784027
1493846382267 0.2386322 -9.737198 0.5214844
1493846382287 2.17984 -9.26947  -0.13285828
1493846382306 2.9768524 -9.088882 -1.0482483
1493846382326 0.93807983  -9.337601 -1.2651062
1493846382346 -1.6906586  -9.4657135  -1.4758453
1493846382366 -2.7112122  -9.479034 -1.8779602
1493846382386 -1.3639526  -9.4097595  -1.6958771
1493846382406 0.79100037  -8.854095 -1.2059479
1493846382425 1.5363617 -8.38205  -0.8060913
1493846392297 1.677414  -8.301407 -0.6359558
1493846392297 1.2315674 -9.762527 1.373291E-4
1493846392297 0.4050293 -13.100235  -0.16049194
1493846392297 0.2788391 -14.348465  -1.699707
1493846392297 -0.56095886 -11.198944  -4.0155487
1493846392297 -1.4424591  -8.343964 -2.9467926
1493846392297 -2.42305  -8.760086 1.8350372
1493846392297 -2.2529907  -9.684692 3.142212
1493846392297 0.6796112 -10.211426  4.186096
1493846392297 3.541031  -10.055069  4.0994873
1493846392297 4.803421  -9.297836 3.3681946
1493846392297 4.3779907 -9.421722 2.8841705
1493846392297 3.1807556 -9.74704  1.952179
1493846392297 1.8205719 -9.790436 0.14645386
1493846392298 0.6900482 -9.522079 -0.38839722
1493846392298 0.16531372  -9.200165 0.41281128
1493846392298 0.2462616 -9.277649 1.7721252
1493846392298 0.39305115  -9.470184 3.0198212
1493846392298 0.067474365 -9.544556 3.2749176
1493846392298 -0.62054443 -9.909103 2.429596
1493846392298 -0.59236145 -10.47847 1.0444489
1493846392298 0.017074585 -10.724823  0.5376282
1493846392298 0.6095581 -10.753021  0.5287018
1493846392298 0.9999542 -10.723846  1.0480957
1493846392298 1.062027  -10.649338  1.1209564
1493846392298 1.072937  -10.486023  0.29154968
1493846392298 1.2198944 -10.86528 -0.22419739
1493846392298 1.4664001 -11.867828  0.3570404
1493846392298 1.358017  -12.129822  0.7246704
1493846392298 0.85902405  -11.939316  -0.6699524
1493846392298 1.7113342 -11.608002  -1.2443237
1493846392298 2.1325226 -11.141556  -1.1404419
1493846392298 2.098999  -11.382935  -2.0802612
1493846392298 3.7854614 -13.037231  -1.5654297
1493846392298 4.02771 -13.775818  -0.6776428
1493846392298 1.318222  -12.921097  -2.6302338
1493846392298 -2.2448883  -12.368347  -4.402466
1493846392298 -3.7187958  -11.348541  1.5198364
1493846392298 -4.025635 -11.482773  9.484802
1493846392298 -3.4852448  -12.637466  9.750015
1493846392298 -1.1391296  -14.002319  1.5216675
1493846392299 0.50135803  -15.008057  -2.666977
1493846392299 1.9778137 -13.148361  -1.6014404
1493846392299 5.6439514 -11.331039  0.9169464
1493846392299 4.734436  -10.542404  2.459198
1493846392299 2.2591095 -9.496017 2.1978455
1493846392299 -0.8189087  -7.48053  2.2878723
1493846392299 -2.70932  -5.585663 2.3684845
1493846392299 -2.806961 -4.427368 1.425354
1493846392299 -1.5370331  -3.6567993  1.3696442
1493846392299 -1.949646 -3.7134857  2.4796448
1493846392299 -2.4105682  -2.7705078  2.7038116
1493846392299 -2.7170258  -2.3502502  2.9010162
1493846392299 -1.441452 -3.945816 1.4298859
1493846392299 1.3536682 -7.605377 -2.5780487
1493846392299 1.9831085 -12.107422  -9.531799
1493846392299 5.078308  -16.633163  -16.556
1493846392299 10.113831 -18.0598  -15.348251
1493846392299 6.560257  -12.907303  -3.501648
1493846392299 2.5082855 -8.291962 -3.7027893
1493846392299 1.9641876 -4.848648 -4.2489624
1493846392299 1.539917  -2.5572357  0.99864197
1493846392299 -3.5623932  -7.3099365  8.347427
1493846392299 -6.76178  -17.324478  -5.6861725
1493846392299 0.17167664  -17.44896 -8.446808
1493846392299 0.17350769  -10.46254 5.8074646
1493846392299 -4.534073 -3.4171143  5.7746735
1493846392299 -4.7429047  -3.5662537  6.1443024
1493846392300 0.1802826 -9.402084 5.406891
1493846392300 3.8521576 -13.639969  4.7421722
1493846392300 5.243515  -14.310471  1.7198334
1493846392300 3.2180634 -12.162445  0.28648376
1493846392300 -0.09056091 -9.672424 1.2725983
1493846392300 -1.7496643  -9.082489 2.2300873
1493846392300 -2.0980835  -9.780518 1.3349457
1493846392300 -1.7207642  -10.2330475 0.61938477
1493846392300 -1.2524109  -9.557419 0.047790527
1493846392300 -0.42256165 -8.560043 -0.021713257
1493846392300 0.620224  -7.692871 0.7043457
1493846392300 1.493103  -7.2811584  1.0672913
1493846392300 2.48349 -7.756851 1.964859
1493846392300 2.2937775 -9.1228485  2.556366
1493846392300 1.3449249 -9.940872 0.9948578
1493846392300 0.93914795  -9.806259 -1.4447632
1493846392300 1.1296997 -10.21138 -1.9439392
1493846392300 1.5554199 -11.574112  -0.5769806
1493846392300 1.0658722 -12.326614  -1.0368347
1493846392300 1.8863068 -12.349197  -1.7983093
1493846392300 2.474762  -11.8342285 -2.4263306
1493846392300 2.0500793 -12.693039  -4.3963165
1493846392300 5.096039  -15.014816  -2.2989197
1493846392300 4.817871  -15.569763  -3.2573395
1493846392300 -1.2571716  -14.516876  -4.987625
1493846392300 -4.332199 -13.015427  4.8046417
1493846392301 -4.5835876  -13.068527  10.263153
1493846392301 -2.987976 -13.998779  2.5103455
1493846392301 -2.569168 -17.656784  -0.12966919
1493846392301 -2.101059 -17.277557  -1.2175903
1493846392301 1.0323639 -13.327118  1.3005676
1493846392301 4.127655  -10.649384  0.7223053
1493846392301 3.0775604 -9.717285 2.3286896
1493846392301 -0.05885315 -9.110382 2.0905304
1493846392301 -2.8293457  -7.152954 3.022522
1493846392301 -3.9463654  -4.704651 3.4917908
1493846392301 -4.0204926  -2.8492584  3.531784
1493846392301 -2.5995636  -1.7635803  2.9649963
1493846392301 -2.340866 -2.0282135  2.8627472
1493846392301 -2.3157043  -0.74134827 3.157425
1493846392301 -1.768158 -1.1157379  2.9102478
1493846392301 1.1099701 -4.223053 1.0907593
1493846392301 2.22966 -9.446106 -6.1129913
1493846392301 2.0483856 -16.436813  -19.258377
1493846392301 6.61998 -19.474823  -16.012482
1493846392302 7.707779  -16.753036  -3.388855
1493846392302 1.2085724 -6.36409  -2.6086578
1493846392302 0.18988037  -1.0239105  2.5261688
1493846392302 -0.92051697 -5.752945 6.334671
1493846392302 -4.39505  -17.165298  -3.0304565
1493846392302 -1.9245758  -16.456299  -7.6650696
1493846392302 -0.60069275 -7.0035095  12.061523
1493846392302 -7.241699 -1.7880249  5.3737335
1493846392302 -5.5317383  -6.317566 7.366867
1493846392302 0.2763214 -11.733673  5.386856
1493846392302 3.7088013 -13.423965  4.0456085
1493846392302 5.8720093 -13.283081  2.1320648
1493846392302 3.390503  -11.792084  0.8262024
1493846392302 -0.27670288 -9.729813 0.83699036
1493846392302 -1.7226257  -8.584625 1.3231812
1493846392302 -1.6140747  -8.212463 1.4994354
1493846392302 -1.0274658  -8.641388 1.4383545
1493846392302 -0.77864075 -9.218185 0.22137451
1493846392302 -0.009674072  -9.28566  -0.7593689
1493846392302 0.6984863 -8.841248 -0.22286987
1493846392302 0.8499756 -8.112381 1.0053864
1493846392302 1.0704803 -8.350723 0.9736481
1493846392302 1.6165771 -10.160843  0.040512085
1493846392302 2.3826294 -10.652145  -1.6959076
1493846392302 2.560669  -10.614777  -1.97435
1493846392302 0.63204956  -11.618103  -0.41566467
1493846392302 -1.5502472  -12.136627  -1.302185
1493846392303 1.0657196 -12.551605  -3.5511627
1493846392303 5.581497  -12.423996  -2.400589
1493846392303 6.806656  -13.668152  -2.166504
1493846392303 8.024994  -15.177887  -3.1283722
1493846392303 5.4489136 -15.1992035 -4.80159
1493846392303 -2.351883 -15.351517  -2.4961243
1493846392303 -5.808304 -13.202255  4.3624573
1493846392303 -5.587555 -11.995682  6.8432617
1493846392303 -3.1177979  -12.234497  3.9783783
1493846392303 -3.0283508  -15.987717  1.9196014
1493846392303 -1.9204407  -16.639282  0.54888916
1493846392303 0.5546875 -14.121109  0.85684204
1493846392303 4.6553802 -11.299377  -0.74053955
1493846392303 3.26297 -9.778076 1.2483673
1493846392303 0.855423  -8.793289 2.4133453
1493846392303 -1.1526337  -6.253128 3.6651306
1493846392303 -2.5673523  -4.3986816  3.280243
1493846392303 -3.6603699  -3.218216 3.047348
1493846392303 -3.216568 -3.1892242  2.5809937
1493846392303 -2.53656  -3.3963928  2.983261
1493846392303 -2.9289246  -1.9029388  3.348526
1493846392303 -3.3729553  -0.43128967 3.6588898
1493846392303 -2.723526 -1.88031  2.5039215
1493846392303 0.76005554  -6.8793335  -3.0843048
1493846392303 1.5237122 -14.053268  -16.528366
1493846392303 6.115967  -19.474823  -18.230148
1493846392303 8.715088  -17.80899 -9.45369
1493846392304 1.972702  -8.8750305  -3.7935333
1493846392304 -2.1237946  -3.5293121  -3.0661774
1493846392304 -2.9275513  -8.860687 -2.4333801
1493846392304 1.1613159 -15.281387  0.041534424
1493846392304 1.4014587 -13.7378845 1.229065
1493846392304 -5.4150543  -7.733124 -1.7621002
1493846392304 -7.814499 -3.5954132  10.830109
1493846392304 -5.763626 -7.848694 7.5736237
1493846392304 0.69007874  -11.54155 5.471115
1493846392304 3.6651  -11.965195  3.2372131
1493846392304 5.246338  -12.48764 1.9770203
1493846392304 5.212433  -11.812439  0.8516998
1493846392304 1.1604309 -9.682144 1.0527802
1493846392304 -2.1781006  -8.249863 1.7565002
1493846392304 -3.0677338  -8.581604 0.9944153
1493846392304 -2.3157501  -9.191757 0.66296387
1493846392304 -1.1130219  -9.17717  0.32087708
1493846392304 0.010665894 -8.580399 0.14506531
1493846392304 0.64993286  -8.128052 0.49594116
1493846392304 0.7262573 -8.408524 0.71118164
1493846392304 1.0827637 -9.217255 0.87483215
1493846392304 1.1292725 -10.248322  0.8116913
1493846392304 1.2876892 -10.548401  -0.96798706
1493846392304 2.2862396 -10.757156  -2.4867706
1493846392304 3.0167542 -12.185745  -1.5498505
1493846392304 1.1916504 -12.364777  -0.6699829
1493846392304 -0.7932129  -12.048157  -2.6444092
1493846392305 1.1882172 -12.4748535 -2.4440155
1493846392305 3.437851  -12.780151  -1.730896
1493846392305 4.5682526 -14.108948  -3.1382294
1493846392305 6.3963623 -14.406631  -1.1426086
1493846392305 1.9139404 -15.305511  -4.053177
1493846392305 -4.3351746  -14.874344  -3.894333
1493846392305 -7.1884613  -13.427841  3.856598
1493846392305 -6.160187 -13.034637  9.948441
1493846392305 -4.2023163  -12.997757  4.1509094
1493846392305 -4.0233154  -15.944061  -0.3871765
1493846392305 -3.5977173  -15.938721  -1.8603363
1493846392305 1.4556122 -11.616653  0.77423096
1493846392305 5.612854  -9.536209 1.4611816
1493846392305 4.091629  -8.582352 0.36647034
1493846392305 1.2074432 -7.6626434  1.4963379
1493846392305 -1.1230621  -5.8655853  4.2822113
1493846392305 -2.9896545  -4.432129 3.1863403
1493846392305 -3.1499786  -2.7363586  2.9234924
1493846392305 -2.2606506  -3.0426025  2.1371765
1493846392305 -1.1193237  -3.556137 3.0552216
1493846392305 -1.8536224  -1.8014374  3.9040985
1493846392305 -2.6114807  -1.0379028  3.7206573
1493846392305 -1.9828033  -3.1298218  2.726822
1493846392305 -0.671463 -8.526886 -3.8194885
1493846392305 0.081848145 -16.945343  -19.722397
1493846392305 6.6321106 -19.474823  -18.454987
1493846392305 7.870804  -17.893478  -8.687042
1493846392306 0.28814697  -6.8388824  -3.8356018
1493846392306 -2.0385742  -0.7525482  1.5354004
1493846392306 -4.5106964  -8.320419 2.979721
1493846392306 -2.5783844  -16.710693  0.23199463
1493846392306 -0.29655457 -14.810287  -4.933655
1493846392306 -1.4015503  -7.791809 2.7505035
1493846392306 -6.5038757  -4.3601227  9.871399
1493846392306 -5.7787476  -8.482773 4.19368
1493846392306 -0.25636292 -10.412262  3.6700897
1493846392306 1.8696289 -10.4375  4.018448
1493846392306 4.4520416 -11.758148  2.3867035
1493846392306 6.093979  -12.759308  0.3645935
1493846392306 3.2477264 -11.10257 -0.22494507
1493846392306 -0.23672485 -8.6406555  1.1506042
1493846392306 -2.5787048  -8.017014 1.2953491
1493846392306 -2.6758575  -8.102097 0.55384827
1493846392306 -1.7367096  -8.359055 0.649765
1493846392306 -0.42448425 -8.841415 0.34465027
1493846392306 0.5565491 -9.086807 0.087020874
1493846392306 1.1886444 -8.653091 1.4519348
1493846392307 1.663559  -8.880127 1.6111755
1493846392307 1.6609344 -10.147797  0.6631775
1493846392307 1.0879059 -10.788834  -0.97257996
1493846392307 1.0622101 -11.069366  -2.4053345
1493846392307 1.4537201 -12.31665 -1.05513
1493846392307 -0.23396301 -12.443741  -0.529129
1493846392307 -0.7304077  -12.2113495 -2.3383942
1493846392307 2.5152893 -12.562012  -1.6386871
1493846392307 4.606079  -13.241653  -2.2217102
1493846392307 6.3042603 -14.582565  -3.0401459
1493846392307 7.136795  -14.239944  -1.3423157
1493846392307 1.9397583 -14.584885  -4.603058
1493846392307 -3.0729523  -14.553986  -3.2022552
1493846392307 -4.923004 -13.003143  3.9712677
1493846392307 -5.935974 -12.981522  7.3684387
1493846392307 -5.6229706  -13.486786  5.0075684
1493846392307 -4.3454437  -14.625397  0.57666016
1493846392307 -1.682663 -14.408035  -1.7056274
1493846392307 3.0614014 -11.125626  0.62586975
1493846392307 6.922409  -9.753494 -0.1454773
1493846392307 3.963745  -9.097488 1.316391
1493846392307 1.1677551 -8.383072 1.8986969
1493846392307 -1.4857025  -6.9839783  3.662857
1493846392307 -2.9616394  -4.833313 3.6586456
1493846392307 -3.238449 -3.480606 3.716568
1493846392307 -2.3748627  -2.9084167  3.0061035
1493846392308 -2.1520233  -2.9649506  2.9970703
1493846392308 -2.5725403  -1.3088074  3.385025
1493846392308 -2.8774261  -0.8625946  3.0984955
1493846392308 -2.3209076  -3.1819153  1.2755585
1493846392308 -0.47976685 -8.625046 -4.804062
1493846392308 -0.20532227 -17.499054  -19.722397
1493846392308 5.015381  -19.474823  -18.770233
1493846392308 5.2754364 -18.197067  -7.5585175
1493846392308 -7.171631E-4  -5.7998657  -4.158539
1493846392308 -1.2667389  -2.1132507  0.77194214
1493846392308 -1.2561798  -14.73465 0.30766296
1493846392308 2.2845764 -17.470032  3.7789612
1493846392308 -4.6105347  -10.093872  -3.7171173
1493846392308 -6.144699 -2.0925446  13.176971
1493846392308 -8.623474 -5.6522064  6.4685364
1493846392308 -2.618927 -11.499924  6.8888702
1493846392308 2.4101715 -11.686981  4.528122
1493846392308 3.8652954 -11.9197235 3.3082886
1493846392308 4.904907  -12.685989  2.1029663
1493846392308 3.5657349 -11.67186 0.004425049
1493846392308 -0.48490906 -8.706192 0.25811768
1493846392308 -2.3812103  -8.046524 1.7254791
1493846392308 -1.8726959  -8.906723 0.81381226
1493846392308 -0.59872437 -9.509979 -0.21852112
1493846392308 -0.25038147 -9.148865 -0.5391388
1493846392308 0.17488098  -8.489838 -1.1107635
1493846392308 0.6112671 -8.016968 0.095047
1493846392309 1.4782867 -8.378983 1.3647461
1493846392309 1.9273987 -9.946075 2.0168915
1493846392309 1.7902527 -11.056061  0.61198425
1493846392309 2.8291168 -10.528595  -2.0737457
1493846392309 4.037689  -11.077988  -2.091858
1493846392309 2.151184  -12.201187  -0.6568756
1493846392309 -0.9294281  -12.366959  -2.8238525
1493846392309 0.9898834 -12.977921  -3.7029877
1493846392309 4.0937347 -13.217163  -2.8614044
1493846392309 4.241028  -14.061279  -4.005188
1493846392309 6.1059875 -14.542984  -2.198578
1493846392309 2.8390198 -16.152176  -2.7553253
1493846392309 -3.5222626  -15.558777  -1.4676971
1493846392309 -6.734131 -13.505264  5.561325
1493846392309 -6.615265 -12.573349  8.440674
1493846392309 -4.4219055  -13.780762  2.585785
1493846392309 -3.768753 -16.241379  0.09779358
1493846392309 -3.384201 -15.983093  -0.1797638
1493846392309 0.09477234  -11.387009  2.0716095
1493846392309 3.970459  -9.287384 1.2672577
1493846392309 3.2092133 -8.977493 0.7167206
1493846392309 0.4291687 -8.316284 2.03508
1493846392309 -1.4498291  -6.3447723  3.7059174
1493846392309 -3.3362122  -4.6163025  3.8185577
1493846392309 -3.760376 -2.8415833  3.512848
1493846392309 -2.9482117  -2.2146606  3.2240295
1493846392309 -1.5950775  -2.1932983  3.2518616
1493846392310 -1.3742065  -0.8332825  3.552246
1493846392310 -1.6151428  -0.48112488 2.968216
1493846392310 -1.2898865  -2.4114838  1.3880005
1493846392310 0.19094849  -8.413162 -7.9917145
1493846392310 3.853302  -19.474823  -19.722397
1493846392310 6.823883  -19.421814  -19.446259
1493846392310 4.3945313 -16.38121 -5.8582916
1493846392310 -0.70869446 -4.95607  -3.5779877
1493846392310 -2.1223145  -2.3296967  -3.9000244
1493846392310 -4.7285156  -15.364532  -3.6154633
1493846392310 0.8515625 -15.980377  10.109802
1493846392310 -1.61203  -8.926666 -1.3371277
1493846392310 -5.7114563  -3.687378 7.5151825
1493846392310 -5.7236633  -6.039871 9.5403595
1493846392310 -1.9734344  -11.087585  4.76416
1493846392310 3.0248413 -11.741318  3.1918945
1493846392310 2.7638092 -11.646698  3.308731
1493846392310 4.7572327 -12.503998  2.3092499
1493846392310 4.7734375 -12.085861  0.20999146
1493846392310 0.56988525  -8.83725  0.04298401
1493846392310 -2.5585632  -7.8593597  1.0570068
1493846392310 -3.1428528  -7.959305 0.63916016
1493846392310 -1.9220734  -8.942276 -0.111190796
1493846392310 -0.62615967 -9.530533 -0.27418518
1493846392310 0.16355896  -8.951965 -0.34791565
1493846392310 0.6431732 -8.041  0.017059326
1493846392310 1.022171  -8.276596 0.7351074
1493846392311 1.4657745 -9.82605  1.5762177
1493846392311 1.8624878 -10.790131  0.7635498
1493846392311 2.8082886 -10.702377  -2.0883942
1493846392311 3.331894  -11.453201  -2.5733185
1493846392311 1.5280457 -12.502426  -1.2283783
1493846392311 -1.0988159  -12.688385  -2.3618317
1493846392311 0.2524109 -12.86998 -3.5818787
1493846392311 3.5948944 -13.171402  -3.0909271
1493846392311 5.160187  -14.413223  -2.8900604
1493846392311 6.0803833 -14.92514 -1.2578125
1493846392311 2.0463562 -15.4135895 -2.9380493
1493846392311 -4.911255 -15.099045  -3.127533
1493846392311 -6.8805847  -13.538315  4.1117554
1493846392311 -5.1912537  -13.406479  7.7429047
1493846392311 -3.7325592  -14.055023  4.8525543
1493846392311 -3.4704742  -15.900848  0.4901886
1493846392311 -2.713913 -15.312881  -0.9619446
1493846392311 1.1686707 -11.255402  1.3629761
1493846392311 5.150421  -9.224426 1.8478546
1493846392311 3.5899048 -8.757355 1.5131989
1493846392311 0.54704285  -7.8804474  2.335022
1493846392311 -1.2302246  -6.2402954  3.999466
1493846392311 -2.6454468  -4.7725983  4.0000916
1493846392311 -3.073059 -3.019104 3.7564087
1493846392311 -2.9576263  -2.429718 2.8969574
1493846392311 -2.3561707  -2.1153412  2.6888123
1493846392311 -2.515442 -0.37745667 2.9996338
1493846392311 -2.8564606  -0.23013306 3.3433533
1493846392312 -1.835556 -3.208435 0.3796692
1493846392312 -0.61872864 -10.669617  -15.485535
1493846392312 0.21644592  -18.981522  -19.545883
1493846392312 7.773575  -19.474823  -12.842926
1493846392312 3.3383636 -13.373474  -6.6583405
1493846392312 -0.46061707 -4.113785 -3.0864258
1493846392312 -4.2807617  -4.929596 -0.9458771
1493846392312 1.1151733 -12.5204315 4.842926
1493846392312 0.5098114 -14.30069 5.4406433
1493846392312 -6.503952 -10.715057  -11.727142
1493846392312 -7.301193 -3.5151672  14.135941
1493846392312 -6.829132 -7.356674 8.335098
1493846392312 -0.61235046 -10.78743 3.5987701
1493846392312 3.2069244 -10.813614  4.541519
1493846392312 4.162323  -12.756363  3.7477264
1493846392312 7.215683  -12.494095  1.3076019
1493846392312 2.6271362 -10.736557  -0.79971313
1493846392312 -1.2382355  -7.8448334  1.1018829
1493846392312 -3.0872192  -7.5399475  1.7350922
1493846392312 -2.8539581  -8.319885 0.5114136
1493846392312 -1.5292969  -9.083511 -0.14176941
1493846392312 -0.13970947 -9.233322 -0.29766846
1493846392312 0.59580994  -8.972626 -0.068740845
1493846392312 0.8500061 -8.399506 0.9156189
1493846392312 1.201416  -9.176361 1.2614288
1493846392312 0.8340149 -11.130753  0.7874603
1493846392313 0.63601685  -11.449142  -1.8956604
1493846392313 2.109848  -10.87738 -3.6161957
1493846392313 3.1757965 -11.883423  -1.1824951
1493846392313 1.5015259 -12.548279  0.07182312
1493846392313 0.24189758  -12.687439  -2.9178772
1493846392313 2.994049  -13.101273  -4.0117188
1493846392313 6.2777405 -13.580978  -3.0454407
1493846392313 6.834717  -13.924835  -2.632782
1493846392313 4.042328  -14.1636505 -3.2209015
1493846392313 -1.3480988  -15.163712  -2.3955383
1493846392313 -5.956833 -14.939148  2.1646729
1493846392313 -8.503632 -14.112106  6.5311737
1493846392313 -8.201004 -14.268875  5.9184875
1493846392313 -5.9549713  -15.075455  2.3811188
1493846392313 -3.572647 -15.03038 -0.68122864
1493846392313 0.038131714 -12.172363  -0.6060791
1493846392313 4.277298  -9.492523 0.74116516
1493846392313 4.3233337 -8.60585  1.7171326
1493846392313 1.5104065 -8.02652  1.5598907
1493846392313 -0.63809204 -7.2400208  2.4035187
1493846392314 -2.0092468  -5.8289337  3.7245789
1493846392314 -2.8314514  -4.116745 3.7771454
1493846392314 -3.0545044  -3.1140747  3.9049377
1493846392314 -2.5006409  -2.7135773  3.7680206
1493846392314 -2.0716248  -1.938446 3.6239166
1493846392314 -2.0865784  -1.1132813  3.2397308
1493846392314 -1.1182709  -2.6668854  2.5109406
1493846392314 -0.62327576 -7.222183 -2.0089111
1493846392314 -1.5127716  -16.271774  -17.325912
1493846392314 0.17553711  -19.247955  -19.722397
1493846392314 5.0153656 -19.087662  -7.482544
1493846392314 0.27774048  -8.207764 -3.0740051
1493846392314 -2.4852295  -3.3586426  -0.84710693
1493846392314 -4.7182617  -14.028595  -1.8425751
1493846392314 3.4124908 -15.914413  8.024277
1493846392314 -0.97377014 -11.4219055 -3.9352875
1493846392314 -6.96286  -3.1002502  5.3684998
1493846392314 -9.690048 -3.068634 11.850998
1493846392314 -3.359314 -11.757172  5.831192
1493846392314 2.712906  -12.85498 5.77211
1493846392314 3.9623718 -12.936859  1.96315
1493846392314 7.2979736 -11.864136  2.190979
1493846392314 5.014496  -12.5155945 -0.32406616
1493846392314 0.4560852 -9.330658 0.4043579
1493846392314 -2.967987 -8.328796 2.0018463
1493846392314 -4.1681213  -8.777069 0.21861267
1493846392314 -2.406784 -9.357513 0.27540588
1493846392315 -0.25927734 -8.744293 -0.4398346
1493846392315 0.42536926  -7.6654663  -0.48017883
1493846392315 0.39170837  -7.307083 0.09788513
1493846392315 0.6629181 -7.916931 1.8186188
1493846392315 1.0577087 -9.582977 2.6724396
1493846392315 1.0892181 -10.842361  2.1300964
1493846392315 1.250473  -10.9995575 -1.1201935
1493846392315 1.9797363 -11.160431  -3.1611023
1493846392315 1.7247162 -11.934326  -2.4557648
1493846392315 0.11282349  -12.010529  -1.8791046
1493846392315 0.25946045  -11.994263  -2.431961
1493846392315 2.6698303 -12.844711  -2.6010895
1493846392334 4.01622 -14.476624  -3.1033936
1493846392354 4.9188232 -15.453552  -1.9997253
1493846392374 3.809967  -15.13028 -0.94337463
1493846392394 -1.2789307  -14.84848 -2.5440216
1493846392414 -6.222122 -13.832825  -0.47895813
1493846392433 -7.342911 -12.526871  5.0490875
1493846392453 -5.828537 -12.735764  6.999008
1493846392473 -3.476593 -13.824829  4.323593
1493846392493 -1.9456329  -14.542389  -0.13969421
1493846392513 0.04194641  -13.002289  -1.9402771
1493846392532 3.7633057 -10.166519  -0.1897583
1493846392552 3.970581  -8.899857 2.2895966
1493846392572 1.666214  -8.561264 2.5142365
1493846392592 -0.3072815  -7.987015 2.3631897
1493846392611 -1.7862549  -6.75856  2.8278046
1493846392631 -2.3089294  -5.3956757  2.9534607
1493846392651 -2.1848755  -4.4619293  2.6609344
1493846392671 -2.0501404  -4.0400696  2.2540894
1493846392691 -2.07724  -2.9973145  2.7653809
1493846392710 -2.3195648  -1.4815216  3.0081635
1493846392730 -1.8048859  -1.6770325  2.8092499
1493846392750 -0.7957916  -4.8629303  0.5755768
1493846392770 -0.8396454  -11.097107  -6.139267
1493846392790 -1.71698  -18.25792 -17.642883
1493846392809 9.6584015 -19.474823  -19.722397
1493846392829 8.381302  -15.490204  -7.1107635
1493846392849 1.6528778 -4.8652954  1.1732635
1493846392869 -0.04663086 -0.064819336  4.032669
1493846392889 0.89131165  -10.305328  -1.33638
1493846392908 5.345978  -16.568436  5.9085083
1493846392928 2.6818695 -18.673813  -12.813049
1493846392948 -8.702667 -6.951172 3.2440948
1493846392968 -15.941208  0.92863464  12.02565
1493846393007 -12.20488 -6.534607 4.593994
1493846393027 -0.8507538  -10.582672  6.457367
1493846393047 5.599701  -12.816605  6.3348083
1493846393067 10.835358 -13.728226  2.190918
1493846393087 7.7861176 -14.397797  0.56437683
1493846393106 2.2202759 -9.567825 -0.68322754
1493846393126 -2.386139 -8.511322 3.1752472
1493846393146 -4.7440796  -8.942108 0.96990967
1493846393166 -3.8713531  -9.611267 0.7586365
1493846393186 -2.7104034  -9.452454 -0.21803284
1493846393205 -1.250412 -8.570358 -1.1768341
1493846393225 -0.03414917 -8.357346 -0.6427307
1493846393245 0.6921387 -8.347214 1.0015717
1493846393265 1.225647  -8.810822 2.402649
1493846393285 1.2077484 -9.583328 2.4090881
1493846393304 0.66049194  -10.136398  -0.27822876
1493846393324 0.52153015  -10.258438  -2.7230225
1493846393344 -0.24243164 -10.906738  -2.6564026
1493846393364 -1.326477 -11.843231  -2.054657
1493846393388 0.10551453  -12.127792  -1.9649811
1493846393410 3.3099976 -12.926483  -3.3911438
1493846393429 5.02684 -14.493027  -4.035248
1493846393451 2.7519531 -15.285767  -3.1377716
1493846393467 -1.5671539  -15.115082  -1.9506989
1493846393489 -6.1348267  -15.124222  -1.1939392
1493846393510 -8.586365 -14.846085  2.052887
1493846393528 -7.6293335  -14.310242  8.191467
1493846393548 -5.1690826  -13.706696  7.0139008
1493846393570 -2.5081482  -12.467392  2.8125153
1493846393588 -1.1038666  -11.892288  -1.3787537
1493846393607 1.1693878 -10.447189  -2.1651154
1493846393625 3.484192  -9.145935 0.88523865
1493846393649 2.84375 -8.604309 3.0193787
1493846393667 0.27471924  -7.965576 2.9294586
1493846393687 -1.6069183  -6.978348 2.4511871
1493846393709 -2.7526093  -5.615509 2.6256256
1493846393726 -3.6419678  -4.107315 2.3504791
1493846393746 -3.3156433  -2.816864 1.3637238
1493846393766 -2.3349915  -2.4706879  0.36831665
1493846393785 -1.7384796  -3.3074493  0.99938965
1493846393805 0.0077209473  -5.7007294  -0.2059784
1493846393825 1.8396149 -12.57547 -12.33017
1493846393845 3.48497 -16.401978  -18.28952
1493846393865 1.7327728 -12.266617  -11.552734
1493846393884 -2.0611725  -7.7508698  -1.8051605
1493846393904 -2.1392365  -6.5944977  9.087006
1493846393924 -3.2186584  -8.528519 9.898895
1493846393944 -0.32766724 -10.729401  7.7342834
1493846393964 -1.6391754  -11.827728  4.139618
1493846393983 -3.4889526  -13.608826  -5.5961456
1493846394003 -2.352951 -15.440674  1.3878326
1493846394023 1.6325989 -17.878296  3.4180756
1493846394043 5.688507  -8.925095 5.4738617
1493846394063 3.3671875 -7.0227814  3.1072388
1493846394082 0.14955139  -10.075729  1.7397461
1493846394102 -1.8429718  -11.600281  2.2950745
1493846394122 -2.793335 -10.603439  1.2126923
1493846394142 -2.9089355  -8.52095  0.86572266
1493846394162 -1.4395752  -7.1802673  1.0515747
1493846394181 -0.5715637  -7.3539734  1.4980164
1493846394220 -0.9069824  -8.336441 1.4290009
1493846394241 -1.7823334  -8.839737 2.1200714
1493846394261 -3.1264648  -8.836746 2.3417358
1493846394280 -3.39711  -8.681961 1.0724335
1493846394300 -0.98106384 -9.145676 -0.08079529
1493846394320 -0.0771637  -11.285965  -0.59054565
1493846394340 -0.12042236 -13.478607  -1.1799164
1493846394361 0.15112305  -12.566849  -1.8883057
1493846394381 -0.019073486  -11.303726  -2.0131073
1493846394399 0.63313293  -10.262466  -0.6500244
1493846394419 -1.7634888  -10.408752  0.999527
1493846394441 -2.6169891  -10.816666  3.5005798
1493846394459 0.48995972  -11.505737  5.9167023
1493846394479 2.7279053 -12.200882  4.096176
1493846394500 3.6538544 -11.8029785 1.022644
1493846394518 4.0490265 -11.963272  -0.3083954
1493846394538 3.4099274 -12.201004  0.14526367
1493846394559 0.05558777  -12.046738  -0.044815063
1493846394578 -3.2745514  -12.300812  -0.9000702
1493846394597 -4.0256653  -12.479019  -2.4435883
1493846394619 -3.013794 -11.50267 -3.4755554
1493846394648 -1.9051208  -10.189743  -2.0620575
1493846394652 -2.4190674  -11.048752  0.043060303
1493846394676 -3.286148 -12.5898285 1.7692261
1493846394696 -3.822464 -12.572937  3.8624268
1493846394716 -3.1349945  -11.1058655 5.2258453
1493846394736 -1.2696075  -9.202225 5.490906
1493846394755 -0.5497284  -8.465912 2.5244904
1493846394775 -0.6845398  -8.762283 -1.8888397
1493846394795 -0.44236755 -9.314575 -3.1778107
1493846394813 0.86494446  -9.618988 -1.8327942
1493846394835 0.96650696  -9.232162 0.06639099
1493846394854 -1.2686157  -8.290665 1.5305481
1493846394874 -3.006607 -7.0473785  1.719223
1493846394894 -3.7556915  -6.4881897  0.8093262
1493846394914 -3.2490692  -6.301651 -0.0013885498
1493846394933 -1.6407013  -5.620285 -0.18663025
1493846394953 -0.63856506 -4.575241 -0.13453674
1493846394973 -0.45895386 -3.7641602  -0.2947235
1493846394993 -0.025634766  -4.2982483  -0.8773804
1493846395013 0.6215973 -6.7646027  -2.6792145
1493846395053 1.4586792 -10.80127 -6.3026276
1493846395053 2.4635162 -17.68399 -16.264587
1493846395068 4.5199738 -19.441376  -16.957321
1493846395086 1.8121948 -13.261108  -12.781128
1493846395108 -2.0269928  -5.1487427  -0.97709656
1493846395129 -5.054413 -6.936783 9.567856
1493846395149 -1.4395294  -11.991608  10.477554
1493846395169 -1.9638062  -16.053879  -16.837479
1493846395189 -0.9681549  -9.836487 4.3135986
1493846395209 -6.054962 -4.2593994  12.23584
1493846395228 -6.660553 -8.3385315  2.7732544
1493846395248 0.99806213  -12.672287  3.9889526
1493846395268 4.621994  -13.76384 3.6339417
1493846395308 6.6395264 -11.656769  2.8611298
1493846395325 4.006531  -11.307861  0.5877838
1493846395350 0.45291138  -9.66774  0.29434204
1493846395371 -3.0414886  -8.416138 2.0846863
1493846395389 -4.908188 -8.46698  2.253418
1493846395409 -3.9414825  -9.137009 -0.07090759
1493846395430 -1.2213745  -9.248642 -0.17907715
1493846395448 0.19015503  -8.6358795  -0.486557
1493846395468 0.3254547 -8.346329 -0.45741272
1493846395490 0.7190094 -8.198013 0.072280884
1493846395508 1.2722626 -8.304901 2.6277618
1493846395528 1.8299408 -9.6106415  3.34581
1493846395549 2.0859375 -10.680969  1.1293945
1493846395567 2.5005798 -10.257538  -2.686432
1493846395587 1.199646  -11.264496  -3.1591187
1493846395611 -1.0888824  -11.937073  0.45526123
1493846395621 -2.965042 -11.716919  -0.45672607
1493846395641 -0.39282227 -12.1141205 -1.3811798
1493846401302 1.9141083 -12.364777  -1.1082001
1493846401303 2.755783  -13.218079  -1.4109497
1493846401303 4.4802856 -14.298248  -1.172287
1493846401303 3.9368896 -13.885834  -1.5666199
1493846401303 0.3457489 -13.3411255 -4.3723907
1493846401303 -2.9045563  -13.280502  -3.7891998
1493846401303 -4.0683594  -12.500229  2.104126
1493846401303 -4.567154 -12.259186  7.773819
1493846401303 -5.0967255  -12.955185  7.1129
1493846401303 -3.9117126  -13.667786  2.4732056
1493846401303 -1.1205597  -13.449783  -1.5158234
1493846401303 2.748642  -11.2733  -2.218399
1493846401304 4.747528  -10.096146  -0.42201233
1493846401304 3.630478  -9.758148 1.1600342
1493846401304 0.8398285 -9.091217 1.880249
1493846401304 -1.5860901  -7.8643494  2.5188293
1493846401304 -3.1574402  -6.2372437  2.7425232
1493846401304 -4.028351 -5.2069244  2.5211792
1493846401304 -3.484192 -4.3756256  1.6770477
1493846401304 -2.399353 -3.9876862  1.4535217
1493846401304 -2.1979675  -3.0070496  2.010254
1493846401304 -2.1600342  -1.7832336  2.7082062
1493846401304 -1.5728607  -1.8325195  2.5904083
1493846401304 -0.84077454 -3.8068237  1.5155487
1493846401304 1.0283966 -9.195099 -3.7671814
1493846401305 2.5717163 -17.332489  -16.183517
1493846401305 10.27652  -19.474823  -19.722397
1493846401305 8.9591675 -19.052094  -7.517685
1493846401305 3.0533905 -8.3945465  -1.7394104
1493846401305 -1.3691254  0.49612427  2.6229248
1493846401305 -3.2500153  -2.0567017  6.138382
1493846401305 -6.5116425  -13.884918  3.7514343
1493846401305 -3.8153381  -19.002914  -11.756638
1493846401305 0.32980347  -13.483124  4.321991
1493846401305 -4.9631195  -3.1818695  11.79744
1493846401305 -9.632309 -2.4428406  5.3167114
1493846401305 -3.5809174  -9.281296 3.907547
1493846401306 4.469879  -12.100235  6.309601
1493846401306 8.35141 -15.263138  2.0117645
1493846401306 6.9098816 -14.7126465 0.654953
1493846401306 0.5971222 -10.806183  -1.3624268
1493846401306 -2.6183167  -8.404373 2.6646423
1493846401306 -3.1574554  -8.029663 3.3871002
1493846401306 -1.887619 -8.3320465  1.5322418
1493846401306 -0.081604004  -8.928497 1.3015137
1493846401306 0.37303162  -9.214066 1.2993622
1493846401306 0.13716125  -9.321136 0.10910034
1493846401306 -0.369812 -8.620682 0.19754028
1493846401306 -0.23995972 -8.156509 0.8888397
1493846401306 0.8063965 -8.96109  1.3708801
1493846401307 1.6247253 -10.759506  0.8998718
1493846401307 1.8258057 -11.624069  -1.0355377
1493846401307 2.8585205 -11.063324  -3.6509705
1493846401307 3.1417694 -11.312149  -2.100296
1493846401307 1.6052399 -11.768951  -1.0772705
1493846401307 0.7395477 -12.080124  -2.372467
1493846401307 1.0767517 -12.368011  -3.3236237
1493846401307 0.39320374  -12.818817  -4.8408966
1493846401307 1.0481262 -14.315308  -5.4113007
1493846401307 2.7829285 -15.895554  -3.1830444
1493846401307 0.3464203 -15.674835  -2.315033
1493846401307 -3.439911 -13.686966  0.7587738
1493846401308 -4.2245026  -13.678696  4.6746826
1493846401308 -3.0950317  -14.190994  7.641037
1493846401308 -3.316925 -14.569855  5.054962
1493846401308 -3.2324066  -15.785187  1.1882324
1493846401308 -0.8867645  -14.06752 -0.80992126
1493846401308 2.4215088 -11.164658  -0.75605774
1493846401308 3.4365845 -9.83989  0.5011444
1493846401308 1.6666565 -8.536407 1.8147278
1493846401308 -0.23570251 -6.310257 2.2011871
1493846401308 -1.6949615  -4.2020416  2.5471191
1493846401308 -2.666748 -3.2171783  2.5923767
1493846401308 -3.2029572  -3.3791504  2.5930786
1493846401308 -3.5029602  -3.3716736  3.0290833
1493846401309 -3.4259644  -2.0991821  3.7378845
1493846401309 -3.2022858  -0.7143707  4.2288055
1493846401309 -2.2614594  -1.2655487  3.4684753
1493846401309 -0.42442322 -4.1353455  1.5911255
1493846401309 1.5059204 -10.244736  -4.1106567
1493846401309 1.9501038 -17.518753  -16.027893
1493846401309 9.634445  -19.474823  -19.722397
1493846401309 6.901001  -15.499954  -7.9164276
1493846401309 0.4660492 -4.203903 -0.074020386
1493846401309 -4.5534515  -4.3999786  6.2875824
1493846401309 -1.7977295  -11.756424  2.916275
1493846401310 -1.0628967  -14.138504  -9.420883
1493846401316 -0.72602844 -10.247925  0.39012146
1493846401316 -4.0466156  -5.2982025  12.165039
1493846401316 -8.006638 -6.21434  4.568619
1493846401316 -2.900467 -9.561737 5.0688934
1493846401316 1.4587097 -10.951843  5.7414703
1493846401316 5.6062927 -11.231812  2.705597
1493846401317 7.454254  -12.536819  1.877121
1493846401317 2.5849915 -11.667633  -0.7889404
1493846401317 -1.1971893  -9.122452 1.8377838
1493846401317 -3.8217163  -8.646378 1.2921143
1493846401317 -3.2751312  -8.640564 0.42300415
1493846401317 -1.668045 -8.808075 0.10404968
1493846401317 -1.2722626  -8.409821 0.63557434
1493846401317 -0.56843567 -8.248154 0.5932312
1493846401317 0.05606079  -8.533646 1.307312
1493846401317 1.2377777 -9.188782 1.0523224
1493846401317 1.6523438 -9.943161 0.9590149
1493846401317 1.7120972 -10.190689  0.23320007
1493846401317 1.7442169 -10.087524  -0.8419342
1493846401317 2.3264618 -10.652618  -1.4200745
1493846401318 1.6996613 -11.91362 -1.0413971
1493846401318 -0.051483154  -12.001526  -1.5133972
1493846401318 0.31355286  -12.253418  -2.7293854
1493846401318 1.876648  -12.286789  -2.3361816
1493846401318 2.0189972 -12.908524  -4.239197
1493846401318 3.38385 -15.090942  -5.1508026
1493846401318 3.7302399 -15.379837  -2.5943909
1493846401318 -0.8751068  -14.544312  -3.2842255
1493846401318 -4.744232 -13.115463  0.72676086
1493846401319 -4.552414 -13.221252  6.0626373
1493846401319 -4.100647 -15.040436  6.0697784
1493846401319 -3.639038 -15.877014  3.469452
1493846401319 -3.271286 -16.088287  1.3127594
1493846401319 -0.384552 -13.9301605 -0.61517334
1493846401319 3.2968292 -10.845688  -0.17211914
1493846401319 3.217392  -9.632004 1.143219
1493846401319 1.1708679 -8.699631 1.8900452
1493846401319 -0.5892029  -7.264847 2.7784576
1493846401319 -1.8735046  -5.241577 3.2088623
1493846401319 -2.6531982  -3.1697693  3.1470032
1493846401319 -2.8503723  -2.3376617  2.6896667
1493846401320 -2.8993835  -2.6418304  2.5582733
1493846401320 -2.9855652  -1.9371033  3.109375
1493846401320 -3.2179565  -0.95744324 3.7326508
1493846401320 -2.4995422  -1.7453156  3.4231415
1493846401320 -0.22764587 -4.8757477  1.0686951
1493846401320 0.8231659 -11.511673  -6.6584625
1493846401320 -0.38729858 -17.802643  -16.667892
1493846401320 9.077438  -19.474823  -18.079086
1493846401320 7.243881  -13.332855  -7.10614
1493846401320 0.8930054 -1.7880249  2.2113342
1493846401320 -3.1537476  -2.0924988  4.676773
1493846401320 -1.9928589  -13.056519  -0.46910095
1493846401321 -1.1711578  -17.487137  -5.1816864
1493846401321 -1.269516 -11.141647  -0.7160797
1493846401321 -6.421753 -3.292633 10.308228
1493846401321 -9.386841 -5.345291 6.9338684
1493846401321 -3.5809326  -10.20105 6.318207
1493846401321 1.2735901 -12.429977  5.271698
1493846401321 7.8191986 -13.117386  2.1024017
1493846401321 8.464691  -13.381958  1.2852936
1493846401321 2.7750244 -10.848755  -0.17063904
1493846401321 -1.5553894  -8.632797 2.073944
1493846401321 -3.935379 -8.129074 0.7464752
1493846401321 -3.501648 -8.747757 0.83273315
1493846401321 -1.7223053  -9.231812 -0.11824036
1493846401321 -0.28103638 -8.417877 -0.61402893
1493846401322 0.34472656  -7.7901 -0.079696655
1493846401322 0.41423035  -7.7427673  0.58724976
1493846401322 0.7604065 -8.517471 1.3436584
1493846401322 0.93510437  -9.84993  1.8589325
1493846401322 0.9602356 -10.322037  0.47962952
1493846401322 1.6284332 -10.180923  -1.780716
1493846401322 2.3473663 -10.659943  -1.9884338
1493846401322 1.383255  -11.198975  -0.9741974
1493846401322 0.5983734 -11.651398  -1.4226074
1493846401322 2.2863617 -12.314209  -1.1221161
1493846401323 2.343872  -12.367035  -1.190445
1493846401323 0.7121582 -13.343292  -4.146637
1493846401323 3.1387482 -15.243042  -5.5113525
1493846401323 5.5680695 -15.883865  -3.163803
1493846401323 -0.56629944 -15.40361 -3.9355927
1493846401323 -7.1885223  -14.061325  0.38700867
1493846401323 -7.268173 -13.339111  8.706696
1493846401323 -4.3467865  -14.003067  7.529907
1493846401323 -1.4922028  -15.135391  2.0987244
1493846401323 -1.5320435  -16.876892  -0.19038391
1493846401323 -0.89276123 -15.200623  -0.49891663
1493846401324 1.884201  -10.957962  0.54618835
1493846401324 2.5641632 -9.434753 1.6752167
1493846401324 0.98542786  -8.962189 2.804245
1493846401324 -1.0423889  -7.8779297  2.9670868
1493846401324 -2.1641235  -5.896652 3.0426483
1493846401324 -2.5930328  -4.0401306  3.0509949
1493846401324 -2.2866974  -2.9209442  2.3807526
1493846401324 -2.0023346  -2.498886 2.4565125
1493846401324 -2.7296753  -1.5264435  3.449234
1493846401324 -3.205368 -0.32485962 3.8993073
1493846401325 -2.410492 -1.0034485  3.480423
1493846401325 0.27923584  -4.2969666  0.88887024
1493846401325 1.3198242 -10.359955  -7.0954895
1493846401325 1.6355743 -17.190948  -16.645035
1493846401325 8.8918915 -19.474823  -16.160217
1493846401325 6.1450043 -14.582748  -7.4155426
1493846401325 -0.30859375 -4.932541 -0.08627319
1493846401325 -1.881607 -0.42747498 5.9522095
1493846401326 -2.9832458  -9.662857 2.2611542
1493846401326 -4.3768005  -15.898773  -3.6716766
1493846401326 -3.337906 -14.410446  -6.253067
1493846401326 -2.0041504  -6.2987213  8.073471
1493846401326 -4.534424 -5.668991 6.9418793
1493846401326 0.40997314  -8.896408 4.3941803
1493846401326 2.787918  -11.5858  3.8608093
1493846401326 4.6059265 -13.1102295 2.8293915
1493846401326 5.746475  -12.888947  1.7642059
1493846401326 1.701004  -11.360031  -0.639328
1493846401326 -1.5642395  -8.958603 0.80503845
1493846401326 -2.9667206  -8.517868 1.4881134
1493846401327 -2.4454193  -8.971283 0.60246277
1493846401327 -1.6943207  -8.933884 -0.314682
1493846401327 -0.79067993 -8.265793 -0.04057312
1493846401327 0.12312317  -8.031509 -0.46409607
1493846401327 0.37123108  -7.9116516  0.10559082
1493846401327 0.023925781 -7.694626 1.7731171
1493846401327 0.08682251  -8.287231 1.4569092
1493846401327 0.9183655 -9.2552185  2.4725647
1493846401327 1.1162109 -9.992065 0.6273804
1493846401327 1.4273529 -10.4583435 -2.372757
1493846401327 1.0686035 -11.670166  -2.0621796
1493846401327 -0.092544556  -12.041763  -1.5406647
1493846401328 0.5467987 -12.502426  -1.8565369
1493846401328 1.6924133 -12.844925  -1.7106171
1493846401328 1.1478882 -13.605194  -3.7407074
1493846401329 2.4075623 -15.416031  -4.4322968
1493846401329 4.954315  -15.465332  -2.0979004
1493846401329 1.1691284 -14.477097  -3.6897888
1493846401329 -5.12912  -13.534576  -3.4799652
1493846401329 -4.422455 -12.542603  4.059265
1493846401329 -2.04245  -12.872223  7.569153
1493846401329 -2.5470886  -13.60025 4.087738
1493846401329 -4.4411926  -15.845978  0.2507019
1493846401329 -2.760254 -15.531311  -0.19197083
1493846401329 2.1604462 -12.535965  -0.14924622
1493846401329 4.9349213 -10.076813  0.6031494
1493846401329 2.4858093 -9.338898 1.0821228
1493846401329 0.045898438 -7.870865 1.6545105
1493846401330 -1.5899811  -5.818741 2.8348236
1493846401330 -2.738083 -4.2948456  2.9970856
1493846401330 -3.323944 -3.4571838  2.8513794
1493846401330 -2.7987976  -3.2853088  2.4607239
1493846401330 -2.241333 -2.9783325  2.680069
1493846401330 -2.4745636  -1.5752258  3.4521332
1493846401330 -2.3825378  -0.95588684 3.3011627
1493846401330 -1.6031494  -2.8177032  2.0019379
1493846401330 -0.20407104 -8.138489 -2.5390472
1493846401330 0.68096924  -16.154495  -14.07962
1493846401330 5.396393  -19.474823  -19.722397
1493846401330 6.685211  -17.05722 -10.121735
1493846401330 1.6081238 -8.038849 -1.6044464
1493846401331 -2.1404266  -2.2722473  4.2742767
1493846401331 -4.124283 -10.743454  1.645874
1493846401331 -1.4476013  -16.764725  -3.9963684
1493846401331 -0.090530396  -14.317596  -7.8366547
1493846401331 -1.4069214  -6.155243 6.9306946
1493846401331 -7.310272 -2.8238373  7.797394
1493846401331 -5.184967 -8.352493 4.5911865
1493846401331 1.0258179 -11.143021  5.342148
1493846401331 3.92836 -12.607239  3.108841
1493846401331 6.962036  -12.556152  2.6717834
1493846401331 4.3421936 -12.498398  0.8677521
1493846401331 -0.12434387 -9.783112 0.14964294
1493846401332 -3.2809753  -8.439087 1.7748566
1493846401332 -3.969574 -8.682785 0.72727966
1493846401332 -2.064499 -9.022202 0.35754395
1493846401332 -0.30114746 -9.181702 -0.34327698
1493846401332 -0.17642212 -8.656036 0.738678
1493846401332 0.037261963 -8.610672 -0.6031189
1493846401350 0.35116577  -8.583603 1.0844116
1493846401373 1.0443878 -8.467865 2.3961792
1493846401392 1.6660461 -9.168976 1.9464874
1493846401412 1.4965668 -10.269714  1.2784729
1493846401432 1.3793945 -10.422546  -0.59806824
1493846401452 2.0731354 -10.841507  -2.0906525
1493846401471 1.6218567 -12.130356  -1.4287415
1493846401491 -0.089660645  -12.208572  -1.2604675
1493846401508 0.11077881  -12.102005  -2.177948
1493846401530 1.6160736 -12.126648  -1.0422668
1493846402299 0.8211212 -12.170883  -2.0036469
1493846402299 0.19232178  -13.298096  -4.3512115
1493846402299 3.05188 -14.35054 -3.5781555
1493846402299 3.6054993 -14.428482  -2.309723
1493846402299 -1.2986908  -14.453812  -3.1483307
1493846402299 -5.43898  -12.889862  -0.43725586
1493846402299 -4.6870117  -12.988846  7.0876617
1493846402299 -3.0939636  -14.019012  7.740967
1493846402300 -3.3829803  -15.033432  3.301941
1493846402300 -3.3903198  -15.76709 -0.29849243
1493846402300 -0.97846985 -13.691971  -1.6338196
1493846402300 2.793747  -10.63652 0.2796631
1493846402300 3.5947723 -9.37468  1.4354401
1493846402300 0.93244934  -8.385971 1.5540924
1493846402300 -0.8196411  -6.72377  2.0990753
1493846402300 -1.7359161  -5.0875397  2.8240814
1493846402300 -2.4334106  -4.076721 2.685608
1493846402300 -2.4131927  -3.437149 2.309967
1493846402300 -2.088623 -3.3530426  2.335434
1493846402301 -2.1329346  -2.6851501  2.852234
1493846402301 -2.6004639  -1.4595337  3.3807373
1493846402301 -2.5422668  -1.6341553  3.1795044
1493846402301 -1.4645386  -4.2690735  1.0153656
1493846402301 0.16029358  -9.958679 -6.41864
1493846402301 2.704712  -16.876694  -16.153992
1493846402301 8.374084  -19.474823  -19.69728
1493846402301 6.2275696 -15.090759  -9.458649
1493846402301 -0.25151062 -6.552643 -1.7893982
1493846402301 -1.4267731  -1.4980316  1.4669952
1493846402301 -1.0657349  -8.266129 1.2175903
1493846402301 -1.1122437  -14.013931  1.8237
1493846402301 -1.7796326  -14.940369  -9.709518
1493846402302 -2.079956 -9.123947 3.4371185
1493846402302 -6.2659454  -5.6129913  7.1928406
1493846402302 -5.4717407  -7.529251 4.4663086
1493846402302 -0.6336365  -9.627457 3.116211
1493846402302 2.405075  -10.56485 3.8855743
1493846402302 5.6584625 -11.18277 2.8857574
1493846402302 5.058731  -12.955414  1.0436401
1493846402302 1.3465271 -10.8910675 -0.5549164
1493846402302 -1.478363 -8.794937 1.6683807
1493846402302 -2.6958618  -8.15126  1.3055115
1493846402302 -2.5962067  -8.748642 0.41235352
1493846402302 -1.3683472  -9.143616 -0.54345703
1493846402303 -0.72254944 -8.869202 -0.5636902
1493846402303 -0.13642883 -8.810867 -0.4846344
1493846402303 -0.022399902  -9.2724 -0.2427063
1493846402303 -0.23223877 -9.252716 2.0282135
1493846402309 0.078201294 -9.007523 2.9983673
1493846402333 1.057251  -9.44249  2.7997437
1493846402352 1.1668701 -10.197189  1.6344604
1493846402372 0.7962189 -10.456284  -1.4527435
1493846402392 1.1821136 -11.300705  -3.0372772
1493846402412 1.0599823 -11.993042  -2.0637207
1493846402432 0.3620453 -11.964371  -0.8029938
1493846402451 0.98587036  -11.900848  -0.065597534
1493846402471 0.42797852  -11.859375  -0.07513428
1493846402491 -0.9487915  -12.812073  -2.6783447
1493846402508 0.76586914  -14.176514  -3.097702
1493846402528 3.611618  -13.930832  -1.3211517
1493846405317 2.6689148 -13.804031  -2.4954834
1493846405317 -1.2458801  -13.408295  -3.715683
1493846405317 -2.9896698  -12.925873  -0.27972412
1493846405317 -2.9352417  -12.593445  5.254318
1493846405317 -4.075821 -12.942383  7.3404236
1493846405318 -5.4880524  -13.569199  3.596222
1493846405318 -3.847702 -13.566757  0.13656616
1493846405318 0.1611023 -11.854462  -1.1210175
1493846405318 4.2037506 -10.054398  -0.11705017
1493846405318 5.4608307 -9.537476 0.9328003
1493846405318 2.7399292 -8.937622 1.0870972
1493846405318 0.09132385  -7.338562 1.7765808
1493846405319 -1.8499603  -5.727997 2.533371
1493846405319 -3.1980743  -4.6714783  2.5491333
1493846405319 -3.45018  -4.113785 2.2240143
1493846405319 -2.935608 -3.9763641  1.8886566
1493846405319 -2.5701752  -3.3888397  2.3117828
1493846405319 -2.5541992  -2.2415466  2.9754486
1493846405320 -2.1966248  -2.5201874  2.7677002
1493846405320 -1.3892059  -4.968918 1.5858002
1493846405320 0.065216064 -10.380524  -3.57518
1493846405320 0.7969208 -17.064835  -14.783493
1493846405320 7.566757  -19.474823  -19.722397
1493846405320 8.663773  -16.712189  -10.0243225
1493846405320 3.753296  -7.8137817  -1.2540588
1493846405321 0.31152344  -0.7679291  3.1099243
1493846405321 -0.6385193  -3.447403 4.4244995
1493846405321 -2.0928345  -12.120911  3.54953
1493846405321 -3.081482 -17.43695 -8.47467
1493846405321 -1.4725342  -14.753113  -5.203827
1493846405328 -3.5368195  -7.1433563  9.189682
1493846405328 -8.529526 -4.6635284  6.4293213
1493846405328 -5.4742584  -6.9421234  3.8792725
1493846405328 -0.55981445 -9.217682 4.235565
1493846405329 3.795639  -12.340973  5.2521057
1493846405329 7.910675  -14.358536  2.512619
1493846405329 4.542511  -13.088257  -1.1750336
1493846405329 0.0025787354  -9.427521 0.03666687
1493846405329 -2.573532 -8.485672 1.7415466
1493846405330 -3.0531158  -8.702911 0.988327
1493846405330 -2.2352753  -9.195465 0.43814087
1493846405330 -1.8418121  -9.0703125  0.35653687
1493846405330 -1.0595398  -8.582245 0.3982849
1493846405330 -0.3670807  -8.8111725  -0.72966003
1493846405330 0.39175415  -8.444473 0.9964447
1493846405331 0.74632263  -8.243881 2.7344208
1493846405331 0.76213074  -9.017822 2.3716125
1493846405331 0.6891327 -9.92659  1.0795135
1493846405331 1.4629974 -9.915543 -0.67601013
1493846405331 1.8498688 -10.452927  -1.3515778
1493846405331 1.0804596 -11.768707  -0.9122009
1493846405332 -0.08441162 -12.047607  -0.75645447
1493846405332 0.44659424  -11.865524  -0.4205475
1493846405332 0.80952454  -11.775635  0.7857971
1493846405332 -0.77619934 -12.237717  -0.41288757
1493846405332 -1.0136414  -13.409958  -2.291977
1493846405333 2.1974792 -14.076294  -2.1969604
1493846405333 4.4611664 -13.971695  -1.6504822
1493846405333 2.4336853 -13.746613  -3.3358002
1493846405333 -1.5624542  -13.262054  -4.1699066
1493846405334 -3.5857239  -12.502853  0.021514893
1493846405335 -3.9599304  -11.768494  5.1263733
1493846405336 -4.429184 -12.554962  6.593399
1493846405336 -4.3033752  -13.7108  3.7794647
1493846405336 -3.0646515  -13.872437  0.985199
1493846405336 -0.32987976 -12.339752  -0.7286072
1493846405337 3.4961395 -10.309647  0.044448853
1493846405337 4.7230835 -9.788101 1.5272217
1493846405337 2.484024  -9.428162 0.7387543
1493846405337 0.21304321  -7.8107605  1.353836
1493846405338 -1.7138062  -5.8596344  2.430725
1493846405338 -3.1038513  -4.3896027  2.480011
1493846405338 -3.6124115  -3.9384155  2.042511
1493846405338 -2.9508514  -4.0212097  1.8076935
1493846405338 -2.20253  -3.3982697  2.2591858
1493846405338 -2.2145233  -2.3098297  2.892044
1493846405339 -1.8861542  -2.3654022  2.8250732
1493846405339 -1.0578461  -4.2374573  1.7327881
1493846405339 0.40075684  -9.213547 -2.655716
1493846405339 1.2145233 -16.739746  -14.624527
1493846405339 7.817917  -19.474823  -19.722397
1493846405339 8.475784  -18.539017  -10.582596
1493846405340 2.6855621 -10.849625  -4.4168396
1493846405340 -2.511856 -4.764969 0.8653717
1493846405340 -4.2257843  -9.889191 -0.4943695
1493846405340 1.6513214 -13.89328 -2.1298523
1493846405340 3.5601501 -11.438416  1.1851044
1493846405340 -5.6264343  -7.7531433  -3.365509
1493846405340 -9.677994 -2.5305176  7.3218384
1493846405341 -7.853302 -5.088669 10.126526
1493846405341 0.014831543 -11.480743  2.6326294
1493846405341 3.6999054 -12.82843 2.8291016
1493846405341 6.159317  -11.556931  1.7360687
1493846405341 4.843048  -11.903 2.535141
1493846405341 2.0012817 -11.210373  0.8427124
1493846405342 -1.7204132  -9.245026 1.2072449
1493846405342 -3.5375671  -8.910034 1.9034576
1493846405342 -2.9367828  -9.60347  0.37094116
1493846405342 -0.6333618  -9.336212 0.66285706
1493846405342 -0.717926 -9.0651245  0.4596405
1493846405342 -1.3672333  -8.860153 0.011703491
1493846405342 -0.7921295  -9.309387 -0.6846466
1493846405343 0.1783905 -9.190887 0.33946228
1493846405343 1.6718445 -8.545517 2.2612
1493846405343 1.4277802 -9.065704 4.7647247
1493846405343 -4.3932495  -11.705536  6.3612823
1493846405343 3.9282074 -9.963181 -5.353714
1493846405343 0.7158203 -10.552109  -1.4403839
1493846405343 -1.2856903  -11.165314  0.2836609
1493846405344 -2.3326416  -10.970566  -0.30064392
1493846405344 -0.21986389 -11.5047  -1.3682404
1493846405344 2.1355133 -12.104782  -0.24943542
1493846405344 1.2705383 -12.428543  -0.2751007
1493846405344 0.114471436 -13.583481  -2.0634003
1493846405344 2.4074554 -14.092682  -2.528366
1493846405345 2.6076813 -13.61731 -4.002777
1493846405345 0.07473755  -13.38974 -4.8490143
1493846405345 -2.3422241  -12.789413  -1.4015045
1493846405345 -5.227112 -12.324188  2.3937836
1493846405345 -6.486145 -12.442276  5.9881134
1493846405345 -3.3009033  -13.148117  5.495804
1493846405346 -3.0620422  -14.017197  0.5358734
1493846405346 -1.1527557  -13.496292  -1.0627747
1493846405346 2.605713  -11.649414  -0.5438843
1493846405346 4.3116302 -10.257324  1.4729004
1493846405346 2.5286713 -9.627823 1.8096161
1493846405346 0.2967682 -8.655411 1.4030457
1493846405347 -1.7390747  -6.8640747  2.4149017
1493846405347 -3.0822601  -5.015091 3.0943604
1493846405347 -3.5450287  -4.606476 2.4593964
1493846405347 -2.855896 -4.5484467  1.284729
1493846405347 -1.7552948  -3.8100433  1.3026428
1493846405347 -1.5085297  -2.770401 2.2251434
1493846405347 -1.6871796  -2.1772766  2.717514
1493846405348 -1.3602753  -3.1013794  2.487564
1493846405348 -0.53782654 -6.934189 -0.7366333
1493846405348 -0.68540955 -14.696457  -10.990402
1493846405348 2.725525  -18.914291  -18.324966
1493846405348 8.188797  -19.474823  -11.19928
1493846405348 3.6297302 -11.744019  -3.1820374
1493846405348 -1.9190979  -4.483734 0.9668579
1493846405349 -4.538086 -6.4585114  0.41827393
1493846405349 -2.176529 -13.231277  -6.1230164
1493846405349 3.650879  -15.174576  -2.2156677
1493846405349 -0.20544434 -9.894424 1.2242737
1493846405349 -5.755615 -3.098465 3.047699
1493846405349 -6.1338196  -2.4166718  9.946976
1493846405350 0.7935028 -9.279495 4.04274
1493846405350 3.0071716 -13.816803  2.279831
1493846405350 3.1285248 -13.188217  -0.3678131
1493846405350 2.0560913 -11.224243  2.7752228
1493846405350 0.82751465  -9.197388 3.266693
1493846405350 -1.9496307  -8.426422 1.8986969
1493846405351 -1.9585419  -9.580002 0.66174316
1493846405351 -1.0361633  -11.013031  1.0113678
1493846405379 -0.046661377  -10.075577  0.6008606
1493846405380 -0.54463196 -8.553619 0.47227478
1493846405418 -2.1195526  -8.542892 -0.29270935
1493846405439 -1.8122559  -9.348846 -0.99757385
1493846405458 -0.83587646 -9.221283 0.47097778
1493846405478 -0.5307007  -8.309158 2.6366425
1493846405498 -0.5396881  -8.445358 3.2998657
1493846405528 0.02015686  -9.839676 2.45755
1493846405534 0.20097351  -10.271088  1.0592957
1493846407298 -0.26600647 -10.048431  -2.2032166
1493846407298 -0.049972534  -10.484497  -1.9497223
1493846407298 0.1539917 -11.50943 1.230545
1493846407299 -0.37496948 -11.871338  1.1477356
1493846407299 0.75813293  -11.819977  0.49679565
1493846407299 0.95196533  -11.617294  0.44429016
1493846407299 -0.38607788 -11.969223  -0.38711548
1493846407299 0.28782654  -12.884857  -1.3980255
1493846407299 2.895996  -13.933121  -2.3234558
1493846407299 3.1930237 -13.639832  -3.2272797
1493846407299 0.22268677  -12.825012  -4.4793854
1493846407299 -2.9049225  -12.584457  -3.5271454
1493846407299 -4.295532 -11.798965  1.9142609
1493846407299 -4.571274 -11.150024  6.6001434
1493846407299 -4.623749 -11.649567  6.7021637
1493846407299 -4.0088043  -13.511795  1.9249268
1493846407300 -1.8176422  -14.176773  -1.3375397
1493846407300 1.2170258 -12.038849  -1.3777771
1493846407300 4.1263275 -10.214569  0.78819275
1493846407300 4.477051  -9.712799 0.94898987
1493846407300 2.0952606 -9.013809 0.39678955
1493846407300 -0.34146118 -7.411606 1.5074158
1493846407300 -1.933548 -5.698166 2.1595154
1493846407300 -3.1143494  -4.7296906  2.3256226
1493846407300 -3.3057556  -4.62059  1.949997
1493846407301 -2.3286133  -4.464737 1.7884216
1493846407301 -2.1744537  -3.489746 2.220459
1493846407301 -2.4810944  -2.4014282  2.7823792
1493846407301 -1.8443604  -2.8210754  2.3788757
1493846407301 -0.8965149  -5.292404 0.43214417
1493846407301 0.38963318  -10.975555  -5.4109497
1493846407302 2.4002686 -17.626556  -16.249893
1493846407302 9.619202  -19.474823  -19.721268
1493846407302 7.734741  -15.86499 -8.034622
1493846407302 1.5113678 -6.8459625  -0.5002289
1493846407302 -1.5768127  -1.5910645  2.5606384
1493846407302 -4.0453033  -9.169022 -0.099731445
1493846407302 -2.6064148  -16.656693  0.51431274
1493846407302 1.335846  -16.760345  -8.171814
1493846407302 0.67240906  -9.874725 1.9847717
1493846407302 -6.6366425  -2.9101105  8.752655
1493846407302 -11.171204  -3.9388275  6.380127
1493846407302 -3.9062653  -9.705704 3.3082123
1493846407303 0.609848  -12.127441  5.057251
1493846407303 6.189865  -12.573334  3.6583405
1493846407303 6.7042084 -13.45134 2.0400238
1493846407303 2.8531952 -11.12886 -0.32685852
1493846407303 -0.79615784 -8.967285 1.7485046
1493846407303 -3.1877594  -8.787918 1.7372589
1493846407303 -3.4929504  -9.711975 0.115493774
1493846407303 -2.0833435  -10.022629  -0.39811707
1493846407303 -0.60072327 -9.666168 -0.98617554
1493846407303 -0.3397522  -8.8710785  -1.2872314
1493846407303 0.01914978  -7.885727 -0.09648132
1493846407303 0.36735535  -7.5855865  1.3114777
1493846407304 0.2907257 -8.315842 2.8534393
1493846407304 0.017837524 -9.063934 3.8001099
1493846407304 -0.3361969  -8.978867 2.0648956
1493846407304 -0.1931305  -9.322433 -0.4248352
1493846407304 0.14277649  -10.567749  -1.8639374
1493846407304 0.49565125  -11.750916  -1.4268341
1493846407304 -0.12730408 -11.976929  -1.5488434
1493846407304 0.22444153  -11.891296  -1.6009064
1493846407304 1.1570282 -11.950378  -1.0013885
1493846407304 1.2539673 -12.642685  -2.2335968
1493846407304 1.778183  -14.4409485 -3.6875763
1493846407304 4.1653595 -15.19342 -2.388916
1493846407304 2.9302216 -13.758072  -1.9218292
1493846407305 -2.0183868  -12.841492  -4.4221344
1493846407305 -4.2880554  -12.673126  -3.5544891
1493846407305 -3.346939 -12.769058  2.453308
1493846407305 -2.5779114  -13.271744  8.922226
1493846407305 -3.6848907  -13.904556  8.023117
1493846407306 -3.7296906  -13.983383  3.3961334
1493846407322 0.007736206 -12.826157  -1.3729706
1493846407343 4.57222 -11.005035  -1.2888641
1493846407363 5.4118195 -10.158203  0.97673035
1493846407383 2.337738  -9.599731 2.0862274
1493846407402 -0.6429596  -8.250778 3.2064972
1493846407422 -2.3143463  -6.2308044  3.4501495
1493846407442 -3.098526 -4.7376556  3.2302704
1493846407462 -3.274292 -4.1475525  2.574356
1493846407481 -2.0923157  -4.013092 1.1448212
1493846407501 -1.4319 -4.4299164  1.3948212
1493846407538 -2.479782 -4.5572357  3.0156403
1493846407542 -3.3433685  -6.0903625  3.1066132
1493846407558 -2.2932434  -8.124481 -0.058547974
1493846441302 -0.082962036  -11.236771  -8.358368
1493846441302 2.2720642 -16.908554  -16.705261
1493846441302 5.436981  -17.517426  -10.710999
1493846441303 3.5813293 -11.256622  -4.533081
1493846441303 3.5947876 -6.1766205  2.2565308
1493846441303 3.562622  -6.335144 6.238678
1493846441303 -4.1017456  -10.21109 2.9668884
1493846441303 -9.393845 -14.759216  -8.604614
1493846441303 -6.609192 -16.547684  0.33164978
1493846441303 -7.780411 -13.250381  3.7689362
1493846441303 -4.1488647  -7.8542786  6.2353516
1493846441303 1.910614  -8.207321 5.7783813
1493846441303 5.8511505 -10.267487  4.8312225
1493846441303 6.678528  -12.492218  2.1904297
1493846441303 4.7903137 -12.94017 0.039001465
1493846441304 0.3877411 -11.830383  -0.42437744
1493846441304 -3.36203  -9.864517 -0.1583252
1493846441304 -3.1992188  -8.350113 1.6136932
1493846441304 -1.5297852  -7.9743195  1.287857
1493846441304 0.31861877  -9.152725 0.87158203
1493846441304 2.1422882 -9.994751 1.9747467
1493846441304 2.8148499 -10.472076  0.7234955
1493846441304 1.8098907 -9.784561 -0.04637146
1493846441304 1.5791626 -9.158051 -2.4171143
1493846441304 0.46040344  -8.8845215  -1.033783
1493846441304 -0.296463 -9.044067 -0.037384033
1493846441304 -0.2570343  -9.8233795  -0.82218933
1493846441304 1.0863342 -10.077652  -1.4605865
1493846441305 2.456253  -10.592316  -0.6368408
1493846441305 0.6378784 -11.605148  -1.274292
1493846441305 -1.0513 -12.989517  -0.9228363
1493846441305 -3.5145416  -12.873596  -2.082367
1493846441305 -4.940872 -11.252914  -3.4310455
1493846441305 -3.7022705  -10.936157  -3.0209198
1493846441305 -2.9673462  -12.2742  -3.407608
1493846441305 -1.3805084  -12.595169  0.5003052
1493846441305 1.6544037 -10.852142  3.7697144
1493846441305 2.4836578 -10.658813  -0.37086487
1493846441305 0.86073303  -10.857651  -2.8439026
1493846441305 -1.0190735  -9.735657 -1.1333771
1493846441306 -1.2831726  -8.248505 -0.9584656
1493846441306 -1.017456 -6.985565 -1.6429749
1493846441306 -0.80836487 -6.2526703  -1.3424683
1493846441306 -0.06034851 -6.1481934  -1.6564484
1493846441306 1.4542542 -6.3592377  -1.9658661
1493846441306 1.671814  -6.2305756  -2.074356
1493846441306 -0.28271484 -5.7124023  -2.015915
1493846441306 -2.6138763  -5.387863 -1.7887878
1493846441306 -2.8889008  -5.3964386  -1.7747345
1493846441306 -1.3327484  -5.886032 -2.2573853
1493846441306 0.17056274  -7.1920624  -3.7477875
1493846441306 1.7914886 -9.322769 -6.441971
1493846441307 3.3534698 -11.711853  -9.127518
1493846441307 2.6776276 -13.781891  -12.437714
1493846441307 0.85191345  -13.944199  -13.34729
1493846441307 0.24650574  -11.809814  -9.081757
1493846441307 0.025115967 -9.21376  -5.0638733
1493846441307 -0.9108887  -7.172882 -2.9364624
1493846441307 -2.5419617  -7.2034607  -2.4916687
1493846441307 -3.5713654  -10.354202  -4.6469574
1493846441307 -1.3326874  -11.332245  -6.411972
1493846441307 2.7512054 -9.876358 -2.449997
1493846441307 2.3622742 -8.681503 3.1912994
1493846441307 -2.3584595  -6.9510345  5.464386
1493846441308 -5.653946 -7.111313 0.073287964
1493846441308 -1.9206696  -9.825623 0.76423645
1493846441308 0.33848572  -10.979111  2.3802338
1493846441308 0.47583008  -11.353973  1.2076263
1493846441308 0.33493042  -10.795502  1.6418762
1493846441308 1.5820618 -9.683456 1.2491608
1493846441308 3.088028  -10.129974  1.3283844
1493846441308 3.717392  -11.060257  0.48892212
1493846441308 3.537674  -10.919876  -0.2099762
1493846441308 1.3601379 -10.382034  0.5151367
1493846441308 -0.18721008 -9.49765  0.97146606
1493846441308 -1.8614502  -8.610245 0.65960693
1493846441309 -2.1529236  -8.2716675  0.597229
1493846441309 -1.4700012  -8.620575 1.5324249
1493846441309 -1.576767 -8.927277 2.972763
1493846441309 -0.40553284 -9.597046 3.4769135
1493846441309 0.9563446 -10.546402  2.809845
1493846441309 1.3489685 -10.879868  1.2178955
1493846441309 0.7979889 -10.477325  -1.868927
1493846441309 0.717926  -10.164627  -3.2049866
1493846441309 1.318985  -10.572388  -1.157959
1493846441309 1.2003937 -11.560257  1.1694183
1493846441309 -0.06326294 -12.298859  0.38563538
1493846441309 -1.3830719  -11.999649  -1.3796844
1493846441309 -0.8829193  -11.926117  -1.6923676
1493846441353 1.0050964 -11.890854  -0.2927246
1493846441354 2.636795  -12.673019  -1.207901
1493846441354 4.209305  -13.978546  -1.4597168
1493846441354 3.0296326 -14.189148  -2.5602112
1493846441354 -1.4314728  -13.893692  -3.828415
1493846441354 -4.831192 -12.615219  -0.9993744
1493846441354 -6.0229797  -11.530746  3.906662
1493846441354 -5.3437653  -12.278183  7.9340363
1493846441354 -3.7195892  -13.440704  5.857422
1493846441354 -1.9526367  -14.114105  1.5141296
1493846441354 -0.2494812  -13.733536  -1.8227692
1493846441354 3.017395  -11.604736  -1.0151367
1493846441355 4.5810394 -10.59317 1.1385345
1493846441355 2.7866058 -9.873306 2.0143585
1493846441355 0.06201172  -8.35434  2.7689667
1493846441355 -2.3494263  -6.3498535  2.9646301
1493846441355 -3.8730927  -4.818802 2.8370972
1493846441355 -4.082855 -4.1907043  2.1884766
1493846441355 -2.9861603  -4.1525574  1.4803925
1493846441356 -2.0028534  -3.5968323  2.0317078
1493846441356 -2.1647644  -2.2113953  2.7395172
1493846441356 -1.9689178  -1.587265 2.870819
1493846441356 -1.0928802  -3.1586456  2.1773834
1493846441356 0.7261658 -7.366638 -1.0989075
1493846441356 0.81004333  -15.021713  -10.732559
1493846441356 4.2296906 -18.952469  -18.18245
1493846441356 8.355301  -19.474823  -9.238693
1493846441356 3.8365479 -11.41153 -3.8000336
1493846441356 -1.4679108  -6.042557 0.020492554
1493846441356 -2.8404388  -11.522629  -0.2591858
1493846441356 1.7052155 -15.194183  -2.4353638
1493846441357 1.3196869 -10.928406  -1.4293671
1493846441357 -6.7634735  -4.2989655  0.26757813
1493846441358 -11.17424 -0.6022644  9.616409
1493846441358 -6.38414  -6.1030884  6.9121704
1493846441358 0.9257355 -13.101685  6.5338593
1493846441358 3.7902985 -14.209366  1.6044312
1493846441358 6.501663  -12.779022  1.5174255
1493846441358 5.49527 -11.394608  2.498352
1493846441358 1.7168732 -9.721848 0.90411377
1493846441358 -1.1368866  -9.104553 2.3994293
1493846441358 -3.134613 -9.728607 0.78881836
1493846441358 -2.9515991  -9.884201 0.9846344
1493846441358 -1.8062286  -9.71463  0.30389404
1493846441358 -1.225357 -8.974899 -0.6730499
1493846441358 -0.8422699  -8.168472 -0.30091858
1493846441359 0.074523926 -7.7945404  0.8109131
1493846441359 0.45890808  -8.144516 2.3015747
1493846441359 0.76856995  -8.886276 2.9069366
1493846441359 1.2600708 -9.556107 2.4468536
1493846441359 1.1082153 -9.328354 0.29615784
1493846441359 0.83992004  -9.414566 -2.27565
1493846441359 0.753891  -10.437592  -1.4186401
1493846441359 -0.7234497  -11.717041  0.30793762
1493846441359 -1.8618927  -11.893005  -0.84184265
1493846441359 0.05747986  -11.925858  -2.1227875
1493846441359 2.3383484 -12.34404 -1.0331116
1493846441359 2.153473  -13.3029175 -1.5052643
1493846441359 3.4677734 -14.572693  -2.2190857
1493846441360 4.360855  -14.431992  -1.8104248
1493846441360 0.14735413  -14.782837  -4.329178
1493846441360 -4.6559906  -14.049484  -3.9940948
1493846441360 -5.632782 -12.517319  2.921692
1493846441360 -5.0947113  -12.514832  7.082779
1493846441360 -4.3403015  -13.899475  5.9787903
1493846441360 -3.795166 -14.738007  1.6566315
1493846441360 -1.5049438  -14.664368  -1.19841
1493846441360 2.3106232 -12.135849  -1.3509827
1493846441360 4.5243073 -10.153122  0.6119232
1493846441360 3.08461 -9.749695 1.1764679
1493846441360 0.59487915  -8.414597 1.7389221
1493846441361 -1.506424 -6.364334 2.733078
1493846441361 -2.7141113  -4.385071 2.9497528
1493846441361 -3.2233887  -3.1993866  2.5095215
1493846441361 -2.5195007  -3.2701263  1.8583679
1493846441361 -1.5409393  -3.3423615  1.8831482
1493846441361 -1.9476013  -2.2464142  2.797882
1493846441361 -2.7777863  -1.6612854  3.0335236
1493846441361 -2.3317566  -2.8402863  2.1080475
1493846441361 -1.2683105  -6.634186 -1.2560883
1493846441361 -0.81573486 -14.062759  -9.861069
1493846441361 2.7365875 -18.663895  -17.789017
1493846441361 9.672058  -19.474823  -16.605362
1493846441361 5.6503296 -11.522263  -4.569412
1493846441362 1.0102539 -3.262497 1.4565887
1493846441362 2.020462  -1.5086212  2.135971
1493846441362 0.09208679  -10.690475  1.1494446
1493846441362 -1.1874695  -15.6445465 1.3854523
1493846441362 -1.1075287  -16.963287  -15.583603
1493846441362 -2.3681183  -7.589279 9.608246
1493846441362 -9.505554 -3.712143 8.747116
1493846441362 -10.002335  -7.764969 4.912277
1493846441362 -3.1404114  -9.624496 3.0822601
1493846441362 2.3540192 -11.015015  5.0489044
1493846441362 7.6933746 -13.545746  3.692871
1493846441362 7.8147736 -14.890244  1.6165161
1493846441363 2.4032288 -10.929001  -0.9520569
1493846441363 -1.7643585  -8.777512 1.4792786
1493846441363 -4.401352 -9.053711 0.6665344
1493846441363 -4.3341064  -9.73555  -0.097229004
1493846441363 -2.6502686  -9.498352 -1.1862488
1493846441363 -0.8833771  -8.4210205  -1.6099548
1493846441363 0.15760803  -7.347641 0.31933594
1493846441363 0.14112854  -7.322403 1.6156769
1493846441363 -0.16732788 -8.055679 2.7969055
1493846441363 -0.8114166  -8.921509 3.3588867
1493846441363 -0.6703186  -9.2782135  2.0038452
1493846441363 0.62802124  -9.035278 0.5137329
1493846441363 0.96266174  -9.9734955  -1.0567627
1493846441364 1.2464447 -11.235275  -1.0602875
1493846441364 0.5167999 -11.972076  -1.0630188
1493846441364 -0.7129822  -12.019058  -2.6217194
1493846441364 0.82691956  -12.376526  -2.3422852
1493846441364 2.1352997 -12.678238  -1.192749
1493846441364 1.3833618 -13.975815  -3.2066956
1493846441364 3.0016632 -15.4151  -3.0088959
1493846441364 3.7890472 -15.160385  -1.6767883
1493846441364 0.053726196 -14.15152 -2.490921
1493846441364 -4.050354 -12.631805  -0.732666
1493846441364 -4.3807983  -11.794281  4.379257
1493846441364 -3.7528992  -13.066879  7.076645
1493846441364 -3.5549316  -15.435272  5.522476
1493846441365 -2.8372803  -16.062302  2.2195435
1493846441365 -0.51597595 -13.732498  -1.0052338
1493846441365 3.3314514 -10.890579  -1.187973
1493846441365 4.5492096 -10.294739  0.5623169
1493846441365 2.3305511 -9.981491 1.8575745
1493846441365 -0.26289368 -8.323837 2.4352722
1493846441365 -2.440689 -5.900177 3.3138123
1493846441365 -3.636032 -3.829071 3.561264
1493846441365 -3.840622 -3.1823883  2.7896576
1493846441365 -3.0691986  -3.5412445  2.1649475
1493846441365 -2.319107 -2.9800415  2.375824
1493846441365 -2.4542236  -1.7159729  2.9799042
1493846441366 -2.195404 -2.0529175  3.0080414
1493846441366 -0.58006287 -4.6218567  1.5040588
1493846441366 0.81466675  -9.848465 -3.1595612
1493846441366 -0.14039612 -17.20578 -15.155365
1493846441366 8.09581 -19.474823  -19.629318
1493846441366 9.365982  -17.948227  -6.601837
1493846441366 2.761917  -7.988434 -0.46237183
1493846441366 -0.6149292  -0.96669006 2.045761
1493846441366 -2.8388672  -5.6870575  0.69148254
1493846441366 -1.8737335  -14.71907 0.4752655
1493846441366 0.07354736  -18.961227  -8.719147
1493846441366 -0.07646179 -11.862152  2.6045532
1493846441367 -7.318802 -2.697586 9.102188
1493846441367 -12.112366  -3.5893707  6.7989655
1493846441367 -4.0119934  -9.8211975  4.818985
1493846441367 0.44865417  -12.805664  5.0939484
1493846441367 7.2124176 -13.571701  4.142746
1493846441367 8.661987  -13.805145  2.8230743
1493846441367 2.4839325 -11.122726  -0.33683777
1493846441367 -2.122635 -9.472931 0.85054016
1493846441367 -5.069336 -9.070007 0.6322937
1493846441367 -4.1213074  -9.291275 0.45056152
1493846441367 -1.8658752  -8.889343 0.23109436
1493846441367 -0.39060974 -8.082748 -0.57289124
1493846441367 0.19332886  -7.8432465  0.30300903
1493846441368 0.18132019  -7.9902954  1.3665314
1493846441368 -0.30996704 -8.439423 2.730545
1493846441368 -0.52827454 -8.56926  2.8039856
1493846441368 -0.17884827 -9.48616  1.9748077
1493846441368 0.35939026  -9.922882 0.024291992
1493846441368 0.3627472 -10.333191  -2.2903137
1493846441368 0.46133423  -11.171997  -1.9848328
1493846441368 -0.17430115 -11.824585  -0.85643005
1493846441368 -0.4111786  -11.685516  -1.3372498
1493846441368 1.2576294 -11.83786 -1.157196
1493846441368 1.7866516 -12.33252 -0.67500305
1493846441368 0.9668274 -13.303558  -2.0051575
1493846441369 2.4994354 -14.142883  -2.3820648
1493846441369 3.3359375 -13.948288  -1.8208923
1493846441369 -0.20941162 -13.87413 -3.0145721
1493846441369 -4.275955 -13.627884  -3.2767944
1493846441369 -5.1878204  -13.386536  0.41023254
1493846441369 -5.1155243  -13.570251  5.8298492
1493846441369 -6.0190887  -14.156525  7.9506683
1493846441369 -5.6522064  -13.896423  5.3002625
1493846441369 -1.9047241  -12.600128  0.31167603
1493846441369 3.1373138 -10.312714  -2.368454
1493846441369 5.287018  -9.514481 -1.3567505
1493846441369 3.764679  -9.483383 0.005142212
1493846441369 1.3462372 -8.15921  1.6453857
1493846441370 -0.9708557  -6.333618 2.592987
1493846441370 -2.704834 -4.7556458  2.6429443
1493846441370 -3.9033813  -4.0354156  2.5630035
1493846441370 -3.7542267  -4.396805 1.8604736
1493846441370 -2.4374237  -4.478607 1.3505249
1493846441370 -2.2633667  -3.3816223  2.055191
1493846441370 -2.8828735  -2.209259 2.9835358
1493846441370 -2.5695038  -2.568634 2.6660004
1493846441370 -1.5201874  -5.0493927  0.8710327
1493846441370 0.61917114  -11.042603  -5.2626495
1493846441370 3.6180267 -17.706467  -16.312836
1493846441370 11.274979 -19.474823  -19.722397
1493846441371 8.342789  -16.265518  -10.571884
1493846441371 2.3203735 -6.4224396  -0.63023376
1493846441371 -2.086441 -0.62927246 5.3701935
1493846441371 -5.671631 -9.438141 3.1748657
1493846441371 -3.9143066  -17.270157  -0.4825592
1493846441371 -0.5754242  -16.158768  -10.815048
1493846441371 1.4911804 -7.321396 6.4342804
1493846441371 -7.0668793  -1.6529388  10.769699
1493846441371 -12.522095  -5.3489685  5.1414337
1493846441371 -3.4638367  -10.987625  2.7809448
1493846441371 1.9218292 -13.368744  5.5818176
1493846441371 7.598419  -12.968689  2.660736
1493846441372 6.2246246 -12.919952  0.5438385
1493846441372 2.7923737 -10.116196  -0.8590088
1493846441372 -0.9650421  -9.08522  2.377777
1493846441372 -2.7406158  -9.32457  1.2716675
1493846441372 -2.603363 -9.636978 0.6693573
1493846441372 -1.4359589  -9.143936 0.3533783
1493846441372 -1.1719513  -8.703384 -0.76924133
1493846441372 -0.6766205  -8.098663 0.068237305
1493846441372 0.19830322  -7.7607727  1.821106
1493846441372 0.5285492 -7.99704  2.8406982
1493846441372 0.7554779 -8.827225 3.563919
1493846441372 0.7975769 -9.623962 2.0308228
1493846441372 0.724411  -10.123962  -0.28245544
1493846441373 0.9774475 -10.548477  -2.1521606
1493846441373 1.1760864 -11.011322  -1.4997711
1493846441373 0.18995667  -11.747803  -0.683136
1493846441373 -0.3567047  -12.147858  -1.0783691
1493846441373 0.9627991 -12.396332  -0.9994049
1493846441373 1.0709839 -12.814484  -1.7155304
1493846441373 1.2697449 -14.026932  -2.6109009
1493846441373 3.9561005 -15.187286  -1.5655365
1493846441373 3.8986816 -14.876175  -1.6877289
1493846441373 -1.1236877  -13.998871  -4.30278
1493846441373 -5.5152435  -12.78363 -2.7461243
1493846441373 -6.1823425  -11.942413  3.670578
1493846441374 -5.450592 -13.494431  7.2534485
1493846441374 -4.3295135  -15.271439  5.543991
1493846441374 -3.4997864  -15.219818  2.5480652
1493846441374 -1.5151672  -13.530121  -1.0348969
1493846441374 2.8394318 -10.873886  -1.111084
1493846441374 4.590271  -9.785522 0.7136841
1493846441374 2.0105133 -9.244125 1.5715637
1493846441374 -0.585022 -7.6901855  2.4762268
1493846441374 -2.1080475  -5.693741 3.121811
1493846441374 -2.7983093  -3.9558258  3.089447
1493846441374 -3.050583 -3.3303528  2.4169006
1493846441374 -2.5611725  -3.810913 1.6005554
1493846441374 -1.9864044  -3.3237152  1.9812317
1493846441374 -2.4896545  -1.689148 2.956192
1493846441375 -2.4640808  -1.2060089  3.386963
1493846441375 -1.4745331  -3.033554 2.6849365
1493846441375 0.40834045  -7.969162 -1.0777893
1493846441375 1.6564941 -16.679123  -13.859299
1493846441375 6.014145  -19.474823  -19.372833
1493846441375 9.629913  -19.474823  -11.028763
1493846441375 4.5835724 -9.336014 -3.0319061
1493846441375 0.68814087  -0.12767029 3.882431
1493846441375 -3.0412292  -4.1174774  5.300354
1493846441375 -3.7194977  -14.388138  2.7373505
1493846441375 -1.9230499  -17.101166  -9.04744
1493846441375 -0.88931274 -13.965286  -6.3529663
1493846441375 -3.3203888  -5.18808  10.930862
1493846441376 -9.892548 -3.8059082  6.2582703
1493846441376 -6.014221 -7.425293 2.811142
1493846441376 0.5695038 -8.982864 5.1578827
1493846441376 5.1874084 -12.931976  4.980957
1493846441377 10.196106 -14.994919  2.6718597
1493846441378 4.4513397 -13.0729065 -0.6073303
1493846441378 -0.27885437 -8.460648 0.75582886
1493846441378 -3.9833832  -7.759842 2.1500702
1493846441379 -5.3278656  -9.02272  0.7706146
1493846441379 -3.72966  -9.743668 -0.27702332
1493846441379 -1.4386749  -9.05072  -0.7673645
1493846441380 -0.024765015  -7.997101 0.9028473
1493846441380 0.51934814  -7.873062 1.5061951
1493846441380 0.51335144  -8.469559 2.5136719
1493846441380 0.3896942 -9.263916 2.8010406
1493846441380 0.2836609 -9.440338 1.5461121
1493846441380 0.9002991 -9.730743 -0.41252136
1493846441381 1.4346161 -10.3573  -1.8592529
1493846441381 1.2998505 -10.990616  -2.2797394
1493846441381 0.050094604 -11.212021  -2.0521698
1493846441381 -0.05999756 -11.4396515 -1.7513123
1493846441381 1.31604 -11.732346  -0.36637878
1493846441381 0.66781616  -12.369141  -1.5314941
1493846441381 0.46440125  -14.209015  -4.142273
1493846441381 3.6581268 -15.587662  -2.6556702
1493846441381 3.042282  -15.902664  -1.4205933
1493846441381 -2.4814606  -14.835754  -3.5530548
1493846441381 -6.394699 -13.382034  -1.3009644
1493846441381 -5.363449 -12.653564  5.7390137
1493846441381 -4.082016 -13.930588  7.907196
1493846441382 -3.9223175  -14.759048  3.9362335
1493846441382 -3.9383545  -14.834335  0.84143066
1493846441382 -1.440567 -12.950836  -1.5955658
1493846441382 2.9655914 -10.118118  -0.5264435
1493846441382 3.8398743 -9.10434  2.191452
1493846441382 1.3120117 -8.348846 2.6605225
1493846441382 -0.6021118  -7.218384 2.6472168
1493846441382 -2.0603943  -6.014023 3.2911377
1493846441382 -2.8685455  -4.6580353  2.91156
1493846441382 -3.1065216  -3.8032532  2.065857
1493846441382 -2.7656097  -3.5482788  1.6008148
1493846441382 -2.3978577  -2.6277466  2.314682
1493846441383 -2.583435 -1.2770538  3.3141174
1493846441383 -2.281128 -1.3957977  3.2151184
1493846441383 -1.1241913  -3.945816 1.7050629
1493846441383 0.69129944  -10.010483  -3.6632538
1493846441383 2.223938  -17.343323  -15.604858
1493846441383 9.209427  -19.474823  -19.722397
1493846441383 6.86911 -14.445068  -7.7285004
1493846441383 0.5874634 -4.9754333  -0.65115356
1493846441383 -5.16658  -6.5420227  2.4802246
1493846441383 -3.3514404  -13.179596  -0.107406616
1493846441384 0.85324097  -13.799606  -5.194275
1493846441384 0.46525574  -9.112167 -0.03656006
1493846441384 -4.9974213  -3.2384644  6.645111
1493846441384 -9.231476 -4.6904297  6.871414
1493846441384 -3.6216736  -10.754868  3.3973236
1493846441384 0.8167267 -11.8940735 4.1961823
1493846441384 4.094879  -11.722687  2.5992584
1493846441384 7.4808197 -11.905151  3.2361145
1493846441384 3.93927 -12.3675995 1.2991333
1493846441384 -0.14859009 -9.928589 0.5922394
1493846441384 -3.1002197  -8.541138 1.7996826
1493846441384 -3.3051453  -8.900742 1.4179077
1493846441385 -2.0281372  -9.513229 0.12940979
1493846441385 -0.71447754 -9.496368 -0.48745728
1493846441385 -0.47061157 -8.814911 0.08807373
1493846441385 -0.15342712 -8.815887 -0.5679779
1493846441385 0.19740295  -8.434845 0.9280548
1493846441385 0.59165955  -8.241577 2.7309418
1493846441385 1.1734924 -9.078796 2.6266022
1493846441385 1.4281464 -10.006027  2.207489
1493846441385 1.0340576 -9.704819 0.21629333
1493846441385 0.79463196  -9.966217 -2.562439
1493846441385 0.5042877 -11.104218  -1.4138031
1493846441385 -0.41052246 -11.511826  -0.3759308
1493846441385 0.27453613  -11.784927  -1.2085419
1493846441386 2.112442  -12.501114  -0.63009644
1493846441386 1.4856567 -12.726746  -1.330307
1493846441386 0.110443115 -13.343094  -3.321045
1493846441386 2.4164276 -14.1371  -3.359436
1493846441387 3.6168518 -14.028503  -3.0400543
1493846441387 -0.057250977  -13.923798  -5.07959
1493846441387 -4.948242 -13.776871  -2.7964478
1493846441387 -5.782501 -13.32901 3.5463257
1493846441387 -5.380722 -13.643372  6.681732
1493846441387 -4.7509613  -13.03418 7.253723
1493846441387 -4.0135193  -12.726349  3.7790222
1493846441387 -0.63716125 -13.1510315 -0.32258606
1493846441388 3.4110565 -11.9904785 -2.1182404
1493846441388 4.22789 -9.620102 -0.19999695
1493846441388 1.2779846 -8.190674 1.611084
1493846441388 -1.0771179  -7.1842346  2.2156372
1493846441388 -1.4405823  -6.123062 2.0959778
1493846441388 -1.8098907  -5.29924  1.2893524
1493846441388 -2.6289825  -4.832733 0.8337097
1493846441388 -2.6354523  -4.3325195  0.6531372
1493846441388 -2.2224884  -3.5767975  1.3916931
1493846441388 -2.4976044  -2.6317139  2.6047363
1493846441389 -2.6355286  -2.412796 2.8048248
1493846441389 -2.08284  -3.2385406  1.9601898
1493846441389 -0.9382782  -5.9914703  -0.4506073
1493846441389 0.89779663  -12.623535  -10.702805
1493846441389 5.8726807 -18.205307  -18.304886
1493846441389 6.384552  -19.474823  -14.552078
1493846441389 1.7171631 -11.419647  -6.9880066
1493846441389 -4.468506 -6.874161 -1.2380829
1493846441389 -5.0161285  -11.728928  -1.1210175
1493846441389 1.714508  -13.250793  -0.22128296
1493846441389 1.6584625 -8.237778 1.8548279
1493846441389 0.6381378 -3.5236053  5.0571747
1493846441389 -4.361664 -6.489212 7.9597473
1493846441389 -6.45961  -11.513718  1.0504761
1493846441389 -5.3204803  -12.676483  1.0220184
1493846441389 -0.7171478  -9.6080475  3.9719238
1493846441389 3.350998  -8.81636  4.0367584
1493846441389 6.1151276 -10.2144165 1.7971497
1493846441390 4.8502197 -10.887024  0.14956665
1493846441390 0.7994995 -9.976547 1.4344788
1493846441390 -2.3806458  -9.562958 1.32901
1493846441390 -3.5325775  -9.136963 0.86331177
1493846441390 -2.723343 -9.132996 -0.123535156
1493846441390 -1.5051117  -8.900833 -0.67185974
1493846441390 0.28240967  -8.787521 -0.22627258
1493846441390 0.9507904 -8.997513 0.8379822
1493846441390 1.0851746 -9.27565  3.495514
1493846441390 1.7635193 -10.043945  4.2474213
1493846441390 2.2206879 -10.988098  2.2640686
1493846441390 2.0251617 -11.09021 -1.2668457
1493846441390 1.4643555 -10.833389  -3.907318
1493846441390 0.7200928 -10.59166 -2.4067383
1493846441390 -0.077316284  -11.300003  0.055114746
1493846441390 -0.47491455 -12.256897  0.14228821
1493846441390 0.31440735  -12.715149  -1.3736115
1493846441390 0.89068604  -12.134613  -1.6179657
1493846441390 0.83509827  -12.179932  -2.021103
1493846441390 2.417511  -13.737961  -2.408493
1493846441390 4.1997223 -14.272644  -1.7977448
1493846441390 1.8194122 -13.984253  -3.1600342
1493846441390 -3.9576263  -13.332245  -3.9044037
1493846441390 -7.2162933  -12.385742  2.201355
1493846441390 -6.4539337  -11.8806  9.975052
1493846441390 -4.1099243  -12.896027  7.1929626
1493846441390 -1.9057465  -13.785477  0.7001648
1493846441390 -1.6697845  -14.695908  -2.3700714
1493846441390 -0.10559082 -13.069855  -1.5351715
1493846441391 3.0784302 -10.54129 2.378662
1493846441391 2.836914  -9.615189 3.2540588
1493846441391 -0.21661377 -8.762207 1.905426
1493846441391 -1.7746124  -7.0261536  2.243927
1493846441391 -2.5793304  -5.391464 2.7888184
1493846441391 -2.879242 -4.2898254  2.3450317
1493846441391 -2.2845612  -3.6109161  1.7039948
1493846441391 -1.6295319  -3.1382294  1.897232
1493846441391 -1.7586517  -2.2879486  2.8526459
1493846441391 -1.7318268  -1.7484894  3.0447998
1493846441391 -0.93803406 -2.8056488  2.6469727
1493846441391 0.59399414  -6.9911346  -0.91004944
1493846441391 0.74809265  -15.105133  -11.781097
1493846441391 3.010559  -19.02388 -18.603699
1493846441391 8.257507  -19.474823  -11.0290985
1493846441391 5.444229  -10.266357  -3.7298737
1493846441391 0.9432678 -1.932785 3.047821
1493846441391 -1.748642 -4.9683228  3.4425354
1493846441391 -0.7932892  -12.897324  1.5203247
1493846441391 -0.97569275 -15.842957  -4.6902466
1493846441391 -2.461609 -13.127167  -7.8432007
1493846441391 -4.193695 -4.951645 8.918579
1493846441391 -9.289276 -4.375351 7.477371
1493846441391 -6.219864 -8.31488  1.6095123
1493846441391 -0.54800415 -9.705994 4.200821
1493846441391 4.33815 -11.204926  3.660263
1493846441391 9.408295  -13.303253  1.9016571
1493846441391 6.98024 -13.451172  -0.16401672
1493846441391 0.9959259 -9.717865 0.3481903
1493846441391 -3.4859467  -8.381439 2.5386505
1493846441391 -4.9670563  -8.476944 1.1994324
1493846441391 -3.8987122  -8.7421875  0.6556854
1493846441391 -1.3114929  -8.691223 0.07299805
1493846441391 -0.18276978 -8.804962 0.40782166
1493846441391 0.773407  -9.231003 -0.025527954
1493846441391 1.072113  -9.050919 2.4493256
1493846441391 1.0359192 -9.277878 3.0042114
1493846441391 1.5130157 -10.237793  1.2749634
1493846441392 1.8392639 -10.57225 -1.0986786
1493846441392 1.5895691 -10.774597  -2.952835
1493846441392 0.16998291  -11.301056  -0.95251465
1493846441392 -1.8396149  -11.294785  -0.37483215
1493846441392 -1.144043 -11.514862  -1.1864929
1493846441392 0.9206085 -11.88121 -0.9513397
1493846441392 1.3748169 -12.1914215 -0.48338318
1493846441392 1.2298279 -13.184036  -1.532135
1493846441392 2.6471558 -14.181122  -2.8234406
1493846441392 2.0837097 -13.820801  -5.0852966
1493846441392 -0.8874512  -13.663803  -7.9619904
1493846441392 -4.1979065  -14.081741  -3.143753
1493846441392 -4.581009 -13.412476  8.6358795
1493846441392 -4.1773834  -12.59314 10.495804
1493846441392 -4.4979706  -11.705261  5.8791504
1493846441392 -2.0163727  -11.969498  1.2506714
1493846441392 2.8216248 -11.957245  -1.399643
1493846441392 4.136368  -10.53392 -1.1321716
1493846441392 1.8666687 -8.809494 1.1070251
1493846441392 -1.0468597  -7.6822357  2.3191223
1493846441392 -1.5056458  -6.955887 2.2857513
1493846441392 -1.4149323  -6.7723846  1.1706848
1493846441392 -2.0680695  -6.7151337  0.3178711
1493846441392 -2.5108185  -6.307251 0.40283203
1493846441392 -2.5905151  -5.135788 1.3170319
1493846441392 -3.481369 -3.612915 2.6064606
1493846441392 -4.046097 -2.5371094  3.0648346
1493846441392 -3.4612122  -2.8686523  2.3483887
1493846441392 -2.2868347  -5.304199 0.932724
1493846441392 0.19068909  -10.723938  -3.7123566
1493846441392 3.4950562 -17.388687  -12.969391
1493846441392 8.04837 -19.474823  -18.713501
1493846441392 6.552292  -15.499695  -10.153885
1493846441392 1.9074402 -9.098923 -2.982956
1493846441392 -2.0237732  -5.920929 2.1832886
1493846441392 -5.1688385  -10.510574  2.2885742
1493846441392 -2.3233643  -14.561264  -1.4632874
1493846441392 2.856903  -13.039673  -3.014145
1493846441392 0.5654907 -9.821747 -4.5809937
1493846441392 -4.9555206  -5.293762 4.664566
1493846441392 -7.9990234  -4.437195 6.4294586
1493846441392 -5.8736877  -8.672302 2.6657104
1493846441393 0.97354126  -11.566299  1.1524963
1493846441393 6.6265106 -11.889801  2.5034637
1493846441393 8.53157 -11.788528  1.822586
1493846441393 4.7582397 -9.869049 0.7642822
1493846441393 -5.950928E-4  -8.909393 1.152359
1493846441393 -2.977707 -8.337433 1.2779694
1493846441393 -3.4688416  -9.237442 1.1947937
1493846441393 -1.3339081  -10.228241  0.4359436
1493846441393 -0.033477783  -10.048859  -0.54048157
1493846441393 -0.12200928 -9.03006  -0.21032715
1493846441393 0.10028076  -8.701309 0.3509369
1493846441393 0.25306702  -9.045242 1.0646057
1493846441393 0.6388397 -9.2341 3.3131256
1493846441393 0.96969604  -9.7229 4.678131
1493846441393 0.82940674  -10.609863  2.2590485
1493846441393 0.32202148  -10.413086  -1.2210236
1493846441393 -0.26716614 -10.443787  -3.3010101
1493846441393 -0.36686707 -10.822525  -1.6160736
1493846441393 -0.31996155 -11.299438  1.1973724
1493846441393 -0.37608337 -11.576752  0.6452179
1493846441393 0.15708923  -11.331116  -0.74209595
1493846441393 0.46765137  -11.220764  -0.87231445
1493846441393 0.9614258 -11.997742  -0.16850281
1493846441393 2.3067322 -13.182327  0.45793152
1493846441393 2.672943  -13.047592  -0.88583374
1493846441393 0.4729309 -12.840881  -3.5540771
1493846441394 -2.7123718  -13.125519  -4.23024
1493846441394 -5.1933136  -11.804642  -0.46281433
1493846441394 -5.8578186  -10.579422  2.4519196
1493846441394 -5.3149567  -10.377396  3.5220032
1493846441394 -3.6669922  -10.41687 4.22348
1493846441394 -1.7214203  -11.151123  3.1795197
1493846441394 0.105041504 -11.99794 1.8642273
1493846441394 0.6777344 -11.714386  1.0038147
1493846441394 1.3401337 -10.434326  0.6591034
1493846441394 2.033081  -9.305328 0.65063477
1493846441394 0.9580536 -8.535477 1.2495575
1493846441394 -0.7011719  -7.923935 1.300827
1493846441394 -1.4066162  -7.9943542  0.14787292
1493846441394 -1.6658325  -8.557236 -0.44371033
1493846441394 -1.4356995  -7.9499817  0.08216858
1493846441394 -1.041565 -6.5149536  1.1014099
1493846441394 -1.2198029  -5.2908325  1.9159851
1493846441394 -1.1679382  -5.1492157  1.3118744
1493846441394 -0.3965149  -6.777466 -1.3920593
1493846441394 0.48937988  -9.459702 -3.9957733
1493846441394 1.5432281 -11.455963  -5.6011963
1493846441394 1.0505829 -13.100906  -7.6598816
1493846441394 0.19377136  -13.233185  -6.5142975
1493846441394 -1.0726166  -10.407852  -2.3638763
1493846441394 -2.1394653  -8.116623 -1.1851807
1493846441394 -2.4494476  -8.223404 0.59020996
1493846441394 -4.7405853  -7.856262 2.9865112
1493846441394 -5.489319 -8.167816 4.4977875
1493846441394 -3.552719 -8.207336 4.8615875
1493846441394 -0.5045929  -9.096176 3.8611908
1493846441394 1.6465149 -11.866837  -2.1049805
1493846441394 3.276245  -13.377014  -0.9033966
1493846441394 4.0332794 -13.610199  1.423584
1493846441394 1.9007263 -13.555954  2.5784607
1493846441394 -0.4572296  -9.521347 1.4790802
1493846441394 -1.2355347  -7.80719  0.99624634
1493846441394 -1.6808167  -8.387054 2.4501648
1493846441394 -1.4671783  -9.395309 3.4751282
1493846441394 -1.0075989  -9.745163 1.6727142
1493846441394 -1.3660736  -10.499283  -1.3233795
1493846441394 -0.53707886 -11.721542  -3.1223602
1493846441395 0.9776001 -11.025253  -1.2483826
1493846441395 1.7975006 -9.548569 0.88020325
1493846441395 0.18508911  -9.347839 1.7875366
1493846441395 -1.3291473  -9.75206  1.6522369
1493846441395 -1.0263367  -9.842789 2.0200348
1493846441395 0.10258484  -9.93988  2.2499695
1493846441395 0.98132324  -9.552689 2.520996
1493846441395 0.5978546 -8.945892 3.0482788
1493846441395 -0.41378784 -9.455322 1.0483093
1493846441395 -0.17730713 -10.023621  1.0983582
1493846441395 -0.26834106 -10.2314  1.3531036
1493846441395 -0.33709717 -10.079498  1.5050354
1493846441395 -1.0336304  -10.004288  1.3299866
1493846441395 -1.0561371  -9.884308 1.3615417
1493846441395 -0.2303772  -9.903915 1.5231323
1493846441395 0.3667755 -9.585068 2.085968
1493846441395 -0.6383667  -9.721161 2.4703217
1493846441395 -1.1688995  -9.924835 2.2183075
1493846441395 -0.6750641  -9.337067 2.0435333
1493846441395 -0.16178894 -9.703201 1.3658142
1493846441395 0.6782532 -10.108612  1.1619568
1493846441395 0.5126343 -10.187668  0.8546295
1493846441395 -0.39164734 -10.327316  0.044448853
1493846441395 -0.77285767 -10.745285  -0.4593811
1493846441395 -0.54862976 -11.370575  -0.870697
1493846441395 -0.46279907 -11.785934  -1.1889191
1493846441395 -1.0540619  -11.702179  -1.9417877
1493846441395 -1.6010895  -11.612274  -2.7315826
1493846441395 -1.6937256  -11.38118 -2.6116943
1493846441395 -1.489151 -11.097214  -1.8741455
1493846441395 -1.1217499  -10.831665  -0.44441223
1493846441395 -0.30433655 -10.778259  1.423996
1493846441395 0.7791443 -10.254425  1.417511
1493846441395 2.3487854 -9.2872925  1.2727966
1493846441395 5.222 -8.364685 2.9429169
1493846441395 5.61998 -8.900925 3.245514
1493846441395 2.1990051 -10.551895  1.1047211
1493846441395 -0.42417908 -11.264603  -2.004013
1493846441395 -1.0601501  -11.302551  -3.1568604
1493846441395 -0.6289673  -10.076614  -1.5390778
1493846441395 -0.4192047  -8.893097 -0.944397
1493846441395 -1.450058 -8.978531 -0.8061218
1493846441395 -1.5645142  -8.959763 0.06097412
1493846441396 -0.8751526  -8.854797 0.24984741
1493846441396 -0.7428131  -8.913544 0.12734985
1493846441396 -0.5006256  -8.693497 -0.4183197
1493846441396 -0.6239319  -8.171082 -1.0588226
1493846441396 -0.9515381  -7.4589996  -1.4904327
1493846441396 -1.306427 -7.2187347  -1.6475525
1493846441396 -1.3239746  -7.8112335  -2.0197754
1493846441396 -0.93959045 -8.88797  -2.372406
1493846441396 0.07130432  -9.450867 -3.464447
1493846441396 1.1167603 -9.248993 -3.904419
1493846441396 1.4515839 -9.544434 -3.5455322
1493846441396 1.8285217 -10.140152  -3.8092651
1493846441396 2.4594574 -11.119583  -6.041931
1493846441396 2.429718  -10.825073  -6.0756073
1493846441396 0.9275818 -9.470398 -3.9327698
1493846441396 -1.015091 -9.177734 -1.6522827
1493846441396 -2.744339 -12.557587  0.30867004
1493846441396 -3.1167297  -13.632217  1.3046722
1493846441396 -3.187439 -12.52948 -3.4358368
1493846441396 -2.2580109  -12.482239  -9.158615
1493846441396 0.8582306 -8.625366 -0.9888611
1493846441396 1.041687  -3.94281  10.400406
1493846441396 -1.1703796  -4.022232 5.5294647
1493846441396 -0.16899109 -8.891037 -2.543213
1493846441396 2.8822327 -12.241348  2.0879822
1493846441396 2.635788  -12.1719055 2.940689
1493846441396 1.2913971 -10.456192  1.2846375
1493846441396 -0.16711426 -9.731781 1.3339081
1493846441397 -1.7804413  -9.714203 1.8209686
1493846441397 -1.7179718  -10.531265  1.4284058
1493846441397 -1.462143 -10.554749  1.0598602
1493846441397 -1.4941254  -10.426514  0.77801514
1493846441397 -1.6122894  -10.25029 0.055160522
1493846441397 -0.9831085  -9.365906 0.21321106
1493846441397 -0.031280518  -8.811005 1.0987244
1493846441397 0.42541504  -8.776993 1.919281
1493846441397 0.60409546  -8.350494 3.3907776
1493846441397 -0.2783203  -8.106903 3.8866882
1493846441397 -1.4912872  -8.355881 2.7271729
1493846441397 -1.9735718  -8.734756 1.9561157
1493846441397 -2.3102875  -9.018097 1.0637207
1493846441397 -2.2009125  -9.350113 0.31828308
1493846441397 -1.0497131  -10.127533  -0.24464417
1493846441397 0.44831848  -11.237991  -0.8486481
1493846441397 1.1543427 -11.667999  -1.3426361
1493846441397 1.3250122 -11.840576  -1.9257813
1493846441397 1.8635712 -12.393311  -2.341217
1493846441397 2.6374817 -13.539551  -3.1527557
1493846441397 3.0755157 -14.452316  -3.2166748
1493846441397 2.8330383 -14.387009  -3.4663544
1493846441397 0.8397217 -13.864716  -2.9740143
1493846441397 -1.3679199  -13.801178  -0.8471222
1493846441397 -1.7860565  -12.210892  2.5249176
1493846441397 -2.1951752  -12.499435  5.5644684
1493846441397 -3.219513 -14.378113  7.1911316
1493846441397 -1.7881775  -14.710159  7.2022552
1493846441397 1.1536407 -13.137344  2.1031342
1493846441397 4.8237762 -11.50116 -1.7823639
1493846441397 4.8445435 -11.198532  -1.061554
1493846441397 4.0941925 -10.623337  0.33006287
1493846441397 2.1148071 -9.547745 2.4204865
1493846441397 -1.6329803  -7.3945007  3.3412628
1493846441397 -4.4278717  -5.4037323  3.1430817
1493846441397 -5.284027 -4.9489136  3.2210693
1493846441397 -4.2771454  -5.107437 2.3266754
1493846441397 -4.0221252  -4.560089 2.3545227
1493846441397 -5.0150757  -3.477356 2.3010101
1493846441397 -4.850601 -2.0551605  3.015213
1493846441397 -3.8224487  -3.2216034  2.3748627
1493846441397 -0.7451477  -6.492111 0.20031738
1493846441398 1.1125793 -11.965576  -5.599121
1493846441398 1.3658905 -17.818512  -15.16806
1493846441398 8.676819  -19.238785  -17.978226
1493846441398 9.848282  -16.146286  -5.6661835
1493846441398 2.8429718 -6.7591248  -1.4263153
1493846441398 -0.2718506  -4.2895966  1.8731232
1493846441398 -3.2905884  -10.930603  -1.9911499
1493846441398 -1.9518433  -17.10228 -5.6465607
1493846441398 1.169693  -15.489502  -3.5391846
1493846441398 -1.0576477  -7.2625427  3.3894806
1493846441398 -7.5980225  -0.5981598  8.033966
1493846441398 -10.5685425 -3.831665 6.356415
1493846441398 -4.729645 -11.227478  4.33049
1493846441398 1.4918823 -13.200455  3.6740112
1493846441398 5.828659  -13.138763  2.4563446
1493846441398 7.595642  -12.175232  1.9686279
1493846441398 4.3828278 -11.056564  0.86180115
1493846441398 0.53256226  -9.834518 1.4042664
1493846441398 -2.5051117  -9.540344 1.5813446
1493846441398 -3.53508  -9.471863 1.177414
1493846441398 -3.307129 -9.457993 0.4012909
1493846441398 -2.839676 -9.127228 -0.5718384
1493846441398 -1.87677  -8.556778 -0.25683594
1493846441398 -0.50816345 -8.291702 0.4048462
1493846441398 0.37670898  -8.291855 1.72435
1493846441398 0.5991974 -8.557587 2.8719177
1493846441398 0.70687866  -9.0269165  2.9363403
1493846441398 0.9206543 -9.397751 2.0922852
1493846441398 0.89320374  -9.68718  0.3249359
1493846441398 1.1139221 -10.172867  -1.3062134
1493846441398 1.2910461 -11.021515  -1.7151947
1493846441398 0.93434143  -11.8116455 -1.4382477
1493846441398 1.2967377 -12.307495  -0.92048645
1493846441398 1.1801605 -12.011551  -0.5682068
1493846441398 -0.5079651  -11.96788 -2.616745
1493846441398 -1.5167847  -12.365128  -4.2022247
1493846441398 1.79393 -13.721298  -3.8044891
1493846441398 4.271469  -14.744141  -1.9344635
1493846441398 1.6728516 -14.229752  -3.3926544
1493846441398 -3.1230164  -12.808289  -3.714676
1493846441398 -4.634445 -11.890945  0.6709442
1493846441398 -3.973877 -13.794083  6.325485
1493846441398 -3.3937073  -15.416229  6.5407104
1493846441399 -3.8842163  -15.435364  6.1557007
1493846441399 -1.8413086  -14.438049  1.2961426
1493846441399 1.47435 -11.562393  -2.608368
1493846441399 5.397461  -10.066452  -1.3450928
1493846441399 2.8350525 -9.530273 0.83750916
1493846441399 0.14680481  -8.833084 1.8206482
1493846441399 -1.4602966  -7.0883636  2.638443
1493846441399 -2.688858 -5.2330933  2.9078064
1493846441399 -3.0568848  -3.689743 2.6068878
1493846441399 -3.1867828  -3.147049 2.3384552
1493846441399 -2.7675323  -3.5916595  1.6299591
1493846441399 -2.8863983  -3.0045776  2.8111572
1493846441399 -3.1875 -1.2993927  3.7359009
1493846441399 -2.411316 -1.6890717  3.3635712
1493846441399 -1.1818695  -4.2417755  1.8482666
1493846441399 1.4155884 -10.495071  -4.4138947
1493846441399 1.7890778 -19.2518  -18.171951
1493846441399 6.3377686 -19.474823  -17.348862
1493846441399 7.6018524 -17.191803  -4.5325165
1493846441399 1.0398865 -5.7970276  -1.7593231
1493846441399 -3.9107513  -4.501953 4.1792755
1493846441399 -3.5875854  -12.856522  0.5874481
1493846441399 -0.83673096 -15.338043  -4.6786346
1493846441399 -0.4337921  -10.645065  -3.1412964
1493846441399 -2.5689545  -4.249237 9.452728
1493846441399 -9.455124 -4.7034454  7.693466
1493846441399 -7.02771  -9.014191 4.353409
1493846441399 0.65919495  -11.272705  5.526596
1493846441399 5.006775  -12.317444  3.1239624
1493846441399 7.1171265 -12.985214  1.6460419
1493846441399 3.949295  -12.448486  0.2946167
1493846441399 0.14785767  -9.590424 0.8042145
1493846441399 -2.6302032  -8.5035095  1.6039581
1493846441399 -3.107071 -8.867279 0.503479
1493846441399 -1.7596893  -9.363205 -0.093551636
1493846441399 -0.81188965 -9.134216 -0.4994049
1493846441399 -0.6075287  -8.595123 -0.26005554
1493846441399 -0.2885437  -8.261963 0.8265228
1493846441399 0.23468018  -8.174789 1.8030548
1493846441399 0.9295654 -8.57692  2.2026062
1493846441399 1.3218536 -9.240524 2.1905365
1493846441399 1.0663147 -9.704956 0.97080994
1493846441400 0.99694824  -9.8381195  -0.9978485
1493846441400 1.01297 -10.549484  -1.5043945
1493846441400 0.2611084 -11.460037  -0.66656494
1493846441400 -0.49217224 -11.733856  -0.58078
1493846441400 -0.122299194  -11.880539  -0.8558655
1493846441400 0.09971619  -12.03302 -1.1898956
1493846441400 -0.6191101  -12.757782  -2.063324
1493846441400 1.5278778 -14.354492  -2.2165833
1493846441400 4.6215973 -14.375549  -1.7238464
1493846441400 3.0707855 -14.497604  -3.3140259
1493846441400 -1.9961853  -14.324234  -4.667923
1493846441400 -4.4668274  -13.095322  -0.11164856
1493846441400 -4.5529633  -12.635132  3.912323
1493846441400 -3.9082794  -13.396362  7.185272
1493846441400 -4.2857056  -13.563644  5.87088
1493846441400 -2.9104004  -14.274231  2.5848846
1493846441400 0.2988739 -13.072372  -1.3830719
1493846441400 5.9227905 -10.467285  -1.4797974
1493846441400 4.1589355 -9.857712 0.66574097
1493846441400 1.3913879 -9.077988 1.5107117
1493846441400 -0.007888794  -7.6491547  2.418808
1493846441400 -1.4163666  -5.717804 2.6700287
1493846441400 -2.8863525  -4.3005524  2.1865387
1493846441400 -3.3138275  -3.2634735  1.7938538
1493846441400 -3.3104095  -4.0581665  1.4464417
1493846441400 -2.640625 -3.667633 2.3654938
1493846441400 -3.210373 -2.4342194  3.3127136
1493846441400 -2.7625122  -1.9449615  3.637329
1493846441400 -1.4255829  -3.457489 2.2456207
1493846441400 0.47964478  -7.3282623  -0.6594238
1493846441400 1.9026947 -14.268356  -9.005386
1493846441400 3.1456604 -19.474823  -19.722397
1493846441400 11.430862 -18.641983  -17.157928
1493846441400 5.5711975 -12.798096  -3.43602
1493846441400 0.4513092 -4.9026794  0.37898254
1493846441400 -1.9307861  -4.0623016  1.291153
1493846441400 -3.1713715  -11.166885  -0.9011383
1493846441400 -0.15631104 -14.606628  0.9637451
1493846441400 -0.6525116  -12.318573  -3.540451
1493846441400 -5.0793457  -7.358261 0.017150879
1493846441400 -8.582703 -3.8768005  9.714508
1493846441400 -7.197464 -7.3651886  5.630234
1493846441400 -0.08294678 -10.519394  3.7259521
1493846441401 4.245636  -11.564056  4.380493
1493846441401 7.5843506 -12.750473  2.5478668
1493846441401 5.979065  -12.709305  0.8434601
1493846441401 1.4262238 -10.185394  -0.022109985
1493846441401 -1.8281097  -8.713806 1.6046753
1493846441401 -3.3404388  -8.987061 0.96806335
1493846441401 -2.8083801  -9.384781 0.4645996
1493846441401 -2.0558014  -9.227463 -0.04562378
1493846441401 -1.4229431  -8.597107 -0.39265442
1493846441401 -0.31001282 -7.931534 0.65068054
1493846441401 0.7174988 -7.7953796  1.8554993
1493846441401 1.3005066 -8.354263 2.8096008
1493846441401 0.9816284 -9.315964 2.6948242
1493846441401 0.22749329  -9.917572 0.5704193
1493846441401 0.4647827 -10.099823  -1.7892456
1493846441401 1.2595367 -10.697205  -1.9811859
1493846441401 0.71595764  -11.374924  -0.26792908
1493846441401 -0.6345978  -11.909988  -0.25320435
1493846441401 -0.20927429 -12.184601  -0.99212646
1493846441401 0.86927795  -12.204849  -0.9315033
1493846441401 0.1699524 -12.599136  -2.1806793
1493846441401 1.9674683 -14.484222  -3.4710846
1493846441401 5.2202454 -15.002289  -1.3627014
1493846441401 3.2715607 -15.292648  -2.7852173
1493846441401 -2.5861664  -13.934479  -4.279846
1493846441401 -5.4730835  -12.629929  -0.8568878
1493846441401 -4.859146 -12.106552  6.077896
1493846441401 -4.335129 -14.123978  7.6795197
1493846441401 -4.5404663  -15.11116 4.643875
1493846441401 -4.3932495  -15.979843  -0.41252136
1493846441401 -1.350357 -12.726135  -2.031372
1493846441401 5.0971527 -9.932587 -0.06480408
1493846441401 4.712677  -9.457291 2.2861633
1493846441401 1.4842529 -8.41835  1.7194061
1493846441401 -1.224289 -6.79982  2.5407104
1493846441401 -2.4988708  -4.917557 3.2748413
1493846441401 -3.5121765  -3.6235046  3.5043488
1493846441401 -3.1578064  -3.0247803  3.0408325
1493846441401 -2.744339 -3.63945  2.3226624
1493846441401 -1.909668 -2.547348 2.8771973
1493846441401 -2.2474518  -0.97436523 3.0010223
1493846441401 -1.364975 -1.7600098  2.526596
1493846441401 -0.40330505 -5.0663147  0.15461731
1493846441402 0.30134583  -11.787079  -8.026169
1493846441402 0.32121277  -19.474823  -19.722397
1493846441402 8.332642  -18.922592  -17.257233
1493846441402 6.1080933 -13.763947  -3.2536316
1493846441402 0.94499207  -3.4505615  1.4861298
1493846441402 -1.3694916  -5.77948  3.4123383
1493846441402 0.74238586  -14.898651  -3.8629913
1493846441402 -0.10247803 -15.023392  -3.2272797
1493846441402 -6.6774445  -8.302231 -0.8530884
1493846441402 -7.980896 -2.3112488  11.9077
1493846441402 -6.7099304  -6.257126 7.731735
1493846441402 -0.76283264 -12.003433  4.9739685
1493846441402 2.7359924 -12.473587  3.4584503
1493846441402 5.8032684 -12.439972  2.5672455
1493846441402 6.1370087 -12.19783 1.9130096
1493846441402 2.5994873 -10.787277  0.655365
1493846441402 -1.4260864  -8.5336 1.9290619
1493846441402 -4.1837006  -8.931747 1.4538422
1493846441402 -3.9634247  -9.766815 0.11392212
1493846441402 -2.1036377  -9.467117 -0.2130127
1493846441402 -0.9282837  -8.216049 -0.261734
1493846441402 -0.38659668 -7.42865  0.37036133
1493846441402 -0.07337952 -7.3249207  1.1172485
1493846441402 0.5192566 -7.4463654  2.2915497
1493846441402 0.88871765  -8.597961 3.0700684
1493846441402 0.76678467  -9.819489 2.228424
1493846441402 0.3135376 -9.992828 -0.050994873
1493846441402 -0.5166168  -10.717056  -1.3840027
1493846441402 -1.0898132  -11.827133  -1.0957489
1493846441402 -0.97846985 -12.260269  -1.3258972
1493846441402 1.3989105 -12.617386  -1.8029175
1493846441402 4.226166  -12.867783  -0.6982727
1493846441402 3.541031  -13.793488  -1.2826385
1493846441402 3.396347  -15.406342  -2.4456635
1493846441402 4.863449  -14.528 -2.0329437
1493846441402 2.136551  -14.4831085 -3.0516968
1493846441402 -2.6534576  -14.024445  -4.4615173
1493846441402 -6.2223053  -12.968521  -1.1123505
1493846441402 -6.329117 -12.074829  7.001129
1493846441402 -5.766693 -13.717194  7.1868286
1493846441402 -3.2935944  -14.846024  2.8627472
1493846441402 -2.5570679  -15.138229  -0.47711182
1493846441403 -1.4979706  -13.182266  -1.6030731
1493846441403 3.6755219 -10.144043  0.9068451
1493846441403 4.080078  -9.8307495  2.7285461
1493846441403 1.8083496 -9.034622 1.0225525
1493846441403 -0.5561371  -7.4823 2.1156464
1493846441403 -2.1210938  -5.4916534  3.7443848
1493846441403 -3.2875671  -4.1210327  3.432724
1493846441403 -3.4462433  -3.0614166  2.9577026
1493846441403 -3.1347656  -3.9855194  1.9281616
1493846441403 -1.9741516  -3.1408997  2.6603699
1493846441403 -2.5939941  -1.1097717  3.5091095
1493846441403 -2.6070404  -0.9363556  3.4988403
1493846441403 -1.5473633  -3.0639038  2.3621826
1493846441403 -0.025238037  -8.080978 -3.428711
1493846441403 0.7609863 -16.182983  -16.321762
1493846441403 5.905533  -19.474823  -18.136856
1493846441403 10.45311  -17.932693  -7.3704224
1493846441403 2.3004456 -8.403198 -3.5172424
1493846441403 -1.3871002  -5.1443024  3.0212555
1493846441403 -1.3369598  -13.814056  0.47807312
1493846441403 -3.9221344  -14.271088  -3.2275543
1493846441403 -9.250687 -5.457489 0.07484436
1493846441403 -6.376419 -0.5206604  11.7842865
1493846441403 -3.517929 -6.6589813  7.5832825
1493846441403 3.1330109 -13.3667755 4.408737
1493846441403 3.9273224 -13.785492  1.5486755
1493846441403 3.1972656 -11.589371  0.84202576
1493846441403 2.8619995 -9.71843  1.1060486
1493846441403 0.94996643  -9.178345 1.1431427
1493846441403 -0.30158997 -8.86348  1.2288055
1493846441403 -1.0296936  -9.267273 0.86883545
1493846441403 -1.6670074  -9.588348 0.114852905
1493846441403 -1.7700806  -9.054337 -0.4649048
1493846441403 -1.8847504  -8.219147 -0.08229065
1493846441403 -1.9120026  -8.1080475  0.5879364
1493846441403 -1.4290619  -8.419174 1.862915
1493846441403 -0.035354614  -8.624313 2.9865265
1493846441403 1.5437622 -9.424988 2.6448517
1493846441403 1.9155273 -10.170944  0.55314636
1493846441403 1.5499115 -10.757019  -2.237915
1493846441403 0.7568054 -11.7612915 -1.2011108
1493846441403 -1.3054352  -11.943588  -0.12197876
1493846441403 -1.2066498  -11.765503  -1.6822968
1493846441404 2.3951416 -12.337143  -1.4608765
1493846441404 3.1407166 -12.940186  -0.48771667
1493846441404 0.6034546 -13.774368  -2.147812
1493846441404 3.0156555 -14.388519  -2.4491272
1493846441404 4.9078217 -14.304001  -2.7807617
1493846441404 0.38293457  -14.778229  -6.0076904
1493846441404 -5.4342804  -14.235779  -3.9746704
1493846441404 -6.8904266  -13.2074585 3.8437042
1493846441404 -5.5700836  -13.838623  9.54895
1493846441404 -6.061554 -14.063721  6.216873
1493846441404 -5.0625153  -15.219391  0.018966675
1493846441404 -0.9496765  -14.209991  -1.5281525
1493846441404 3.630661  -10.649826  -0.40548706
1493846441404 4.4081573 -8.956451 1.7544861
1493846441404 1.2109985 -8.290909 1.9644928
1493846441404 -0.9470825  -6.967682 2.1271667
1493846441404 -1.2324371  -5.2550354  2.695877
1493846441404 -2.4008636  -4.214981 2.5924072
1493846441404 -2.5870514  -3.2349854  2.5200958
1493846441404 -2.3483582  -3.0247192  2.021637
1493846441404 -1.8339539  -3.2255707  2.2722168
1493846441404 -2.1071777  -1.3964691  3.2041168
1493846441404 -2.174652 -0.84347534 2.9844818
1493846441404 -1.2401886  -2.997879 2.0607605
1493846441404 0.19213867  -8.134979 -2.7992554
1493846441404 0.43605042  -16.893982  -16.406921
1493846441404 4.217972  -19.474823  -18.842957
1493846441404 9.170914  -18.310883  -9.550476
1493846441404 2.3064423 -7.6598663  -4.1855774
1493846441404 -0.4862213  -0.1985321  3.9323425
1493846441404 -2.5057678  -6.0510406  2.686798
1493846441404 -1.1056671  -16.538162  -1.8673706
1493846441404 0.19186401  -18.062073  -6.141968
1493846441404 -1.5274963  -9.845627 2.335205
1493846441404 -7.9617157  -1.5957642  11.3051605
1493846441404 -10.017273  -4.8664703  4.511139
1493846441404 -2.9429321  -10.872528  5.771744
1493846441404 1.8274536 -12.10704 5.0576477
1493846441404 4.6315002 -13.554184  2.9963074
1493846441404 6.017563  -13.224777  1.6946411
1493846441404 3.1428986 -11.2526245 0.09790039
1493846441405 -0.69311523 -8.230743 1.8518219
1493846441405 -2.5981598  -8.443893 1.5372925
1493846441405 -1.9080353  -8.99292  0.30325317
1493846441405 -0.7173157  -8.839172 0.5887451
1493846441405 -0.18515015 -8.593063 -0.38793945
1493846441405 0.28385925  -8.374191 -0.6863556
1493846441405 1.0076904 -8.278259 0.5827637
1493846441405 1.415329  -8.964691 1.8155823
1493846441405 1.1534424 -9.983719 2.228119
1493846441405 0.8549042 -10.052704  0.5088501
1493846441405 1.4501038 -10.262222  -1.7329254
1493846441405 1.7789917 -11.641617  -0.9577942
1493846441405 0.23747253  -12.336838  0.26945496
1493846441405 -0.2710724  -12.474442  -0.6440582
1493846441405 1.3877716 -12.496613  -0.448349
1493846441405 1.0298309 -12.796692  -1.763092
1493846441405 0.20838928  -13.899536  -4.5681305
1493846441405 3.0362701 -14.768448  -2.9777985
1493846441405 3.0330658 -14.826645  -2.8282623
1493846441405 -1.5358582  -14.423508  -4.0343933
1493846441405 -6.530594 -13.614502  -2.128006
1493846441405 -7.0661926  -13.269867  7.3054504
1493846441405 -5.4149323  -14.098007  7.9517365
1493846441405 -4.4513702  -14.123856  3.7545319
1493846441405 -4.410904 -15.041794  0.13957214
1493846441405 -2.1642914  -13.022797  -1.9955597
1493846441405 3.198883  -9.700485 -0.08325195
1493846441405 4.356201  -8.349426 3.3596954
1493846441405 1.2041626 -7.8757935  1.6355896
1493846441405 -1.1837158  -6.772415 1.7561035
1493846441405 -2.3249512  -5.6335297  2.6781769
1493846441405 -3.2000427  -4.4953156  2.570816
1493846441405 -2.6808167  -3.4863129  2.0105743
1493846441405 -2.4957275  -3.734375 1.737381
1493846441405 -1.0643463  -2.68721  2.7412262
1493846441405 -1.2178497  -1.1012878  3.1085968
1493846441405 -0.8453064  -1.1816711  2.8381653
1493846441405 -0.5458374  -3.505783 1.2996674
1493846441405 0.72210693  -8.565796 -4.685272
1493846441405 1.730133  -17.801254  -18.5298
1493846441405 6.5910797 -19.474823  -19.061432
1493846441405 7.2784576 -18.410477  -9.90538
1493846441405 1.8470764 -6.462204 -3.5780792
1493846441406 -1.9226837  1.4364777 6.195816
1493846441406 -6.732834 -9.341232 5.391266
1493846441406 -2.858429 -17.87416 0.3113556
1493846441406 -1.5923462  -16.804382  -13.398392
1493846441406 0.17918396  -3.6664581  13.70047
1493846441406 -7.108719 -2.0047302  8.451813
1493846441406 -5.7678375  -9.918579 5.20932
1493846441406 0.9572296 -13.151932  4.218506
1493846441406 3.1500092 -12.825195  3.3578186
1493846441406 4.593399  -12.085953  2.8012543
1493846441406 3.6293793 -12.162247  0.8536072
1493846441406 -0.13336182 -10.124939  0.62583923
1493846441406 -2.041916 -8.48848  1.8024292
1493846441406 -1.8253937  -8.477142 1.281601
1493846441406 -0.6001282  -8.67746  1.3022308
1493846441406 0.014022827 -8.414856 0.9289398
1493846441406 -0.020401001  -8.232986 0.026565552
1493846441406 -0.06430054 -8.430023 -0.20368958
1493846441406 0.9770355 -8.849228 0.5685425
1493846441406 2.0334015 -9.677277 1.4764252
1493846441406 1.9818573 -10.179718  0.94781494
1493846441406 1.8349915 -10.1521  -1.416748
1493846441406 2.5901947 -10.545959  -2.4170532
1493846441406 2.5415344 -11.489441  -0.6959076
1493846441406 0.52246094  -11.997437  -0.35429382
1493846441406 -0.07556152 -12.274994  -1.42276
1493846441406 1.0623474 -12.513931  -1.4539185
1493846441406 0.779953  -13.432709  -3.5934296
1493846441406 2.4228668 -15.127441  -3.8941956
1493846441406 3.8772888 -15.3064575 -2.5099182
1493846441406 -0.7485962  -15.352539  -4.423218
1493846441406 -6.8039093  -14.221344  -2.9144135
1493846441406 -8.410797 -13.205566  5.3782654
1493846441406 -6.427658 -14.342133  8.611374
1493846441406 -4.4100037  -13.966537  6.5569
1493846441406 -3.712967 -14.376312  2.6999512
1493846441406 -1.4124756  -13.769272  -0.8612976
1493846441406 2.2933044 -11.006729  -1.7073212
1493846441406 3.40979 -8.978683 1.396637
1493846441406 0.8895569 -8.925018 2.267105
1493846441406 -1.2529602  -8.198486 2.7143707
1493846441407 -1.7832794  -6.8782043  2.4476776
1493846441407 -2.2862701  -5.196045 2.4796295
1493846441407 -2.748703 -3.7553864  1.9991608
1493846441407 -2.4207458  -3.0120697  1.626831
1493846441407 -2.1074982  -2.652893 2.2326508
1493846441407 -1.6971588  -1.1429901  3.197113
1493846441407 -1.7285156  -0.22825623 3.7230682
1493846441407 -1.1532288  -2.0709534  2.9205933
1493846441407 0.6294403 -6.5454865  -0.15640259
1493846441407 1.2641602 -15.172058  -11.140915
1493846441407 3.2547607 -19.474823  -19.45816
1493846441407 11.142151 -18.974716  -10.9266205
1493846441407 3.6885376 -8.564163 -5.660019
1493846441407 -0.9180298  1.5969086 5.6870728
1493846441407 -5.618103 -5.972183 8.073654
1493846441407 -4.647156 -16.166214  0.19874573
1493846441407 -0.22070313 -15.754456  -9.501678
1493846441407 0.38183594  -9.070175 1.6223907
1493846441407 -5.1492767  -3.3853912  11.393188
1493846441407 -8.317963 -6.659836 5.171692
1493846441407 -2.190445 -11.037994  3.3126373
1493846441407 1.815033  -12.4496155 5.1658783
1493846441407 5.7267914 -13.415665  2.0608978
1493846441407 6.8678436 -12.564438  0.38905334
1493846441407 1.868576  -10.520584  -0.44360352
1493846441407 -1.2646942  -8.978546 1.4087982
1493846441407 -2.6292267  -8.260025 1.8421783
1493846441407 -2.464508 -8.19931  1.3326874
1493846441407 -1.6105804  -8.422562 0.6417694
1493846441407 -0.9289398  -8.839539 0.11152649
1493846441407 -0.6187897  -8.838516 0.2242279
1493846441407 -0.038269043  -8.312485 0.99102783
1493846441407 0.96643066  -8.737869 1.9486084
1493846441407 1.7670288 -9.614624 1.7406464
1493846441407 1.9102173 -10.067047  0.12464905
1493846441407 2.193222  -10.680038  -1.981247
1493846441407 2.1131287 -11.252701  -1.6105194
1493846441407 1.0201721 -11.704163  -1.4374084
1493846441407 1.2700653 -12.509903  -1.8976593
1493846441407 2.3447876 -13.163513  -1.957367
1493846441407 1.629837  -14.132736  -3.9134674
1493846441407 2.7142181 -15.199387  -4.168289
1493846441407 3.9970398 -15.137711  -2.3664093
1493846441408 -1.1765747  -15.043213  -4.263199
1493846441408 -6.6290436  -14.291702  -1.796524
1493846441408 -6.9626465  -13.636398  4.7936096
1493846441408 -5.006546 -13.624115  8.431473
1493846441408 -4.0534363  -13.218979  5.456253
1493846441408 -2.9841309  -14.223694  -0.11842346
1493846441408 -0.80747986 -13.860489  -2.0490723
1493846441408 3.115921  -11.093948  -0.6016388
1493846441408 3.1904602 -9.872284 1.5987091
1493846441408 1.2606049 -8.717133 1.7500916
1493846441408 -0.969635 -7.126053 1.7390289
1493846441408 -2.096466 -5.0766907  2.273941
1493846441408 -2.7136993  -3.9797363  2.2214355
1493846441408 -2.6961823  -3.1904602  2.3553467
1493846441408 -2.4433136  -3.4814758  2.4476318
1493846441408 -1.82901  -2.8015747  3.0099182
1493846441408 -2.4205322  -0.88635254 3.700241
1493846441408 -2.2788696  -0.5859833  3.7536163
1493846441408 -1.4155731  -3.2706146  2.474472
1493846441408 0.9016876 -9.214371 -3.0124817
1493846441408 0.5492401 -19.182571  -18.846222
1493846441408 6.880707  -19.474823  -19.717377
