accelerometer_timestamp	accelerometer_x_data	accelerometer_y_data	accelerometer_z_data
1493777320813	-1.5510864	3.4648438	7.6131744
1493777320832	-1.5322113	3.813034	8.248856
1493777320851	-1.7168121	3.6819	8.969086
1493777320871	-1.7741547	3.842392	9.067459
1493777320891	-1.7063751	3.6614685	8.725403
1493777320911	-1.4889069	3.760254	8.818573
1493777320930	-1.4646301	3.8252563	9.268677
1493777320950	-1.5673523	3.7306213	9.187027
1493777320970	-1.592041	3.6874084	9.174454
1493777320991	-1.5053711	3.6485748	9.281113
1493777321010	-1.2442474	3.7796936	9.360992
1493777321029	-1.4625397	3.8215485	9.446487
1493777321049	-1.9085388	3.7569122	9.29686
1493777321069	-1.914505	3.7258453	8.836121
1493777321089	-1.6871948	3.7048187	8.382126
1493777321108	-1.6455078	3.7815857	8.0681305
1493777321128	-1.4010162	3.722931	8.410339
1493777321148	-1.3313141	3.5502625	8.963654
1493777321168	-1.4439697	3.2052765	9.252686
1493777321188	-1.7283783	3.1436768	8.903717
1493777321207	-1.4449463	3.4542542	8.570923
1493777321227	-1.2654877	3.3614655	8.545197
1493777321247	-1.528595	3.1881714	8.320587
1493777321267	-1.1919556	3.2521057	9.130981
1493777321286	-1.2572021	3.1560516	9.86969
1493777321306	-1.5832672	3.0898895	9.625092
1493777321326	-1.9722748	3.0971985	8.856628
1493777321346	-2.0276337	3.057434	8.791733
1493777321366	-1.9116364	3.0553284	8.99408
1493777321385	-1.8214264	2.9033356	9.334305
1493777321405	-1.9742126	2.9662018	9.57608
1493777321425	-2.2684326	2.9750671	9.158493
1493777321445	-2.2933044	2.8055725	8.931519
1493777321465	-2.335266	2.7569885	8.774109
1493777321484	-2.1978912	2.7483826	9.03093
1493777321504	-1.8902588	2.8406067	9.521652
1493777321524	-1.7537994	3.1703033	9.927414
1493777321544	-2.082779	2.772766	9.802185
1493777321563	-1.6931305	2.1153412	9.900665
1493777321583	0.4359131	2.1971893	10.620819
1493777321603	-0.56925964	2.5635223	9.575714
1493777321623	-1.0115356	3.673355	8.78952
1493777321642	-0.5727234	2.788803	8.515991
1493777321662	0.46954346	2.9383545	9.82402
1493777321682	0.8574524	3.5703278	10.314804
1493777321702	1.562973	2.9063263	8.810165
1493777321722	1.0211945	3.1330872	7.5528564
1493777321742	-1.1049347	4.3869476	7.141266
1493777321765	-0.32954407	2.5082092	10.374603
1493777321781	1.4096375	2.722412	6.8460693
1493777321801	3.985672	2.4526978	8.679642
1493777321821	2.4020844	0.7328949	8.98349
1493777321840	7.1133423	0.2570343	6.4451904
1493777321880	3.8757782	0.7887268	8.261353
1493777321899	2.2638702	2.102356	8.3320465
1493777321919	4.2970734	3.5674133	8.386444
1493777321939	5.273758	-2.4706268	5.090393
1493777321959	5.2453003	1.828186	9.467194
1493777321979	2.673706	1.6762238	9.290848
1493777321998	0.9409332	0.9586029	9.68808
1493777322018	3.2522736	0.87623596	11.883911
1493777322038	5.468811	-1.1583557	9.447342
1493777322058	2.0697784	-0.7091217	6.500473
1493777322078	2.949234	-1.3113251	4.0590363
1493777322098	2.022873	-1.8930359	1.7232513
1493777322117	2.3157806	-0.686615	11.573517
1493777322137	1.8380737	-1.4341278	2.8151245
1493777322157	3.26091	-0.44448853	3.152893
1493777322177	3.8246002	-0.37965393	-0.22602844
1493777322196	3.3185577	-2.7266083	0.23144531
1493777322216	2.885727	-5.658661	4.1155853
1493777322236	4.0283966	-6.8250732	7.9941254
1493777322256	6.7160797	-8.033493	8.2556305
1493777322275	15.10498	-5.6017303	8.795853
1493777322295	19.461044	-3.643982	8.0872345
1493777322315	19.461044	-2.7324219	5.961426
1493777322334	19.165024	-3.51268	2.7869415
1493777322354	19.010788	-2.4593964	-3.5736237
1493777322374	18.119308	-1.3721619	-13.877579
1493777322394	13.832596	-3.263733	-10.7202
1493777322414	10.58786	-3.4011688	-4.439682
1493777322433	8.945847	-2.971161	-4.9883423
1493777322453	6.8408813	-3.8745728	-4.610565
1493777322473	7.1062775	-5.110916	-4.0100403
1493777322493	7.4478607	-5.773102	-0.80345154
1493777322514	8.045105	-6.2460175	1.0502167
1493777322533	8.372635	-5.9492645	-1.2498169
1493777322552	8.316116	-4.9662476	-2.1974335
1493777322572	6.343994	-5.421173	-1.5723724
1493777322592	5.95607	-5.2175293	0.37927246
1493777322611	7.442993	-4.476486	-2.9790497
1493777322631	7.8100433	-3.9141083	-2.639862
1493777322652	7.275238	-3.8506927	-1.47789
1493777322671	6.2118225	-4.223404	-0.5809784
1493777322691	6.492737	-3.3732605	-0.5709076
1493777322710	7.098709	-3.2783203	0.4202118
1493777322730	9.666946	-0.62083435	-0.16955566
1493777322750	6.51799	-0.77272034	-0.16938782
1493777322770	3.8053894	-3.7043304	0.4723053
1493777322789	2.8118134	-3.551239	2.105896
1493777322809	1.6284332	-5.908676	3.033554
1493777322829	1.9602661	-6.1436005	-2.212799
1493777322849	9.861176	-7.360901	0.29379272
1493777322869	8.356155	-6.3582306	-2.0347748
1493777322888	6.257889	-8.19603	0.06712341
1493777322908	6.952011	-2.610733	-6.3956146
1493777322928	10.904602	-4.1511993	3.6302338
1493777322968	3.942627	-7.1191406	0.9128418
1493777322987	11.117813	-11.993454	1.2130737
1493777323007	6.673538	-19.458755	3.474228
1493777323027	7.909668	-18.413025	-0.7907257
1493777323046	8.782639	-8.149612	0.9528961
1493777323066	9.440796	-9.213226	-0.37075806
1493777323086	8.282394	-11.851257	-1.1248169
1493777323106	5.177185	-12.313599	1.9074402
1493777323126	3.0517426	-12.506271	1.2845459
1493777323146	1.9308777	-11.898315	1.7193146
1493777323165	0.7089386	-12.120865	-0.12501526
1493777323185	-0.15631104	-9.110413	0.024276733
1493777323205	-4.5529785	1.4432831	-3.8265533
1493777323224	3.2751923	-5.116989	-5.822815
1493777323244	2.4939575	0.94407654	-7.68161
1493777323264	-1.2099304	-5.2566223	-3.1454468
1493777323284	3.1759644	-8.29953	-0.35009766
1493777323303	6.677582	-2.2496796	-3.3426208
1493777323323	0.9295044	-13.870789	6.7812347
1493777323343	1.3887024	-13.738403	4.8444366
1493777323363	2.5812988	-5.138672	0.909729
1493777323383	-2.7386627	-6.754074	-0.051376343
1493777323403	-1.3560181	-5.5437164	-0.73960876
1493777323422	-1.2083588	-6.2661285	-0.14051819
1493777323442	-0.54711914	-6.8291473	0.3882599
1493777323462	-0.19674683	-4.768982	-0.798172
1493777323482	0.14997864	-6.472702	-4.0532074
1493777323501	-0.5936737	-10.691345	-7.9558716
1493777323521	-3.02005	-14.054855	-10.97023
1493777323541	-1.9180603	-15.244293	-13.705246
1493777323561	-0.49105835	-14.394501	-12.614349
1493777323580	-1.4811401	-11.959869	-5.8924866
1493777323600	-4.0988007	-11.305725	-3.1490479
1493777323620	-4.60997	-12.938156	1.3450775
1493777323640	-0.26075745	-12.0699005	5.9739227
1493777323659	-2.456665	-11.163513	-2.2136536
1493777323679	-6.251999	-6.545532	1.3922424
1493777323699	-5.6139984	-2.2493591	6.9102783
1493777323719	-1.8856506	-4.4147797	6.1093903
1493777323739	4.064789	-9.765747	6.1931
1493777323758	5.771515	-7.9160156	6.1337585
1493777323778	5.630432	-4.7247467	5.5963745
1493777323798	-1.2362976	-16.0858	0.2646637
1493777323818	-4.132721	-19.440628	-0.18998718
1493777323837	-0.48013306	-12.034897	1.0148468
1493777323857	-1.8268585	-11.235977	0.9345703
1493777323877	-0.82788086	-10.510605	-0.53123474
1493777323897	-1.6934967	-8.878876	0.35968018
1493777323917	-0.60246277	-6.407379	-0.18585205
1493777323936	0.01638794	-5.979416	0.7026062
1493777323956	0.7281494	-7.5558777	0.7150879
1493777323977	1.1241608	-9.388092	1.5996094
1493777323996	0.33737183	-9.164505	1.2546387
1493777324784	-0.07518005	-9.584763	0.15116882
1493777324784	0.18780518	-9.903793	-1.2735443
1493777324784	-0.85723877	-10.509171	-1.4283905
1493777324784	-1.9848633	-10.503067	-0.34443665
1493777324784	-0.45396423	-11.660843	0.8202362
1493777324784	0.947464	-12.0924225	1.0484619
1493777324784	0.15284729	-13.014038	-1.6066132
1493777324785	0.6121216	-13.147385	-3.6334229
1493777324785	4.1605377	-12.805954	-1.9002075
1493777324785	2.926239	-13.889435	-2.2752228
1493777324785	-0.10630798	-14.049133	-2.4875488
1493777324785	-5.13295	-13.5525055	-0.6130371
1493777324785	-7.10524	-12.564743	2.5924988
1493777324785	-7.493561	-14.224731	4.6418457
1493777324785	-6.959656	-15.80809	3.9696655
1493777324785	-4.573532	-16.166595	1.2125854
1493777324785	-0.1399231	-14.295502	-2.155487
1493777324785	3.0430298	-12.934021	-1.4875793
1493777324785	1.6865082	-10.75296	-0.7030792
1493777324785	-0.67666626	-7.771759	1.5170898
1493777324785	-1.2923584	-6.1120453	3.5173798
1493777324785	-2.7447968	-4.948639	3.6460266
1493777324785	-3.440155	-3.4427795	2.9268646
1493777324785	-3.2092743	-2.6818542	1.462265
1493777324785	-2.651947	-2.5243835	0.7857971
1493777324785	-2.3473206	-2.0041199	1.4672241
1493777324785	-1.5405121	-1.6474304	2.5459595
1493777324785	-0.65057373	-1.8128052	2.42659
1493777324785	-0.16932678	-2.6571045	0.7567749
1493777324785	0.24691772	-6.6367035	-3.7154083
1493777324785	-0.9360199	-14.822189	-13.533768
1493777324785	-1.5155334	-19.474823	-19.113419
1493777324785	-0.27140808	-18.745575	-14.171387
1493777324785	0.5591278	-9.351929	-4.8914795
1493777324785	-1.0988464	0.17236328	-1.0997314
1493777324785	-6.161499	-5.182892	-0.1882019
1493777324785	-5.3980865	-14.765533	4.6827087
1493777324785	0.38278198	-17.941086	-3.6503754
1493777324788	-1.22995	-11.329758	-1.8474426
1493777324808	-6.252014	-2.732483	9.357925
1493777324827	-4.9561005	-4.904129	6.2159424
1493777324847	1.6337433	-10.661728	5.309265
1493777324867	3.725418	-13.086792	5.2313232
1493777324887	2.734253	-13.58815	3.0687714
1493777324906	2.1447144	-13.25882	0.92836
1493777324926	-0.08467102	-10.642288	2.3772583
1493777324946	-3.1243744	-9.556244	-0.5910034
1493777324966	-2.110443	-9.25032	0.8608246
1493777324985	-0.5329437	-8.175888	0.9076996
1493777325005	-0.03929138	-7.1165924	0.63365173
1493777325025	0.2614441	-6.98053	0.9002991
1493777325045	0.32070923	-7.7659607	0.6781769
1493777325066	0.8157654	-8.536209	0.6035156
1493777325084	0.7210541	-8.919662	1.1082764
1493777325104	0.61320496	-9.243195	0.9627533
1493777325124	1.0904388	-9.309387	-0.318985
1493777325144	1.4981232	-9.626251	-1.8607483
1493777325183	1.3022461	-11.212479	-1.6491852
1493777325203	0.20806885	-12.351273	-0.71559143
1493777325223	0.47735596	-12.490585	-0.39872742
1493777325243	0.9718933	-12.06694	-0.9575958
1493777325262	0.21885681	-11.811447	-2.421997
1493777325282	0.1976471	-13.633774	-4.1394043
1493777325302	4.131378	-14.500931	-0.91542053
1493777325322	2.8387299	-15.3784485	-1.0656433
1493777325341	-2.1374664	-14.639008	-2.873703
1493777325361	-5.4713287	-12.665329	1.4359283
1493777325381	-6.398224	-11.50383	4.44458
1493777325401	-6.3360596	-14.42128	4.7998657
1493777325419	-3.7030945	-16.374115	3.2348022
1493777325440	-1.4268341	-16.469467	-0.7042999
1493777325460	2.389328	-14.458282	-1.8220978
1493777325480	2.540451	-13.040863	0.48381042
1493777325499	1.1957855	-10.378967	1.0281067
1493777325519	-0.87579346	-7.75206	2.9265594
1493777325539	-2.229004	-5.507309	4.1314087
1493777325559	-2.5065918	-4.340042	3.4962616
1493777325579	-2.5575867	-3.4919128	2.387619
1493777325599	-2.5107117	-3.3837128	1.7664032
1493777325621	-2.0201263	-3.2265778	1.927887
1493777325644	-2.0079956	-2.6275177	2.6544647
1493777325663	-1.553299	-2.2058105	3.3147888
1493777325683	-0.9929657	-2.0046234	2.7127075
1493777325699	-0.4597931	-3.1741028	0.14356995
1493777325722	-0.5497589	-7.81456	-5.5511627
1493777325743	-2.192154	-15.369064	-14.542618
1493777325762	-1.0925903	-19.474823	-19.434875
1493777325781	1.7891998	-16.702347	-11.631851
1493777325803	1.4004364	-6.6630707	-2.7703857
1493777325821	-3.0875244	-0.35897827	-2.755539
1493777325842	-7.547333	-8.3242035	-1.387497
1493777325861	-4.506912	-16.60112	3.0093384
1493777325881	1.176239	-15.680771	-0.8857727
1493777325901	0.3494873	-6.797104	4.884018
1493777325920	-4.868637	-2.774109	7.4827576
1493777325941	-2.4761353	-7.416107	6.389099
1493777325960	2.56958	-12.052643	4.419174
1493777325980	4.515625	-13.796585	4.0637054
1493777326000	3.628891	-13.0603485	2.574356
1493777326019	1.9640961	-12.081604	1.0108948
1493777326039	-1.671814	-9.986694	0.15756226
1493777326061	-3.2307281	-9.205658	0.40560913
1493777326078	-1.8526764	-9.368408	0.32006836
1493777326099	0.028671265	-8.831192	0.16801453
1493777326118	0.66185	-7.9417114	1.0026703
1493777326139	0.79470825	-7.739456	0.03477478
1493777326158	0.8647461	-7.979599	0.84954834
1493777326181	1.2157593	-8.166977	0.8029785
1493777326198	0.41949463	-8.764221	0.77516174
1493777326217	0.12599182	-9.070145	-0.22840881
1493777326236	0.69511414	-9.457443	-0.63087463
1493777326254	0.93966675	-10.2211	-3.8146973E-4
1493777326273	0.027679443	-11.359726	0.03868103
1493777326312	-0.5937805	-11.699158	-1.4904785
1493777326330	0.69091797	-11.8450775	-0.9598541
1493777359331	0.948761	-11.816711	-0.53227234
1493777359331	-0.8864441	-12.676163	-3.1534271
1493777359331	0.7232208	-14.311356	-4.5633087
1493777359331	3.8409882	-15.414398	-2.5697021
1493777359331	1.9588318	-15.124435	-3.326477
1493777359331	-0.75338745	-13.158646	-0.9601288
1493777359331	-3.6161957	-11.755417	1.4739685
1493777359331	-4.860855	-13.1762085	5.308182
1493777359331	-4.343094	-15.693054	3.7483978
1493777359331	-3.1539917	-16.64331	0.6046448
1493777359331	-0.2701416	-15.527145	-2.4678497
1493777359331	3.793274	-13.754852	-0.27645874
1493777359331	2.2549133	-10.937424	1.2109833
1493777359331	0.043930054	-8.656464	1.9117279
1493777359331	-1.1813202	-6.569153	3.5772705
1493777359331	-2.5453339	-5.434021	3.6683655
1493777359331	-2.6817932	-4.4879303	2.9884796
1493777359331	-2.491928	-3.8645935	2.1836395
1493777359331	-2.215332	-3.5186615	1.775528
1493777359331	-2.38591	-2.7761383	2.4371796
1493777359331	-2.5491943	-2.0704803	3.4349518
1493777359332	-2.1705017	-1.6720581	3.5109253
1493777359332	-1.816391	-2.3562317	1.8697052
1493777359332	-1.1268616	-6.024597	-1.757019
1493777359332	-1.0713501	-13.6577	-11.151199
1493777359332	-1.4005737	-19.474823	-19.235611
1493777359332	-0.8939209	-19.474823	-12.315582
1493777359332	-1.6390228	-10.71727	-4.7148438
1493777359332	-1.7988739	1.2476044	-2.6068878
1493777359332	-5.3404694	-2.1236115	-3.8626862
1493777359332	-7.1383667	-13.741425	0.959671
1493777359332	-1.2193756	-16.585388	4.0365143
1493777359332	-0.2131195	-12.113922	2.4314423
1493777359332	-3.0677338	-5.362747	5.955017
1493777359332	-2.7775269	-5.097748	6.4391785
1493777359332	1.4413605	-9.670563	5.0432434
1493777359332	4.536606	-12.525665	3.5385742
1493777359332	4.463806	-13.441864	2.9228363
1493777359332	2.5769196	-12.514084	1.38974
1493777359332	0.48947144	-11.522095	0.5021515
1493777359333	-2.8473358	-8.795441	-0.31822205
1493777359333	-4.134918	-8.447937	0.7740631
1493777359333	-2.0043945	-9.518616	0.5184326
1493777359333	-0.003921509	-9.674438	0.15045166
1493777359333	0.14425659	-8.912247	0.10549927
1493777359333	0.053268433	-8.6154175	0.010940552
1493777359333	0.5668793	-8.570038	0.70254517
1493777359333	1.4214325	-8.786285	0.99827576
1493777359333	1.6928406	-9.681015	0.7985382
1493777359333	1.5854187	-10.040955	-0.5157776
1493777359333	2.1552124	-9.589218	-1.9850922
1493777359333	2.4090118	-9.653793	-3.0018005
1493777359333	1.3863373	-10.729385	-2.0214844
1493777359333	-0.16662598	-11.178543	-0.6417999
1493777359333	0.4121399	-11.585663	-0.037857056
1493777359333	0.7388153	-11.910065	-0.5713043
1493777359333	-0.52389526	-12.396545	-2.6497803
1493777359333	0.2922058	-13.227539	-3.6742249
1493777359333	1.7872925	-14.261597	-2.255478
1493777359333	1.384613	-14.35466	-3.0556335
1493777359333	-0.69654846	-13.715637	-1.9855042
1493777359333	-3.5195923	-12.451416	1.0858307
1493777359333	-5.1769104	-12.883545	4.378357
1493777359333	-5.5276184	-14.9878845	3.8482513
1493777359334	-4.104355	-15.655151	0.26087952
1493777359334	-0.8324127	-15.132568	-1.9053192
1493777359334	3.1927795	-13.485733	-1.4676361
1493777359334	3.1011505	-11.212799	0.12876892
1493777359334	0.9841919	-9.351379	1.076767
1493777359334	-0.7201538	-7.123932	2.2483215
1493777359334	-2.5937042	-5.9951477	2.8567047
1493777359334	-3.4741669	-5.379135	2.7127533
1493777359334	-2.9930267	-5.1127014	2.191574
1493777359334	-2.3615875	-4.599457	1.7246246
1493777359334	-2.316101	-3.3994446	2.146408
1493777359334	-2.4192352	-2.157257	2.6965332
1493777359334	-1.6789246	-1.5119171	2.8430786
1493777359334	-0.9218445	-2.126114	1.8219299
1493777359334	-0.21151733	-5.3440704	-1.0220795
1493777359334	-1.406723	-12.318451	-9.133133
1493777359334	-3.1438751	-18.067001	-17.399048
1493777359334	-0.541626	-19.474823	-16.033096
1493777359334	1.5446014	-13.78009	-7.8441772
1493777359334	1.1163025	-3.984497	-2.6965637
1493777359334	-1.187851	-0.5710449	-3.5857544
1493777359334	-3.7989655	-8.943054	-0.5369873
1493777359334	-1.0592041	-16.124985	7.5408783
1493777359334	-2.6881866	-16.271255	-3.325058
1493777359335	-4.4908905	-8.663116	1.183548
1493777359335	-5.499359	-2.9963531	10.59079
1493777359335	-2.5819397	-7.169693	6.838043
1493777359335	2.4928894	-10.943176	4.6677856
1493777359335	4.4543	-12.711319	4.035675
1493777359335	4.2212677	-13.23645	2.7758484
1493777359335	3.2500305	-12.740784	1.3970642
1493777359335	0.2489624	-10.83989	0.7619171
1493777359335	-2.4871063	-9.064636	0.123428345
1493777359335	-3.2939606	-8.999344	1.7921906
1493777359335	-2.4495544	-9.054169	0.44934082
1493777359335	-1.3547668	-8.836227	-0.06967163
1493777359335	-1.0323181	-8.43689	-0.16998291
1493777359335	-0.22653198	-8.365707	0.7448425
1493777359335	0.7391052	-8.31636	1.4393158
1493777359335	1.2168427	-8.737579	1.4673767
1493777359335	1.3660583	-9.412994	0.3173523
1493777359335	1.8263092	-9.609085	-0.8319092
1493777359335	2.1346588	-9.558365	-2.341507
1493777359335	1.6063232	-10.574158	-2.7847748
1493777359335	0.41815186	-11.343246	-1.4837036
1493777359335	0.40049744	-11.969254	-0.74263
1493777359335	1.3496246	-12.118912	-0.40031433
1493777359335	0.7720642	-11.939499	-2.0013275
1493777359336	0.4526062	-12.72171	-3.4891205
1493777359336	2.2717743	-13.622269	-1.6547852
1493777359336	1.7447052	-15.142456	-1.1033478
1493777359336	-1.9953613	-14.679321	-2.042038
1493777359336	-5.558365	-12.448456	0.51626587
1493777359336	-5.6706543	-11.601181	3.8473816
1493777359336	-5.032089	-13.063812	3.9832306
1493777359336	-4.715317	-14.92543	1.5848236
1493777359336	-4.081375	-15.392181	-0.6367035
1493777359336	-2.1012878	-14.231735	-1.7443695
1493777359336	2.2024994	-12.802292	-0.07833862
1493777359336	1.2176819	-10.586624	1.567276
1493777359336	-1.2511749	-8.616821	2.4034271
1493777359337	-2.396408	-6.8984528	3.266693
1493777359337	-2.7513275	-6.250763	3.4144897
1493777359337	-2.6287842	-5.46669	2.842163
1493777359337	-2.6268005	-3.8485565	1.5104675
1493777359337	-2.6763916	-3.1631775	1.3491516
1493777359337	-2.3397827	-2.346054	2.059616
1493777359337	-2.0201416	-1.600296	2.6233978
1493777359337	-1.7065735	-1.7024841	2.1325989
1493777359337	-0.8930359	-3.712967	-0.39344788
1493777359337	-0.077316284	-8.793289	-5.126953
1493777359337	-1.5297394	-16.192413	-14.574875
1493777359337	-0.28219604	-19.474823	-19.722397
1493777359337	2.1820679	-14.777313	-11.053238
1493777359337	1.6375275	-4.1098175	-3.1647491
1493777359337	-2.4792938	-2.2142792	0.19276428
1493777359337	-6.58757	-11.72142	3.7308807
1493777359337	-4.4101715	-16.873276	0.9158783
1493777359337	-0.96009827	-13.131165	-3.1174622
1493777359337	0.6023102	-4.583969	9.0065155
1493777359337	-4.9994507	-4.122986	7.223236
1493777359337	-0.75149536	-10.000214	6.0321198
1493777359337	3.38591	-13.386932	4.9048615
1493777359337	3.0260468	-13.109634	3.2850647
1493777359337	2.5409088	-12.614914	2.152893
1493777359337	-0.8717804	-10.842621	0.90101624
1493777359338	-2.3732452	-9.498428	0.5654297
1493777359338	-2.4996185	-8.936829	0.8256073
1493777359338	-1.0413971	-8.920776	0.14012146
1493777359338	0.48320007	-8.367142	-0.07266235
1493777359338	1.0335693	-8.153412	0.33511353
1493777359338	0.5787201	-8.18721	0.7071991
1493777359338	0.98709106	-8.545868	0.5253906
1493777359338	1.3377838	-9.74823	0.3355713
1493777359338	1.4165802	-10.41272	-0.33232117
1493777359338	1.7975311	-9.484055	-2.463379
1493777359338	1.9306335	-9.343124	-2.6796722
1493777359338	0.49378967	-10.333588	0.51452637
1493777359338	-0.684845	-11.135956	-0.07800293
1493777359338	0.62420654	-12.359268	-1.1588135
1493777359338	1.5839386	-12.632828	-1.7474365
1493777359338	0.7513733	-13.106415	-3.4587402
1493777359338	1.4292145	-14.038406	-2.7208862
1493777359338	2.078186	-15.0924225	-2.7160645
1493777359338	2.0666046	-14.859772	-3.8358765
1493777359338	0.24967957	-12.377136	1.2031555
1493777359338	-4.3371887	-11.657059	3.6991272
1493777359338	-6.905243	-13.516541	5.053177
1493777359338	-6.54274	-15.342575	1.6711884
1493777359339	-4.2999573	-15.61702	-0.1237793
1493777359339	0.14634705	-14.539963	-2.2403564
1493777359339	4.537689	-13.106735	-0.54933167
1493777359339	2.3067017	-10.791016	1.1195526
1493777359339	0.21861267	-8.71376	2.0800629
1493777359339	-1.4039154	-6.694977	3.6923065
1493777359339	-3.2442627	-5.298767	3.770752
1493777359339	-3.6028748	-4.439926	3.3947296
1493777359339	-3.019165	-4.1263885	2.4866028
1493777359339	-3.1233826	-3.402298	2.114273
1493777359339	-3.1138458	-2.09021	2.5162354
1493777359339	-2.3454285	-1.3425751	2.6656494
1493777359339	-1.0571594	-1.7636719	2.0395508
1493777359339	0.2836609	-4.195648	-0.30807495
1493777359339	-0.035629272	-10.645035	-6.973587
1493777359339	-1.9480133	-17.319214	-15.977005
1493777359339	-0.17697144	-19.474823	-19.314072
1493777359339	1.4804993	-14.569672	-10.2669525
1493777359339	1.9615021	-4.309799	-1.4446259
1493777359339	0.32789612	-0.0819397	-2.9462128
1493777359339	-4.431015	-8.899292	-4.438446
1493777359339	-2.8363342	-15.63089	6.6536865
1493777359339	-4.4503326	-14.14975	-1.3780518
1493777359339	-3.1500397	-6.7678986	3.9619598
1493777359339	-1.8833923	-4.5180817	9.180359
1493777359340	-0.38871765	-10.158798	6.955475
1493777359340	1.6796722	-12.651047	3.4794922
1493777359340	3.6063232	-12.407944	3.5541077
1493777359340	3.1927032	-12.098099	2.7978973
1493777359340	0.8943329	-11.098114	1.1426239
1493777359340	-0.9287262	-10.683258	0.87042236
1493777359340	-2.6308746	-9.654999	-0.11315918
1493777359341	-1.8056641	-9.313919	0.9916382
1493777359341	-0.8542023	-9.084412	1.0774078
1493777359341	-0.983551	-8.709305	-0.20404053
1493777359341	-0.24427795	-8.267624	0.08293152
1493777359341	0.4086609	-8.308228	0.11254883
1493777359343	1.3496552	-8.947693	0.27127075
1493777359343	1.5894623	-9.234055	0.7284546
1493777359343	1.3605042	-9.305191	0.37771606
1493777359343	1.5407715	-9.526581	-1.6068573
1493777359343	2.204361	-9.565964	-2.9225311
1493777359343	1.748764	-10.581894	-1.6049194
1493777359343	-0.57170105	-11.081924	-0.0061798096
1493777359343	-1.2062378	-11.522995	-0.085006714
1493777359343	0.41744995	-11.436874	0.22892761
1493777359343	0.37930298	-11.764526	-1.4500427
1493777359343	0.3949585	-12.911072	-3.0583496
1493777359343	2.9134674	-13.913391	-0.79003906
1493777359343	2.4664307	-15.32782	-1.781601
1493777359343	0.18418884	-14.6763	-3.2756805
1493777359343	-2.9769135	-11.912567	0.22973633
1493777359343	-4.704468	-11.256531	2.8103485
1493777359343	-5.7118683	-13.664886	4.9612274
1493777359343	-5.7046204	-16.31755	3.1013489
1493777359343	-4.781601	-16.479889	0.05128479
1493777359343	-0.4772644	-14.518509	-3.0619354
1493777359343	3.7303314	-12.529175	-0.69558716
1493777359343	2.1658936	-10.257004	1.1879883
1493777359343	-0.17077637	-8.207169	2.3379364
1493777359343	-1.8249664	-6.091278	3.7597046
1493777359343	-3.0558167	-5.0570374	3.8874664
1493777359343	-3.1505737	-4.272049	3.5279236
1493777359343	-2.7884521	-3.9565735	2.339569
1493777359343	-2.6420135	-3.7864075	1.565033
1493777359343	-2.9787445	-2.8667755	2.124237
1493777359343	-2.5645447	-1.8598785	2.8401184
1493777359343	-1.4998016	-1.7197571	2.6067352
1493777359343	-1.2918243	-3.2385101	0.71417236
1493777359344	-0.86447144	-7.8453217	-3.7193604
1493777359344	-1.1629791	-15.870773	-14.276749
1493777359344	0.76078796	-19.474823	-19.722397
1493777359344	1.8243256	-17.301895	-12.193024
1493777359344	1.017746	-6.149536	-3.7297974
1493777359344	-1.0020752	0.4824829	-2.697876
1493777359344	-6.306259	-8.371017	-1.3537598
1493777359344	-6.766693	-17.487503	4.5854645
1493777359344	-1.2719116	-15.773071	-0.2899475
1493777359344	0.45593262	-7.5229187	3.7941742
1493777359344	-4.4613647	-2.0399323	7.0562897
1493777359344	-4.020279	-5.9796753	6.3097534
1493777359344	1.6103363	-10.64772	4.379654
1493777359344	4.657303	-12.481262	3.924057
1493777359344	4.6986237	-12.787109	2.949051
1493777359344	2.7723236	-12.397003	1.0822296
1493777359344	1.5371704	-11.608459	0.31066895
1493777359344	-2.1154327	-9.164597	-0.44676208
1493777359344	-2.902298	-8.556442	1.1629028
1493777359344	-2.1798248	-8.756256	0.39274597
1493777359344	-0.9629669	-8.568878	-0.107299805
1493777359344	0.2124176	-8.394882	0.77638245
1493777359345	0.37464905	-8.257385	0.46105957
1493777359345	0.80604553	-8.005066	1.3263855
1493777359345	1.6095123	-8.130112	1.1436768
1493777359345	1.5391998	-9.412537	1.2255554
1493777359345	1.3589325	-9.981384	-0.83628845
1493777359345	1.7515869	-9.94722	-1.9204102
1493777359345	1.3024597	-11.160095	-1.476593
1493777359345	-0.1368866	-11.692383	-1.0120087
1493777359345	0.55085754	-11.970398	-1.1581879
1493777359345	2.4711304	-12.420868	-1.5500488
1493777359345	2.2844238	-12.9409485	-2.806778
1493777359345	2.0484161	-13.795181	-3.5900116
1493777359345	3.4451141	-14.809204	-1.5310974
1493777359345	1.8104095	-15.598282	-1.9782104
1493777359345	-1.7840576	-14.093689	-2.165329
1493777359345	-5.1221924	-12.512161	2.3420868
1493777359345	-5.982849	-12.585739	5.446594
1493777359345	-5.491791	-14.169922	4.5924225
1493777359345	-4.09964	-14.906235	0.7361908
1493777359345	-1.0633087	-15.162796	-1.4584503
1493777359345	3.875229	-13.725281	-0.62571716
1493777359345	3.2118988	-12.0078125	0.6236725
1493777359345	1.5349274	-9.744568	0.8585968
1493777359345	-0.725647	-6.9266205	2.2637634
1493777359345	-1.8585358	-5.406433	3.4611511
1493777359345	-2.869751	-4.7981567	3.522232
1493777359345	-2.9635315	-4.5863647	2.8375244
1493777359345	-2.5229492	-4.224045	1.9906616
1493777359345	-2.3591309	-3.6323242	2.316864
1493777359345	-2.571167	-2.7377472	2.9901123
1493777359345	-1.9319458	-1.9348755	3.2974854
1493777359345	-1.2122345	-1.7997437	2.3155212
1493777359345	-0.12831116	-4.2363586	-1.1213379
1493777359345	-0.25047302	-10.654266	-9.664993
1493777359345	-1.3132172	-17.352173	-17.572693
1493777359345	0.5018921	-19.474823	-17.280853
1493777359345	1.459198	-13.573853	-8.107025
1493777359345	1.2255554	-2.8884277	-1.6873932
1493777359345	-2.691513	-1.6756897	-3.7578888
1493777359345	-6.605835	-11.441208	-3.2329254
1493777359345	-1.8359222	-17.55188	5.168869
1493777359346	1.0384369	-12.951904	0.81762695
1493777359346	-2.6553192	-5.128586	4.0242615
1493777359346	-5.451355	-2.906845	6.5779877
1493777359346	-2.0412903	-8.20694	6.6328125
1493777359346	1.9399567	-11.473907	4.173752
1493777359346	4.057419	-12.349335	3.623413
1493777359346	4.0814667	-12.807999	2.5513306
1493777359346	2.3764038	-12.711884	1.2065887
1493777359346	0.7059784	-10.737747	-0.22270203
1493777359346	-1.8609467	-8.543091	-0.18925476
1493777359346	-2.0378723	-8.659073	1.8451843
1493777359346	-1.5280609	-8.917236	-0.010559082
1493777359346	-0.64915466	-8.493698	0.47073364
1493777359346	0.12557983	-8.579041	-0.21206665
1493777359346	0.096725464	-8.46463	0.5893402
1493777359346	0.45855713	-8.188004	0.8875427
1493777359346	1.1718445	-8.947525	1.0492096
1493777359346	1.523529	-10.269882	0.1981659
1493777359347	2.212326	-10.280304	-1.7234192
1493777359347	2.6770477	-10.249695	-2.5041046
1493777359347	1.2327881	-11.194122	-1.7335052
1493777359347	-0.15304565	-11.946854	-1.4673462
1493777359347	0.5759125	-12.394897	-0.9209137
1493777359347	1.3132324	-12.693863	-1.3030548
1493777359347	0.22247314	-13.288239	-3.5937347
1493777359347	1.417099	-14.399948	-3.9963684
1493777359347	2.6989899	-15.001175	-2.352295
1493777359347	0.21905518	-14.756058	-2.323578
1493777359347	-2.3865662	-12.9370575	-0.246521
1493777359347	-4.919403	-11.899109	1.7181549
1493777359347	-6.1306305	-13.149902	4.6176147
1493777359347	-5.7734222	-15.078293	3.635971
1493777359347	-3.9140472	-15.744308	-0.17236328
1493777359347	0.23701477	-14.991852	-3.043991
1493777359347	4.563843	-12.922775	-0.87620544
1493777359347	3.0299377	-10.174866	0.51651
1493777359347	0.20599365	-7.204605	1.6973267
1493777359347	-1.0937653	-5.1062164	3.5920563
1493777359347	-2.1836243	-4.348633	3.8548584
1493777359347	-2.449524	-3.986908	3.0399323
1493777359347	-2.0767365	-3.6795654	2.0740204
1493777359347	-1.7956848	-3.7633667	1.6120911
1493777359347	-2.1644745	-3.2972717	2.3808136
1493777359347	-2.2274933	-2.5945435	2.9846954
1493777359347	-1.3844147	-2.4425507	2.3704987
1493777359347	-0.2536621	-4.1258545	-0.1559906
1493777359347	0.088897705	-9.666351	-5.593994
1493777359347	-2.127655	-16.947388	-15.578812
1493777359347	-0.67341614	-19.474823	-19.722397
1493777359347	1.6647644	-15.997253	-10.668411
1493777359347	1.5769196	-5.7168884	-2.706314
1493777359347	-0.14677429	0.35446167	-1.6499023
1493777359348	-5.2167816	-6.807251	1.0150299
1493777359348	-4.825882	-15.610138	4.9024963
1493777359348	-1.8871613	-16.476028	-2.881958
1493777359348	-0.15072632	-10.964783	0.35264587
1493777359348	-3.373291	-4.1520996	10.050934
1493777359348	-5.227524	-5.8975983	4.0499725
1493777359348	1.0267487	-9.532135	4.368698
1493777359348	3.260147	-11.220657	4.2489014
1493777359348	3.951126	-12.713776	3.5583649
1493777359348	3.1579132	-13.41449	1.3703918
1493777359348	1.1510468	-11.4808655	-0.010147095
1493777359348	-1.6408081	-9.05278	0.5667572
1493777359348	-2.3414154	-9.129272	1.223053
1493777359348	-1.8023682	-8.650177	0.8104706
1493777359348	0.22616577	-8.215851	0.19410706
1493777359348	0.4337921	-8.333572	0.5408478
1493777359348	0.69647217	-8.580734	0.5603485
1493777359348	1.0540314	-8.208405	0.55944824
1493777359348	1.3348694	-8.637466	0.44187927
1493777359348	1.2496338	-9.386749	0.12562561
1493777359348	1.322464	-9.925201	-0.9203949
1493777359348	1.9108124	-9.788101	-2.4608154
1493777359348	1.9922333	-10.275131	-0.97776794
1493777359348	0.829895	-11.484512	-0.05696106
1493777359348	0.19599915	-12.18248	-0.8589325
1493777359348	0.57347107	-12.752655	-1.1850891
1493777359348	-0.6201935	-13.335449	-2.665985
1493777359348	-1.0919952	-13.987656	-4.231079
1493777359348	1.8016968	-15.203506	-3.3392487
1493777359348	2.8657532	-15.388824	-3.5047302
1493777359348	0.67274475	-13.989105	-2.2096252
1493777359348	-3.199524	-12.649796	1.6505585
1493777359348	-4.7904053	-12.098038	5.645996
1493777359348	-4.983902	-13.947372	4.7895355
1493777359348	-4.0400543	-15.611359	0.45884705
1493777359349	-1.344635	-15.403564	-1.1412048
1493777359349	1.9010162	-13.765518	-0.6105957
1493777359349	3.4151	-11.826843	0.3139801
1493777359349	2.3956604	-8.478027	0.55070496
1493777359349	0.5690918	-6.408325	1.5753174
1493777359349	-0.7420044	-5.1378937	2.6489868
1493777359349	-1.6678467	-4.2618713	2.5374298
1493777359349	-1.8281555	-3.8896637	2.326126
1493777359349	-1.7828064	-3.5263672	2.4840698
1493777359349	-1.9871063	-3.131134	2.7180023
1493777359349	-2.5917358	-2.6951752	3.2033234
1493777359349	-2.1349487	-2.340454	2.7651062
1493777359349	-1.2931061	-2.9927826	1.6687927
1493777359349	-0.5099945	-5.9663086	-1.2608795
1493777359349	-1.6576843	-12.331879	-7.9503937
1493777359349	-2.639328	-17.995972	-16.796463
1493777359349	2.097702	-19.474823	-16.40834
1493777359349	2.2227478	-13.437134	-7.421417
1493777359349	0.4414673	-2.5707092	-2.026596
1493777359349	-4.4018555	-4.062378	-3.6844635
1493777359349	-6.8582306	-14.966095	-3.2329254
1493777359349	0.6797333	-18.35141	4.785309
1493777359349	2.2414856	-10.723389	4.1414337
1493777359349	-5.1929016	-2.4729614	2.8832397
1493777359349	-5.9438324	-0.41378784	6.779358
1493777359349	-1.3099213	-9.022537	6.105591
1493777359349	1.5030823	-12.710617	3.5123138
1493777359349	3.3479156	-14.108292	3.2045135
1493777359349	3.1304016	-13.365524	2.4297333
1493777359349	1.4438477	-11.640137	1.1404266
1493777359349	0.2082367	-10.020142	0.2376709
1493777359349	-2.3008575	-8.922211	1.1351776
1493777359349	-1.7773132	-9.047867	1.6402435
1493777359349	-1.065979	-9.5069275	0.15551758
1493777359349	-0.234375	-9.006592	0.52659607
1493777359349	0.18571472	-8.517624	0.12988281
1493777359349	0.19868469	-8.755783	-0.13279724
1493777359349	0.9515686	-8.508377	0.37774658
1493777359349	1.4168854	-9.149246	0.1703949
1493777359349	1.4143219	-9.980652	-0.6999512
1493777359349	1.9126587	-9.99202	-2.0319366
1493777359350	2.765915	-9.990356	-2.787796
1493777359350	1.8213806	-11.048645	-1.1110687
1493777359350	-0.3591919	-11.616989	-1.0484314
1493777359350	0.2662201	-11.8405	-1.4066315
1493777359350	1.3505554	-12.101166	-1.0142059
1493777359350	0.70503235	-12.90123	-2.7507324
1493777359350	1.1465149	-14.674805	-3.1128998
1493777359350	2.1169586	-15.385696	-1.9210815
1493777359350	0.65711975	-14.897308	-2.347107
1493777359350	-1.9255676	-13.085907	-1.5590057
1493777359350	-4.225891	-11.79747	1.9138794
1493777359350	-5.2449036	-12.650787	5.769745
1493777359350	-4.8977203	-14.616058	3.633072
1493777359350	-4.191437	-15.490387	-0.47546387
1493777359350	-0.51231384	-15.095551	-1.9190063
1493777359350	4.594269	-13.079315	0.21917725
1493777359350	3.1212158	-11.171799	1.4294739
1493777359350	0.96902466	-8.609894	1.9098511
1493777359350	-0.910141	-6.252701	3.0040436
1493777359350	-2.3651733	-5.2294617	3.2144623
1493777359350	-2.9129028	-4.7770386	2.566742
1493777359350	-2.8652954	-4.461014	1.670578
1493777359350	-2.4675446	-4.0129547	1.3754272
1493777359350	-2.2070618	-3.082016	2.0725708
1493777359350	-1.8438873	-2.0928345	2.9434357
1493777359350	-1.1828003	-1.711441	2.6500397
1493777359350	-0.5544281	-3.0629578	0.79312134
1493777359350	0.14411926	-7.3174286	-2.8135834
1493777359350	-1.3804016	-15.709213	-13.174133
1493777359350	-0.3117981	-19.262451	-19.000504
1493777359350	1.4988403	-19.474823	-12.619476
1493777359350	1.3633881	-8.861557	-4.7630615
1493777359350	0.9002533	1.5107574	-1.4753113
1493777359350	-5.435547	-3.0695648	0.18164063
1493777359350	-6.8966064	-13.7343445	4.892502
1493777359350	-1.8145752	-17.95993	0.5433502
1493777359350	0.25694275	-15.076141	-4.9244537
1493777359350	-1.4264221	-4.572754	8.892715
1493777359350	-6.680191	-4.440277	5.922165
1493777359350	0.32017517	-9.373566	5.2459106
1493777359350	3.638977	-11.290405	4.5929565
1493777359351	4.6559143	-12.897354	4.0793304
1493777359351	2.9559784	-13.257843	1.2414856
1493777359351	1.3546295	-12.149399	0.7481842
1493777359351	-1.8638	-9.968262	0.14762878
1493777359351	-1.9242859	-9.018356	0.5774689
1493777359351	-2.115326	-9.161575	0.0034179688
1493777359351	-1.007782	-8.487381	-0.56500244
1493777359351	0.33805847	-8.368011	0.16419983
1493777359351	0.5528412	-8.382324	0.21572876
1493777359351	0.86805725	-8.589951	0.6109619
1493777359351	1.0410614	-8.777222	1.023468
1493777359351	0.5059509	-8.662842	0.77197266
1493777359351	0.25227356	-8.719955	-0.0446167
1493777359351	0.66500854	-8.948761	-1.1060944
1493777359351	1.477005	-9.667526	-1.816864
1493777359351	1.3821716	-11.055725	-1.1693115
1493777359351	0.617218	-11.428116	-1.0102844
1493777359351	1.136261	-11.612427	-0.8984833
1493777359351	1.2919617	-11.945938	-1.0872498
1493777359351	0.11399841	-13.155014	-3.1754608
1493777359351	0.8885956	-14.702118	-3.9742432
1493777359351	2.132904	-15.391846	-2.6140594
1493777359351	1.2417603	-15.343552	-2.3088531
1493777359351	-1.1900177	-13.663605	0.19950867
1493777359351	-4.824478	-12.118546	3.2107391
1493777359351	-6.029358	-12.588638	5.3612823
1493777359351	-5.542328	-14.596146	2.7740326
1493777359351	-3.9692993	-15.647812	-0.07649231
1493777359351	-0.37434387	-14.713486	-0.7347717
1493777359351	3.228012	-12.625183	0.19989014
1493777359351	2.5761871	-11.136398	0.73158264
1493777359351	0.88656616	-8.896957	1.3590851
1493777359351	-0.9348602	-6.8204346	2.684372
1493777359351	-2.2196655	-5.542206	3.2275696
1493777359351	-2.7338562	-4.9006195	2.7645874
1493777359351	-2.6222687	-4.4017334	2.0530548
1493777359351	-2.3620758	-3.863388	1.6607208
1493777359351	-2.3587646	-3.0509186	2.0495605
1493777359351	-2.3511658	-2.1961823	2.8485565
1493777359351	-1.650238	-1.7103882	2.7888336
1493777359351	-0.88041687	-2.6214447	1.3579559
1493777359352	0.013000488	-6.5927124	-2.2171936
1493777359352	-0.58314514	-14.723511	-12.544266
1493777359352	-0.65541077	-18.907608	-18.761505
1493777359352	2.025711	-19.474823	-12.822754
1493777359352	1.3645782	-8.807938	-5.509674
1493777359352	-0.51724243	1.7904968	-1.0063324
1493777359352	-5.2734222	-3.3359375	-0.7897644
1493777359352	-7.726837	-16.029602	0.5263519
1493777359352	0.78564453	-17.540192	2.7815247
1493777359352	-0.034942627	-12.79274	-3.3140717
1493777359352	-3.8803864	-3.202591	6.0885468
1493777359352	-5.7986145	-2.099533	7.1091003
1493777359352	-0.39375305	-9.16571	4.630661
1493777359352	3.2191772	-12.690399	3.9663544
1493777359352	4.486191	-14.415939	2.801529
1493777359352	2.6979675	-13.508194	1.8609467
1493777359352	2.0245514	-11.6831665	1.2493744
1493777359352	0.5275879	-10.198166	0.57618713
1493777359352	-2.6228485	-9.170517	0.011505127
1493777359352	-2.041336	-9.345596	0.84887695
1493777359352	-1.2661285	-9.524246	0.3623352
1493777359352	-0.75930786	-8.629578	-0.16647339
1493777359352	-0.1956482	-8.068359	-0.33665466
1493777359352	0.36045837	-8.026764	-0.13418579
1493777359352	0.8799896	-8.021591	0.5696869
1493777359352	0.99121094	-8.306946	0.73428345
1493777359352	1.0048523	-9.227158	0.74949646
1493777359352	1.3952484	-9.894394	-0.12687683
1493777359352	2.1337128	-9.921051	-1.7367249
1493777359352	1.825119	-10.4058075	-1.7121124
1493777359352	-0.012176514	-10.900604	-1.3547668
1493777359352	-0.28123474	-11.362366	-1.1176147
1493777359352	0.77989197	-11.873306	-0.3164978
1493777359352	0.22587585	-12.643707	-2.3310547
1493777359352	0.48408508	-13.955109	-3.967102
1493777359352	2.5398712	-14.42421	-2.9124146
1493777359352	2.2619476	-14.933319	-3.0705261
1493777359352	0.42401123	-14.63559	-1.9885406
1493777359352	-2.7095184	-12.9353485	0.074279785
1493777359352	-5.108673	-12.663391	1.6270599
1493777359352	-6.119278	-14.321487	3.6926117
1493777359353	-5.6345367	-15.124359	3.8282318
1493777359353	-3.3368225	-14.498001	1.4732361
1493777359353	0.43240356	-13.093735	-1.2756042
1493777359353	3.0731964	-11.767136	-0.7522583
1493777359353	2.1460571	-10.109711	0.45619202
1493777359353	0.21391296	-7.9830475	1.4830322
1493777359353	-0.77671814	-6.9438934	2.5346527
1493777359353	-2.0921936	-6.4172363	2.854416
1493777359353	-2.7659912	-5.6237183	2.6237488
1493777359353	-2.518158	-4.7867126	2.1428223
1493777359353	-1.9745178	-3.981308	1.710144
1493777359353	-1.9182587	-2.9522095	2.013382
1493777359353	-2.325714	-2.0230255	2.795456
1493777359353	-1.9650726	-1.7739258	2.520874
1493777359353	-1.7307281	-3.0999908	1.0308075
1493777359353	-0.73750305	-7.411209	-2.2969818
1493777359353	-1.1374817	-16.248245	-15.530762
1493777359353	-1.919342	-19.323135	-18.263977
1493777359353	-0.10369873	-19.474823	-11.858551
1493777359353	0.11442566	-6.1882935	-4.496002
1493777359353	-0.49357605	2.6156158	-0.8645477
1493777359353	-5.3303375	-6.8618927	-1.1374512
1493777359353	-6.0347137	-18.026047	-0.69918823
1493777359353	1.9884644	-19.474823	-1.0017548
1493777359353	2.7538757	-11.130539	1.9292145
1493777359353	-5.6959534	-1.1101837	9.950806
1493777359353	-9.416473	-3.2218018	4.816147
1493777359353	0.8208313	-9.968491	6.042694
1493777359353	5.968506	-13.4648285	4.872452
1493777359353	3.5970306	-14.731949	4.0824738
1493777359353	0.94389343	-12.127502	1.9237213
1493777359353	0.8826599	-11.143478	0.8467865
1493777359353	-2.069168	-9.243362	0.6260681
1493777359353	-1.8495789	-9.120651	1.0931854
1493777359353	-0.36361694	-9.331909	1.5718536
1493777359353	2.0029144	-8.873703	1.4907227
1493777359353	2.984192	-8.634476	0.48864746
1493777359353	2.3265991	-8.580658	0.10707092
1493777359353	2.10289	-8.697662	0.5559845
1493777359353	1.6487885	-8.43634	1.9206696
1493777359353	0.8351898	-8.647507	0.20083618
1493777359353	0.8130493	-9.462112	-0.57302856
1493777359354	0.86846924	-9.926605	-1.6837158
1493777359354	0.54763794	-10.043854	-1.6773834
1493777359354	0.42115784	-10.856125	-1.0301361
1493777359354	0.9384308	-11.556305	-1.4378204
1493777359354	1.1095123	-11.61496	-2.5679474
1493777359354	0.3828125	-11.437958	-3.3707886
1493777359354	0.34197998	-11.355499	-3.7447357
1493777359354	1.5687714	-12.094681	-4.270172
1493777359354	2.7356873	-14.297379	-4.2968597
1493777359354	1.7861023	-15.20639	-2.2293549
1493777359354	-0.22238159	-13.710709	-1.2706604
1493777359354	-0.7050171	-12.823868	-0.04562378
1493777359354	0.26228333	-12.970139	4.3595123
1493777359354	-0.26052856	-13.018906	5.2176666
1493777359354	-1.2463989	-13.772644	3.4165955
1493777359354	0.44529724	-14.447388	0.34124756
1493777359354	2.961609	-14.0733185	-1.0644531
1493777359354	3.0400848	-12.845184	0.15496826
1493777359354	1.4885559	-11.091675	1.5875244
1493777359354	0.34910583	-9.467636	2.6781158
1493777359354	-0.4184723	-8.354919	3.3345032
1493777359354	-0.95280457	-7.649643	3.4712524
1493777359354	-0.9916229	-7.144043	3.7661285
1493777359354	-1.4080353	-5.925644	3.5189362
1493777359354	-2.3138275	-4.4162292	3.5088806
1493777359354	-3.104782	-3.5994873	2.9303436
1493777359354	-2.7483063	-4.9291077	1.8611298
1493777359354	-0.6691437	-7.4736786	0.9435425
1493777359354	0.6682739	-11.014999	-0.60188293
1493777359354	1.2331848	-14.657059	-3.8767242
1493777359354	-0.76164246	-15.962143	-6.3760376
1493777359355	-4.7024384	-13.702423	-2.6243439
1493777359355	-5.7121124	-10.555084	0.03211975
1493777359355	-5.2092743	-9.134125	4.3950806
1493777359355	-6.3901367	-9.020477	5.8170624
1493777359355	-3.9050446	-9.050568	5.8375397
1493777359355	0.9889984	-10.8502655	2.3105927
1493777359355	3.122696	-9.651428	0.19548035
1493777359355	3.2580872	-7.7142944	0.60017395
1493777359355	2.8875732	-6.8066406	3.22081
1493777359355	-0.42352295	-8.328522	1.9821625
1493777359355	-1.8984528	-11.7789	0.1338501
1493777359355	-1.6009521	-13.261795	0.554718
1493777359355	-1.3887482	-12.611649	-1.205368
1493777359355	0.11593628	-10.869797	-2.0592346
1493777359355	-0.0899353	-10.454376	-2.0759888
1493777359355	-0.13578796	-11.249222	-3.1644592
1493777359355	0.7304535	-11.216019	-0.89476013
1493777359355	-0.27415466	-10.834778	0.31729126
1493777359355	-1.7137756	-9.838898	1.4602356
1493777359355	-1.3867493	-9.17218	2.62294
1493777359355	0.555954	-9.350525	2.438263
1493777359355	2.1732788	-10.042236	2.6326141
1493777359355	2.2046204	-9.939606	3.1430664
1493777359355	1.3244629	-10.024109	2.905838
1493777359355	0.36824036	-10.29808	2.7457733
1493777359355	0.5732727	-10.376846	2.1124268
1493777359355	0.9581299	-10.332993	2.209015
1493777359355	0.44213867	-10.318176	2.1792603
1493777359355	0.12336731	-10.8302	1.382843
1493777359355	0.48010254	-11.482559	0.5883484
1493777359355	0.56399536	-12.174759	-0.29785156
1493777359355	0.09375	-12.663422	-1.4016418
1493777359355	-0.90130615	-12.667908	-2.4575043
1493777359355	-2.4694824	-12.149811	-3.1503143
1493777359355	-3.7266388	-11.528748	-2.2966156
1493777359355	-4.8315125	-11.352203	-0.8257599
1493777359355	-4.4229584	-11.942001	0.22549438
1493777359355	-0.48306274	-12.357925	1.2534485
1493777359355	3.793396	-11.529892	2.1585846
1493777359355	3.281128	-10.50676	2.7890472
1493777359355	-0.45614624	-9.88942	2.0504608
1493777359355	-3.359375	-9.570908	-0.09086609
1493777359356	-3.9493103	-9.814331	-1.7800446
1493777359356	-2.955719	-9.599136	-1.6208496
1493777359356	-1.7899933	-8.648117	-0.37757874
1493777359356	-1.164093	-8.000671	0.7512207
1493777359356	-1.1387177	-7.6153564	1.1602936
1493777359356	-0.9539337	-6.8818665	1.2139282
1493777359356	-1.1508636	-5.676056	1.1455994
1493777359356	-1.916275	-4.5827484	0.8707733
1493777359356	-2.2883148	-4.3016815	0.24043274
1493777359356	-2.7389526	-5.1382446	-0.6793518
1493777359356	-3.04747	-6.340927	-2.1686096
1493777359356	-3.3240204	-8.571732	-4.6756897
1493777359356	-4.130005	-12.96373	-9.011749
1493777359356	-3.8891144	-17.645798	-12.4774475
1493777359356	-2.8820953	-15.5841675	-11.9917755
1493777359356	-2.142807	-9.258026	-7.723007
1493777359356	-0.68859863	-4.147476	-3.3830566
1493777359356	0.6073456	-2.386612	-1.6005859
1493777359356	-1.914917	-9.732407	-0.7622223
1493777359356	0.99876404	-18.030304	0.24465942
1493777359356	-1.1529388	-18.558685	-3.3083954
1493777359356	-3.6673431	-9.36972	1.0527802
1493777359356	-5.983612	-0.396286	9.835449
1493777359356	-3.239563	-5.9631195	2.3650665
1493777359356	0.96784973	-10.468567	7.782913
1493777359356	2.06102	-12.716827	2.282608
1493777359356	2.8150024	-14.030655	2.932022
1493777359356	4.5613556	-13.609879	0.59936523
1493777359356	2.0859985	-11.814438	1.5203552
1493777359356	-1.8139191	-9.441208	0.8105469
1493777359356	-3.0628204	-8.971863	1.4343872
1493777359356	-3.2925873	-9.309769	1.0437927
1493777359356	-1.689743	-8.7283325	-0.18566895
1493777359356	-0.6708832	-7.7442474	-0.12528992
1493777359356	-0.312912	-7.464279	1.1139832
1493777359356	0.13476563	-7.6164093	1.8027496
1493777359356	0.7039032	-8.4691925	2.3167572
1493777359356	0.65715027	-9.343689	1.5410156
1493777359356	0.5738373	-9.747986	-0.08496094
1493777359356	0.6347046	-10.046417	-2.1459503
1493777359356	0.6083374	-10.558487	-2.831665
1493777359356	0.35972595	-11.5215	-0.9327698
1493777359357	-0.22564697	-12.402512	0.5959778
1493777359357	-0.21012878	-12.644897	-0.14118958
1493777359357	0.031448364	-12.8033905	-1.093811
1493777359357	-0.43244934	-13.004181	-1.7908478
1493777359357	0.12918091	-12.760239	-2.9744415
1493777359357	2.7897186	-12.26738	-3.0651093
1493777359357	4.311157	-13.561539	-2.8259888
1493777359357	3.4786377	-14.121246	-2.3814392
1493777359357	0.27444458	-13.061279	-0.14157104
1493777359357	-3.5782013	-12.348282	2.3020325
1493777359357	-5.6193237	-12.924606	4.494232
1493777359357	-6.0484467	-14.61499	4.1463165
1493777359357	-5.56308	-15.891693	2.1694489
1493777359357	-3.8691864	-14.601868	-1.328949
1493777359357	0.71414185	-13.592178	-1.3347015
1493777359357	3.2973633	-12.044128	-0.027923584
1493777359357	1.5644989	-9.558044	0.75115967
1493777359357	-0.16648865	-7.03154	2.2666168
1493777359357	-1.854538	-5.2929535	3.625061
1493777359357	-2.4373474	-4.51828	3.3869019
1493777359357	-2.5700836	-4.024658	2.2465057
1493777359357	-2.208664	-3.8878174	1.5001526
1493777359357	-2.287384	-3.2521667	1.9613037
1493777359357	-2.418991	-2.2983398	2.8209991
1493777359357	-1.5477142	-1.7997131	2.8189697
1493777359357	-0.897171	-2.445404	1.5516815
1493777359357	0.7722931	-5.64888	-2.0215912
1493777359357	-0.47151184	-12.155945	-8.757996
1493777359357	-3.9000702	-18.876114	-18.532562
1493777359357	0.3610382	-19.474823	-18.090424
1493777359357	0.6359253	-15.843811	-6.39093
1493777359357	0.027832031	-3.0167694	-1.0161896
1493777359357	-0.74728394	2.562027	-3.5838928
1493777359357	-4.5436096	-3.155426	-5.1024323
1493777359357	-5.392502	-16.109772	5.907196
1493777359357	0.62042236	-19.256073	-0.7359009
1493777359357	-2.6428528	-14.612442	-3.5592804
1493777359357	-3.8220062	-2.9429932	9.196945
1493777359357	-3.9897766	-2.344986	6.0552216
1493777359357	1.530365	-6.621521	3.8865662
1493777359357	4.525177	-10.9322815	5.351364
1493777359358	3.5224915	-13.927277	3.0420227
1493777359358	2.4589233	-13.812881	1.1161194
1493777359358	0.8141632	-12.044571	0.4730072
1493777359358	-1.6806335	-9.271698	0.42770386
1493777359358	-2.3083954	-8.652985	0.6316986
1493777359358	-0.88505554	-9.077881	1.2159119
1493777359358	-0.17703247	-9.139328	0.5727997
1493777359358	0.027923584	-9.054169	0.34327698
1493777359358	-0.40441895	-8.712982	0.6589203
1493777359358	0.08482361	-8.390457	0.1703949
1493777359358	0.9568176	-8.428146	0.92311096
1493777359358	1.0909119	-8.999802	0.6902466
1493777359358	0.85632324	-9.93988	0.2909546
1493777359358	0.9159241	-10.080399	-0.59710693
1493777359358	0.90159607	-9.862686	-1.5243378
1493777359358	0.15756226	-10.520065	-1.1937103
1493777359358	-0.05380249	-11.519165	-0.5314331
1493777359358	1.3278961	-12.27626	-0.11512756
1493777359358	2.181549	-12.6354065	-0.7570038
1493777359358	1.4978943	-13.204102	-2.792801
1493777359358	1.8631592	-13.763992	-3.1147919
1493777359358	2.8667297	-13.529419	-1.8918915
1493777359358	1.8499756	-14.497955	-1.9643097
1493777359358	-1.4798889	-14.476395	-1.7892914
1493777359358	-5.4361725	-12.331451	-0.29011536
1493777359358	-7.3208923	-11.478226	4.1147156
1493777359358	-6.6264496	-12.417389	5.6982727
1493777359358	-4.7006683	-13.777115	1.6176453
1493777359358	-3.5816193	-14.78537	-2.1847534
1493777359358	1.6412354	-14.668808	-1.5639038
1493777359358	3.9620972	-13.0451355	0.7312927
1493777359358	2.606842	-11.249573	1.5356293
1493777359358	-1.264267	-7.989975	2.309967
1493777359358	-2.4785767	-5.8332825	2.8828125
1493777359358	-2.596054	-5.054901	2.7926483
1493777359358	-3.0225067	-3.814682	2.052414
1493777359358	-2.811493	-2.98378	1.6018829
1493777359358	-1.9632263	-2.3022156	1.8486786
1493777359358	-1.478363	-1.2097168	2.5633545
1493777359358	-1.0285797	-0.72016907	2.6001434
1493777359358	-0.7807617	-1.8723602	1.3687897
1493777359358	0.4988861	-4.69252	-1.4428558
1493777359359	1.0298767	-12.142502	-8.854614
1493777359359	-2.0565948	-18.792831	-18.676956
1493777359359	0.6999054	-19.474823	-17.085526
1493777359359	0.9354553	-13.103195	-7.22377
1493777359359	-0.46368408	0.41407776	-0.5094147
1493777359359	-2.1752167	1.6392212	-2.5074463
1493777359359	-3.9706879	-9.304413	5.320343
1493777359359	-3.2872772	-17.652802	4.974228
1493777359359	-3.4712524	-18.86325	-4.2639923
1493777359359	-1.9446869	-9.137604	2.7827454
1493777359359	-3.4806213	-2.5818787	11.07373
1493777359359	-3.7091522	-5.9789886	1.8908844
1493777359359	1.9327087	-9.076477	5.0659485
1493777359359	3.7511597	-11.09227	3.9124908
1493777359359	3.971817	-12.854477	2.895584
1493777359359	2.636383	-12.753387	0.28231812
1493777359359	-0.4011383	-10.569443	-0.83283997
1493777359359	-1.970871	-8.924759	0.8761902
1493777359359	-2.0513153	-8.591965	0.9249878
1493777359359	-1.0231171	-8.393372	0.54138184
1493777359359	-0.64775085	-8.553726	1.5075073
1493777359359	-0.09921265	-9.237915	0.8640442
1493777359359	0.96958923	-8.924255	1.3429108
1493777359359	1.9042053	-8.897644	1.4244537
1493777359359	1.5279083	-9.480103	0.5142517
1493777359359	0.9612427	-10.109863	-0.6121216
1493777359359	1.0507355	-10.062607	-1.5234375
1493777359359	1.4039612	-10.067581	-1.5273743
1493777359359	1.0404205	-11.179947	-0.5338745
1493777359359	0.41763306	-11.814774	-0.22502136
1493777359359	1.1125793	-11.768433	-0.450943
1493777359359	1.5778046	-11.760223	-0.6590271
1493777359359	0.44276428	-12.446533	-2.4092712
1493777359359	0.86273193	-13.3984375	-3.2423859
1493777359359	3.0637512	-14.084183	-2.167389
1493777359359	2.6560364	-14.7938385	-2.6842499
1493777359359	-0.5497589	-13.986694	-1.9324341
1493777359359	-3.7368011	-11.89212	0.6554413
1493777359359	-4.8086243	-11.419296	4.922348
1493777359359	-4.261093	-12.835007	5.056656
1493777359359	-3.9564514	-14.4543915	1.1141052
1493777359359	-5.1327057	-16.091385	-2.5489655
1493777359360	1.0711365	-14.5979	-1.115799
1493777359360	3.8146362	-12.180023	0.94869995
1493777359360	2.256195	-10.194656	1.0498657
1493777359360	0.35862732	-7.3515015	1.5669708
1493777359360	-0.08406067	-5.5762177	1.7407684
1493777359360	-1.5572052	-5.6947784	2.3041077
1493777359360	-2.6785889	-4.620941	2.3436584
1493777359360	-2.3750153	-4.1305847	2.2640228
1493777359360	-1.954773	-3.3242645	2.4364014
1493777359360	-2.1254578	-2.3891602	2.8970337
1493777359360	-1.7427979	-1.5709839	2.74115
1493777359360	-1.1340027	-1.7779236	1.6014862
1493777359360	-0.50839233	-4.33432	-0.82948303
1493777359360	-0.55914307	-9.922791	-5.4643555
1493777359360	-3.497406	-18.578537	-18.36177
1493777359360	1.0269775	-19.474823	-19.692795
1493777359360	2.2180023	-19.420334	-7.0540314
1493777359360	-0.23016357	-5.159912	-1.3077087
1493777359360	-0.42578125	0.22871399	-4.030716
1493777359360	-5.5025177	-7.9131927	-7.2136993
1493777359361	-5.9682007	-17.027084	1.8822021
1493777359361	0.8062744	-14.39653	6.4556274
1493777359361	-3.0523376	-9.520813	0.20445251
1493777359361	-4.458206	-4.6711273	3.416626
1493777359361	-1.422821	-6.1831512	6.68367
1493777359361	1.1798401	-9.30426	2.982254
1493777359361	3.00589	-9.865356	2.9129791
1493777359361	3.4503174	-11.163605	3.0247955
1493777359361	3.067215	-12.083679	1.8198395
1493777359361	2.070282	-11.899567	0.4736786
1493777359361	-0.96144104	-9.484451	0.15298462
1493777359361	-1.7496338	-8.65921	1.2713318
1493777359361	-1.3401337	-8.849579	0.8300171
1493777359361	-0.79216003	-8.573303	0.84469604
1493777359361	-0.45336914	-8.769028	1.0348206
1493777359361	-0.7332611	-9.261978	-0.2088623
1493777359361	-0.04901123	-9.345673	0.7460327
1493777359362	0.8165741	-9.365967	1.385849
1493777359362	1.157486	-10.301422	0.60762024
1493777359362	1.4769135	-11.178253	-1.2494049
1493777359362	2.3776703	-10.663162	-3.2710571
1493777359362	2.9550476	-10.546371	-3.0115662
1493777359362	1.646347	-11.361404	-0.66952515
1493777359362	0.0152282715	-11.694504	-0.46221924
1493777359362	1.1451721	-11.68927	-1.3364716
1493777359362	2.2072449	-12.134064	-2.0699615
1493777359362	2.2422638	-13.522461	-2.3214722
1493777359362	2.198761	-14.429504	-1.4037323
1493777359362	0.7454376	-14.750244	-2.0247345
1493777359362	-1.3616943	-14.033295	-1.7725983
1493777359362	-3.7761688	-12.608002	-0.4739685
1493777359362	-4.8616486	-12.059525	4.447586
1493777359362	-5.223938	-12.795929	5.9048767
1493777359362	-5.0182343	-13.825043	1.0821838
1493777359362	-3.5379639	-14.4326935	-2.725647
1493777359362	2.70549	-13.715881	-1.3406372
1493777359362	4.163864	-12.256226	1.3610077
1493777359362	1.9389648	-10.400162	1.3486938
1493777359362	-0.1617279	-7.917206	2.129959
1493777359362	-1.8526154	-6.826721	2.725113
1493777359362	-2.675232	-6.132599	2.638626
1493777359362	-2.6931458	-5.0668945	2.4289246
1493777359362	-2.5654297	-4.6105957	1.7633057
1493777359362	-2.3252106	-3.9726868	1.9311676
1493777359362	-2.9176636	-2.337967	2.0546417
1493777359362	-2.1591492	-0.83914185	2.6554108
1493777359362	-1.4798889	-1.0192719	1.9306641
1493777359362	-0.18577576	-3.5701294	-0.18652344
1493777359362	0.40202332	-8.756088	-4.881836
1493777359362	-0.7523346	-19.26413	-19.428879
1493777359362	1.2534943	-19.4693	-19.703766
1493777359362	0.7812805	-15.649979	-7.5141144
1493777359362	-0.67401123	-4.118973	-1.8053131
1493777359362	-2.901596	-2.3202362	-2.1938019
1493777359362	-7.4148407	-14.586487	-2.627365
1493777359362	-4.2104645	-17.704361	0.079833984
1493777359362	1.4481049	-12.848602	-1.6959686
1493777359362	0.9647827	-4.923767	6.7877655
1493777359362	-4.6034393	-2.61174	3.8781128
1493777359363	-2.4082947	-7.0531464	4.390259
1493777359363	1.1184387	-11.503677	3.6272278
1493777359363	3.2805176	-12.280548	2.7431793
1493777359363	3.6867828	-12.45285	2.3500977
1493777359363	2.0250244	-11.495605	1.0572357
1493777359363	0.18630981	-10.46463	0.47564697
1493777359363	-1.3494415	-9.504913	0.5354767
1493777359363	-2.758484	-8.99382	0.6354828
1493777359363	-2.108963	-9.317078	0.58631897
1493777359363	-1.1961517	-9.282379	0.37182617
1493777359363	0.08050537	-8.745026	0.6876526
1493777359363	0.27616882	-8.309906	1.4147949
1493777359363	0.5716553	-8.143646	2.1752472
1493777359363	1.2564087	-8.578308	1.2791595
1493777359363	1.6192322	-9.478958	0.8912506
1493777359363	1.690567	-10.129196	-0.443573
1493777359363	1.8150787	-10.230728	-2.1947021
1493777359363	2.0164337	-10.3719635	-2.9195557
1493777359363	1.5144958	-11.020264	-1.842804
1493777359363	0.59558105	-11.850754	-1.2193298
1493777359363	0.8454437	-12.253281	-1.523529
1493777359363	1.4102173	-12.5780945	-2.604126
1493777359363	2.1048584	-13.609055	-3.8445587
1493777359363	3.0822906	-14.987869	-2.3297424
1493777359363	1.8569641	-15.811829	-1.3803711
1493777359363	-1.4999847	-14.031998	-1.2541351
1493777359363	-3.9815369	-11.659988	0.43130493
1493777359363	-4.6325684	-11.306671	3.9571686
1493777359363	-3.9331055	-13.503571	4.820099
1493777359363	-3.6044312	-15.587753	1.995224
1493777359363	-3.3415527	-16.038834	-1.4371338
1493777359363	1.6137695	-14.321396	-0.68322754
1493777359363	3.6577606	-12.422607	1.2856903
1493777359363	2.5514984	-10.600204	1.6492767
1493777359363	-0.012802124	-8.2248535	2.5051422
1493777359363	-1.7331848	-6.662735	3.4115448
1493777359363	-2.962143	-5.7724	3.2814636
1493777359363	-2.787384	-4.904251	2.7002563
1493777359363	-2.1568298	-4.332199	1.6546478
1493777359363	-1.8383179	-3.4569702	2.0572968
1493777359363	-2.460373	-2.0489197	2.7772064
1493777359364	-2.8569489	-0.59906006	2.8328247
1493777359364	-1.5452728	-1.3323059	2.2262878
1493777359364	-0.41906738	-4.388977	-0.3902893
1493777359364	-0.09373474	-8.9552765	-4.1855774
1493777359364	-0.9867554	-19.458755	-19.698547
1493777359364	-0.03907776	-19.470245	-18.44487
1493777359364	0.92926025	-18.641312	-7.5358276
1493777359364	0.7696686	-3.5242004	-2.8173065
1493777359364	-0.43626404	0.080200195	-2.6191864
1493777359364	-6.1669464	-12.626373	-1.8943176
1493777359364	-3.5817413	-18.938354	2.139557
1493777359364	0.24047852	-13.616669	0.19721985
1493777359364	-2.439499	-6.353775	3.4748383
1493777359364	-5.4973755	-2.2977753	7.180603
1493777359364	-2.941269	-7.4156647	5.0020294
1493777359364	3.0234375	-10.954803	3.4689636
1493777359364	4.298996	-11.62323	3.3060913
1493777359364	3.6714478	-12.310577	2.8167877
1493777359364	2.0204926	-12.109222	1.0794067
1493777359364	0.25447083	-10.787888	-0.08010864
1493777359364	-2.5283356	-8.725601	0.25442505
1493777359364	-2.4067535	-8.656845	1.3571777
1493777359364	-1.4694214	-9.115311	0.36846924
1493777359364	-0.49847412	-8.763367	0.44281006
1493777359364	-0.23477173	-8.739304	0.6387024
1493777359364	-0.048110962	-8.9387665	0.19915771
1493777359364	0.86032104	-8.811203	0.8411102
1493777359364	1.6396484	-9.322311	0.6981659
1493777359364	1.520462	-10.222992	-0.038009644
1493777359364	1.6239777	-10.566956	-0.957077
1493777359364	2.2369385	-10.314713	-1.9462433
1493777359364	2.442505	-10.36174	-1.8423767
1493777359364	1.2463074	-10.892578	-1.3379059
1493777359364	0.6308594	-11.3741	-1.3005066
1493777359364	1.6284943	-11.738556	-0.7602844
1493777359364	1.1602325	-12.37999	-1.7305298
1493777359365	0.8904114	-13.7453	-3.7483215
1493777359365	2.697647	-14.869171	-2.4678955
1493777359365	1.5892029	-15.385056	-2.1766357
1493777359365	-1.5347595	-14.527054	-1.7611084
1493777359365	-3.5416565	-12.520752	0.3204956
1493777359365	-3.2483826	-11.612106	4.518738
1493777359365	-3.1613617	-13.697632	5.0619965
1493777359365	-4.077469	-15.543915	2.4566803
1493777359365	-3.2790222	-15.763535	-1.5586243
1493777359365	0.85292053	-14.216248	-1.1119995
1493777359365	2.5823517	-12.096573	1.1633148
1493777359365	0.36083984	-9.725418	1.4870911
1493777359365	-1.2964325	-7.5602875	2.7919464
1493777359365	-1.97995	-6.412506	3.7522888
1493777359365	-2.7026978	-5.976013	3.1327362
1493777359365	-2.6202393	-5.2400513	2.792572
1493777359365	-2.6892242	-4.7791443	1.7918243
1493777359365	-2.4802856	-3.9754791	1.985611
1493777359365	-2.9405823	-2.8250275	2.8926697
1493777359365	-2.505661	-1.3628082	3.0910187
1493777359365	-1.3973999	-1.0917358	2.3368225
1493777359365	-1.2645111	-3.2657623	-0.07777405
1493777359365	-0.7975006	-8.3918915	-4.8190002
1493777359365	-1.2568512	-19.474823	-19.708511
1493777359365	-0.74490356	-19.466156	-18.10817
1493777359365	0.86434937	-18.435837	-7.4748535
1493777359365	0.037475586	-4.3726654	-3.7769012
1493777359365	-0.64123535	1.3301544	-5.3855743
1493777359365	-6.5348663	-9.812546	-6.780319
1493777359365	-4.5272064	-19.070206	0.16851807
1493777359365	3.294159	-14.841461	5.2338715
1493777359365	-2.7322388	-5.9829407	3.2883606
1493777359365	-5.1533813	-1.8834229	3.9250946
1493777359365	-1.0760651	-5.9465027	7.2933807
1493777359365	1.1047821	-11.628693	4.25354
1493777359365	3.0559387	-12.969879	2.3995667
1493777359365	4.1138916	-13.250885	2.2123566
1493777359365	3.2024841	-12.322403	1.44664
1493777359365	1.1180725	-10.785263	0.65483093
1493777359366	-1.5741577	-8.780334	0.4512329
1493777359366	-2.948578	-8.3103485	0.5256195
1493777359366	-1.8842621	-9.130722	0.45658875
1493777359366	-0.49578857	-9.379181	-0.08769226
1493777359366	0.33673096	-9.395798	0.057235718
1493777359366	0.3139801	-8.924713	0.028442383
1493777359366	0.51246643	-8.539917	0.32209778
1493777359366	1.1841888	-8.74263	0.7727356
1493777359366	1.4427338	-9.613571	0.40242004
1493777359366	1.5196838	-10.208832	-0.7373352
1493777359366	2.0293884	-10.122513	-2.2454987
1493777359366	1.8444214	-10.408554	-2.441391
1493777359366	0.07168579	-11.2625885	-1.7140045
1493777359366	-0.5895233	-11.659744	-0.5628662
1493777359366	0.43759155	-12.062744	-0.200531
1493777359366	0.7963257	-12.75943	-1.6964722
1493777359366	0.9897156	-13.7434845	-3.1882172
1493777359366	1.6965485	-14.644257	-2.1628418
1493777359366	1.6513672	-15.049393	-1.4813385
1493777359366	-0.35803223	-14.248016	-1.114975
1493777359366	-4.229843	-12.998901	-0.78671265
1493777359366	-6.370224	-11.883759	3.5039978
1493777359366	-7.0061493	-13.070511	4.965973
1493777359366	-4.1729584	-14.4313965	2.0447235
1493777359366	-2.874588	-14.771835	-1.881485
1493777359366	2.8768768	-12.955368	-1.248642
1493777359366	4.630707	-11.041397	0.5665741
1493777359366	2.039734	-9.442108	1.2204742
1493777359366	0.2224884	-7.1483154	2.240265
1493777359367	-1.8205872	-6.0316772	3.2376862
1493777359367	-2.7151642	-5.354141	3.4408875
1493777359367	-3.234436	-4.612732	2.939911
1493777359367	-2.8704834	-3.9120026	2.014511
1493777359367	-2.3947906	-3.9144897	1.7449646
1493777359367	-2.410263	-3.2262268	2.3533783
1493777359367	-2.7799988	-2.1135254	2.7107086
1493777359367	-1.5723267	-2.3160248	1.7343292
1493777359367	-0.94285583	-4.398712	-0.6379852
1493777359367	1.5977783	-10.558777	-6.880829
1493777359367	0.21318054	-19.474823	-19.722397
1493777359367	-0.77926636	-19.166748	-19.22702
1493777359367	-0.38529968	-11.391144	-7.589264
1493777359367	1.1440887	-1.183258	-3.543747
1493777359367	-1.916748	-0.75315857	0.1855011
1493777359367	-7.2705383	-14.278931	2.5260925
1493777359367	-3.1131134	-18.890442	-0.43800354
1493777359367	0.5292816	-13.410797	-6.033066
1493777359367	-1.5890198	-3.8851929	6.1175385
1493777359367	-4.7888947	-2.1040344	9.205063
1493777359367	-2.1838531	-8.671448	3.8061676
1493777359367	2.907669	-12.288055	4.326416
1493777359367	4.107315	-12.562332	3.6902313
1493777359367	3.7900238	-12.021606	2.297989
1493777359367	2.416092	-10.952484	1.2326508
1493777359367	0.36083984	-10.312592	0.48988342
1493777359367	-2.0306244	-9.356369	0.3706665
1493777359367	-2.4907074	-9.629974	0.44969177
1493777359367	-1.7165375	-9.335587	-0.38703918
1493777359367	-0.23815918	-8.7591095	-0.52705383
1493777359367	0.45846558	-8.309311	0.44761658
1493777359367	0.89437866	-8.219116	1.8320007
1493777359367	1.4842834	-8.474594	1.1501617
1493777359367	1.586853	-8.689682	0.8738556
1493777359367	1.2161865	-8.925461	0.6391449
1493777359367	0.808136	-9.423874	-0.19361877
1493777359367	1.1843872	-9.837692	-1.2913971
1493777359367	1.5564728	-10.312164	-1.1838837
1493777359367	0.7603607	-10.803436	-1.2749634
1493777359367	0.5538635	-11.430588	-1.1160583
1493777359368	1.3706055	-11.924255	-0.21331787
1493777359368	0.5336151	-12.678162	-1.4719849
1493777359368	0.062164307	-13.64679	-3.6305084
1493777359368	1.4381409	-14.589157	-2.8957672
1493777359368	1.3458099	-15.662903	-2.8563232
1493777359368	-1.0031891	-14.196777	-0.77368164
1493777359368	-3.3633423	-11.549271	1.2432709
1493777359368	-4.2469482	-11.667465	4.4173584
1493777359368	-4.771469	-13.93515	3.327057
1493777359368	-5.421173	-16.98674	0.7818451
1493777359368	-3.9986572	-16.544785	-2.2759094
1493777359368	2.0070953	-13.982895	0.44848633
1493777359368	3.8085175	-12.116821	1.8539581
1493777359368	0.9827728	-9.63681	1.5729218
1493777359368	-1.605835	-7.601227	2.6218262
1493777359368	-1.5766296	-6.407379	3.2296753
1493777359368	-2.2943878	-5.528778	3.135315
1493777359368	-2.2922668	-4.2232056	2.2402954
1493777359368	-1.405014	-3.6768494	2.1611633
1493777359368	-1.496872	-2.6324768	2.3427582
1493777359368	-2.2186584	-1.4579926	2.9570923
1493777359368	-1.9256744	-0.6500702	3.0056
1493777359368	-1.8068695	-1.6399841	2.2409058
1493777359368	-1.1360321	-4.8993073	-0.79603577
1493777359368	-0.98776245	-12.298569	-9.427322
1493777359368	-2.4204102	-19.474823	-19.636017
1493777359368	-0.58825684	-19.015259	-16.62178
1493777359368	0.20906067	-9.6766815	-6.062393
1493777359368	-1.2516022	-0.1269989	-2.6651611
1493777359368	-3.9174957	-1.8160095	-3.1317444
1493777359369	-5.861435	-14.745071	0.6812744
1493777359369	1.9571228	-18.7724	3.957611
1493777359369	0.59906006	-13.348373	-4.122589
1493777359369	-4.181061	-4.5579834	3.7327118
1493777359369	-3.2884827	-1.427887	7.722748
1493777359369	1.0976257	-7.77182	3.9467316
1493777359369	3.8341675	-11.907501	3.5538788
1493777359369	3.7658386	-12.442047	2.7416382
1493777359369	3.0128174	-12.245636	1.9455261
1493777359369	2.0909271	-11.652084	0.68566895
1493777359369	0.20059204	-10.343826	0.19866943
1493777359369	-2.1197205	-8.896378	0.76119995
1493777359369	-1.655014	-9.169449	0.98023987
1493777359369	-1.3257751	-9.136337	0.5373993
1493777359369	-0.3953247	-8.912277	0.7700348
1493777359369	0.19937134	-9.083191	0.6284027
1493777359369	0.047302246	-9.274384	-0.3000183
1493777359369	0.5739441	-9.236542	0.3427124
1493777359369	1.3613434	-9.118103	0.63772583
1493777359369	1.9215698	-9.43634	0.20465088
1493777359369	2.2331543	-9.672653	-1.1717834
1493777359369	2.759674	-9.558426	-1.8244629
1493777359369	2.272293	-9.985565	-0.93136597
1493777359369	-0.08476257	-10.940475	-0.93325806
1493777359369	-0.6618347	-11.50795	-1.5564117
1493777359369	1.1725311	-12.016739	-1.4072113
1493777359369	1.7566681	-12.792633	-2.0599823
1493777359369	2.3532257	-14.380829	-2.9959106
1493777359369	4.0417633	-15.575684	-2.1186523
1493777359369	2.4833832	-15.542023	-2.8572235
1493777359369	-0.8752289	-14.1158905	-2.8574982
1493777359369	-2.6616058	-12.073532	0.027801514
1493777359369	-3.5104828	-11.780685	4.512848
1493777359369	-3.9943237	-13.75798	5.648697
1493777359369	-4.1445007	-15.065186	2.637619
1493777359369	-4.5399017	-15.529602	-1.7808228
1493777359369	1.4223022	-14.1432495	-0.4085083
1493777359369	2.8216553	-12.378433	1.4098663
1493777359369	2.0122375	-10.237518	1.8289337
1493777359369	0.38316345	-8.328751	2.3443298
1493777359369	-1.0953217	-6.6878357	3.6534424
1493777359369	-2.3506927	-5.94075	3.3368378
1493777359370	-2.09964	-5.425354	3.3493347
1493777359370	-1.9759979	-4.7911224	2.248642
1493777359370	-1.8330536	-4.018936	1.9920349
1493777359370	-2.1522217	-2.4572449	2.608307
1493777359370	-2.1462555	-0.6507416	2.6693726
1493777359370	-1.2158203	-0.5654907	2.2823944
1493777359370	0.032714844	-3.128128	-0.35820007
1493777359370	-1.3997192	-7.7204742	-3.7724
1493777359370	-2.9879913	-18.110352	-17.56839
1493777359370	0.64990234	-19.474823	-18.972458
1493777359370	2.710266	-18.525406	-7.4436646
1493777359370	-0.038330078	-7.732025	-3.0651245
1493777359370	-1.0330658	-2.397232	-4.1768036
1493777359370	-7.0081787	-8.626175	-7.358612
1493777359370	-5.182678	-15.563263	0.58828735
1493777359370	3.5310059	-14.441757	7.524063
1493777359370	-1.2823334	-9.106598	-0.85058594
1493777359370	-6.248764	-3.792389	2.7206116
1493777359370	-2.5769348	-4.319977	7.7330017
1493777359370	2.3170319	-10.781296	4.3785706
1493777359370	4.744049	-12.369629	1.6766815
1493777359370	4.636841	-12.120895	2.2531128
1493777359370	3.2727814	-11.856293	1.444809
1493777359370	1.6300659	-11.371277	0.33467102
1493777359370	-0.72151184	-9.91449	0.12915039
1493777359370	-2.6193695	-8.739456	0.8761749
1493777359370	-2.175415	-8.906998	1.160614
1493777359370	-1.8728638	-9.3461	0.4549713
1493777359370	-0.9002228	-9.099365	0.4242859
1493777359370	0.044387817	-8.739227	0.1789093
1493777359370	0.54852295	-8.51265	0.50234985
1493777359370	0.9851837	-8.400742	1.0925751
1493777359370	1.443039	-9.015915	0.8985901
1493777359370	1.8352051	-9.9848175	-0.09112549
1493777359370	2.2277832	-10.186462	-1.6245575
1493777359370	2.2117157	-10.217255	-1.9601288
1493777359370	0.85043335	-10.699326	-0.77423096
1493777359370	-0.29782104	-11.34169	-0.39674377
1493777359370	0.67707825	-11.9953	-0.40116882
1493777359370	1.5031433	-12.530273	-1.037323
1493777359371	1.0983887	-13.477158	-2.9778595
1493777359371	2.627243	-14.03627	-2.01445
1493777359371	3.1177673	-15.133636	-1.8251495
1493777359371	1.8754272	-15.197357	-3.135727
1493777359371	-1.4041138	-13.851761	-1.6433411
1493777359371	-3.7742157	-12.009781	1.0365143
1493777359371	-5.200424	-13.278793	5.05217
1493777359371	-4.492111	-14.30835	5.113144
1493777359371	-4.2349243	-15.40715	1.1668243
1493777359371	-1.7874451	-14.52861	-1.1142273
1493777359371	1.2851868	-14.499878	-0.55015564
1493777359371	2.714859	-11.874283	0.6889496
1493777359371	0.20021057	-8.995911	1.3894806
1493777359371	-0.6327362	-5.995102	3.0572205
1493777359371	-2.2324371	-4.6944275	3.0758057
1493777359371	-2.642517	-4.423416	2.8780212
1493777359371	-2.798706	-4.2083893	2.1129456
1493777359371	-2.4517212	-4.429596	1.3880463
1493777359371	-2.261551	-3.624466	1.7493286
1493777359371	-2.7063446	-1.8495941	2.8078308
1493777359371	-1.5760345	-0.9633484	2.5586853
1493777359371	-0.5652313	-2.3609924	0.9841614
1493777359371	0.7092743	-6.6237183	-2.8252258
1493777359371	-0.4174347	-15.578659	-13.151749
1493777359371	-1.1881104	-19.474823	-17.723267
1493777359371	1.5425568	-18.41455	-11.118317
1493777359371	-0.29666138	-8.665802	-3.8465881
1493777359371	-0.011428833	-2.9223633	-3.0637665
1493777359371	-5.6684265	-7.623413	-3.6419373
1493777359371	-6.507843	-13.748886	2.627472
1493777359371	-0.59957886	-14.048233	1.5791016
1493777359371	0.9769592	-12.678375	-3.0570831
1493777359371	-0.556015	-5.7873535	6.2171936
1493777359372	-3.0688477	-4.924942	5.082489
1493777359372	0.117889404	-9.026764	2.9981842
1493777359372	3.3860931	-11.052933	3.4749146
1493777359372	4.109009	-11.848877	3.5776367
1493777359372	2.9095001	-11.868561	1.9120789
1493777359372	1.059082	-11.44873	0.25782776
1493777359372	-1.2343292	-9.742432	0.5098419
1493777359372	-2.2142334	-9.057236	0.8490143
1493777359372	-1.6899567	-9.375275	0.6923981
1493777359372	-0.70677185	-9.112167	0.416687
1493777359372	0.25299072	-8.721832	0.33818054
1493777359372	0.4154663	-8.563736	0.461792
1493777359372	0.90589905	-8.470978	0.6750183
1493777359372	1.4093018	-8.659164	0.806427
1493777359372	1.2108154	-9.248459	0.42921448
1493777359372	1.1543427	-9.734268	-0.21289063
1493777359372	1.3712616	-9.680618	-1.1695251
1493777359372	1.5353546	-10.075882	-1.5629272
1493777359372	1.0669861	-10.921631	-1.1662903
1493777359372	0.5019684	-11.436325	-1.2913055
1493777359372	1.2541656	-11.7287445	-1.0588379
1493777359372	1.4263763	-12.161072	-1.0473633
1493777359372	-0.015670776	-13.08223	-3.3229523
1493777359372	1.6716919	-14.290405	-3.6155243
1493777359372	3.3067627	-15.134766	-2.648758
1493777359372	2.7004547	-14.933868	-2.721695
1493777359372	-0.7519684	-13.648514	-0.6435089
1493777359372	-3.9189148	-11.527512	1.9074097
1493777359372	-4.643112	-12.137344	5.3838043
1493777359372	-4.132553	-14.037201	3.14122
1493777359372	-3.4412231	-16.524597	0.5657501
1493777359372	-3.2207336	-16.213577	-3.0655975
1493777359372	2.3339233	-15.117462	-0.66918945
1493777359372	3.8620453	-11.649857	1.2345276
1493777359372	0.85494995	-9.036789	1.4354706
1493777359372	-0.14375305	-6.627472	3.189392
1493777359372	-2.1890717	-5.3555145	2.9978027
1493777359372	-2.683487	-4.882141	2.6939697
1493777359372	-2.5290222	-4.002899	2.3096313
1493777359372	-2.0590973	-3.5743103	2.0376892
1493777359372	-2.1513367	-2.829834	2.5886688
1493777359372	-2.9038086	-1.57547	3.2465973
1493777359373	-1.9614105	-0.84039307	2.9063416
1493777359373	-1.1371155	-2.4049683	1.6616974
1493777359373	-0.1643219	-6.246414	-2.2411194
1493777359373	-1.4230652	-14.546265	-13.434082
1493777359373	-1.8675385	-19.474823	-18.086792
1493777359373	1.7973633	-18.470032	-13.123611
1493777359373	-0.37057495	-9.777847	-3.9405823
1493777359373	-1.5777893	-0.7787323	-3.9283752
1493777359373	-2.2658691	-1.1435852	-5.4270782
1493777359373	-5.859726	-10.872894	-0.1326294
1493777359373	-1.4652252	-15.86702	3.7934113
1493777359373	0.64797974	-14.482178	-0.81900024
1493777359373	-2.2453308	-9.082535	0.31118774
1493777359373	-3.658493	-3.9320831	4.787033
1493777359373	-1.4843597	-5.979492	4.9217987
1493777359373	2.2680206	-9.250641	2.6798248
1493777359373	4.2514496	-11.202789	2.6303558
1493777359373	4.3109436	-12.51738	2.0973663
1493777359373	2.5542908	-12.100708	0.87176514
1493777359373	1.3568726	-10.812027	0.69662476
1493777359373	-0.6537323	-9.470383	0.87335205
1493777359373	-2.535431	-8.893066	0.6524811
1493777359373	-2.0174408	-9.062103	0.92840576
1493777359373	-1.0355682	-9.295166	0.44319153
1493777359373	-0.5954437	-8.997284	0.5296631
1493777359373	-0.37623596	-8.61911	0.4031372
1493777359373	0.16337585	-8.562653	0.4051056
1493777359373	0.83306885	-8.768829	1.04393
1493777359373	1.3870087	-9.56427	1.1042938
1493777359373	1.6565094	-10.5624695	-0.12106323
1493777359373	2.247116	-10.600189	-1.4015808
1493777359373	1.9527588	-10.735535	-1.4663391
1493777359373	0.19732666	-11.510849	-1.3091431
1493777359373	-0.69047546	-11.909576	-1.4916077
1493777359373	0.5604553	-12.189453	-1.7309875
1493777359373	1.4251709	-12.427048	-2.0429382
1493777359373	1.5964355	-13.271637	-3.0439148
1493777359373	2.7790833	-14.360916	-1.7207947
1493777359373	1.9088287	-15.847488	-1.4483795
1493777359373	-1.092804	-14.4084015	-0.611969
1493777359373	-3.643158	-11.801422	1.0286713
1493777359373	-4.539627	-10.992157	3.7938538
1493777359374	-4.0988007	-12.999802	3.6990814
1493777359374	-3.8515472	-15.2017975	1.1117096
1493777359374	-3.8751984	-15.6779175	-2.087204
1493777359374	1.8552551	-12.931259	0.58729553
1493777359374	3.0426636	-11.754547	1.2251129
1493777359374	1.5950012	-10.0438385	1.2991943
1493777359374	-0.9241028	-7.0898743	1.2282867
1493777359374	-1.5323029	-5.9982452	2.9368744
1493777359374	-2.98497	-5.27652	2.8401642
1493777359374	-2.8299255	-4.306778	2.625351
1493777359374	-2.379364	-4.1439056	1.9720154
1493777359374	-1.7934418	-3.7704163	2.0792542
1493777359374	-2.0376892	-2.4989166	2.303833
1493777359374	-1.8375092	-1.2883148	2.284668
1493777359374	-0.7612915	-2.321991	1.0111084
1493777359374	0.48269653	-5.2079315	-1.6064758
1493777359374	-0.10169983	-11.438934	-7.393448
1493777359374	-2.2006378	-19.474823	-19.382599
1493777359374	1.2230988	-18.978699	-16.550064
1493777359374	1.5430908	-13.959564	-6.401062
1493777359374	0.361969	-4.6606903	-3.0849915
1493777359375	-0.9191437	-3.4062958	-3.6042175
1493777359375	-5.588974	-13.36026	-2.4382782
1493777359375	-2.8209229	-17.257538	2.6660156
1493777359375	-0.5903778	-12.444809	0.8456421
1493777359375	-3.79924	-5.7328796	2.6516418
1493777359375	-4.2393494	-2.232666	6.5208435
1493777359375	-1.0202942	-6.912842	3.983078
1493777359375	3.474472	-11.315735	3.6628418
1493777359375	4.785095	-12.643723	3.188263
1493777359375	3.739914	-13.042206	2.5047302
1493777359375	1.5837402	-11.909912	1.35289
1493777359375	-1.0157318	-10.139664	0.6951294
1493777359375	-3.3294373	-8.420975	0.64826965
1493777359375	-2.716507	-8.492538	1.0413513
1493777359375	-1.4776154	-9.174271	0.5110626
1493777359375	0.004211426	-9.151154	0.2982025
1493777359375	0.3907013	-8.7827	0.9517212
1493777359375	0.01751709	-8.425476	0.969635
1493777359375	0.6988678	-8.543121	0.681839
1493777359375	1.6113281	-9.181213	0.38330078
1493777359375	1.8407288	-9.819946	-0.3699646
1493777359375	2.1743774	-10.134216	-1.5812073
1493777359375	2.2636414	-10.39534	-2.1367035
1493777359375	1.2319031	-11.058914	-0.9652252
1493777359375	0.013000488	-11.703766	-0.6516571
1493777359375	0.5165405	-11.864151	-0.43067932
1493777359375	0.7046814	-12.146088	-0.29284668
1493777359375	-0.3532257	-12.939362	-1.8427124
1493777359375	1.0977936	-13.778442	-2.2188568
1493777359375	2.8370972	-14.079956	-1.0487976
1493777359375	2.1200714	-15.208694	-1.9616394
1493777359375	-1.2498322	-13.891617	-1.3320923
1493777359375	-4.2126465	-11.849335	0.5270996
1493777359375	-5.4315033	-11.015091	5.666733
1493777359375	-4.7885895	-12.405548	4.8938293
1493777359375	-3.6824646	-14.749466	0.05947876
1493777359375	-3.3835144	-15.589691	-2.0494995
1493777359375	-0.9420929	-13.232544	-0.41862488
1493777359375	3.648285	-12.820038	1.1869965
1493777359375	4.349701	-10.688919	1.2807922
1493777359375	0.5367584	-7.9602814	1.744278
1493777359375	-1.8995056	-6.371155	2.728241
1493777359376	-2.960556	-5.7026367	2.7574768
1493777359376	-2.702179	-5.3143616	2.2701569
1493777359376	-2.5924988	-4.468796	1.7735443
1493777359376	-1.9030457	-4.006485	1.7556763
1493777359376	-1.912384	-2.8826141	2.2383118
1493777359376	-1.634613	-1.6338043	2.4438477
1493777359376	-1.007721	-1.7077637	1.6060486
1493777359376	-0.033081055	-4.074829	-0.64068604
1493777359376	-0.10015869	-8.574402	-5.8430786
1493777359376	-1.2628937	-16.202393	-17.213043
1493777359376	1.4628601	-19.474823	-16.966492
1493777359376	1.8730011	-17.276718	-8.632935
1493777359376	-0.17079163	-8.348312	-3.4062653
1493777359376	-1.4659576	-3.297287	-4.3564453
1493777359376	-4.7006836	-8.924469	-6.48468
1493777359376	-4.3610535	-15.939377	2.2710571
1493777359376	-1.525711	-14.038132	4.8479767
1493777359376	-3.9440002	-9.071793	-1.6087799
1493777359376	-1.7638245	-3.5790253	5.9407654
1493777359376	1.5774689	-6.591522	6.8636017
1493777359376	3.8996887	-11.657211	2.2086487
1493777359376	3.9666595	-12.213882	1.8053589
1493777359376	2.9290771	-11.733765	2.7238007
1493777359376	1.6307068	-11.6792755	1.2190857
1493777359376	-0.4506836	-10.135147	0.4006195
1493777359376	-2.8685455	-8.270554	0.5353546
1493777359376	-1.9323883	-8.528137	1.2258759
1493777359376	-0.66929626	-8.798935	0.6797638
1493777359376	0.092422485	-8.24173	1.0677032
1493777359376	0.33888245	-8.530746	0.9121094
1493777359376	0.15161133	-9.319962	-0.19148254
1493777359376	0.3213501	-9.56752	-0.032821655
1493777359376	1.2040253	-9.750183	0.48306274
1493777359376	1.8407745	-10.2821045	0.08074951
1493777359376	2.1489716	-10.225174	-1.3326111
1493777359376	2.0238037	-10.364761	-2.2337189
1493777359376	0.52993774	-11.385193	-0.99250793
1493777359376	-0.84552	-11.814087	-0.50650024
1493777359376	0.23916626	-11.738907	-0.29049683
1493777359376	1.4398346	-12.039108	-0.44873047
1493777359376	0.25849915	-12.773651	-1.8562927
1493777359376	-0.19488525	-12.587723	-3.324051
1493777359377	2.0134735	-12.260345	-2.37323
1493777359377	2.1134796	-14.83165	-3.8443756
1493777359377	2.023056	-14.3823395	-1.9188385
1493777359377	-0.7523346	-13.397598	-1.0121155
1493777359377	-3.9355316	-12.556488	1.4197388
1493777359377	-6.3128967	-13.340088	4.0706635
1493777359377	-7.1651	-14.0456085	4.893326
1493777359377	-5.950882	-14.521835	2.3642273
1493777359377	1.3284149	-13.342102	-2.1064606
1493777359377	3.7172852	-12.05835	-0.9151764
1493777359377	2.5024872	-10.465622	-0.6119232
1493777359377	0.17346191	-8.036621	0.8016968
1493777359377	-0.64738464	-6.797653	2.2832031
1493777359377	-2.1997375	-6.505432	2.8641815
1493777359377	-2.02742	-5.9984283	2.510147
1493777359377	-1.7608185	-4.6470947	2.086731
1493777359377	-1.6971741	-3.8831482	1.9967804
1493777359377	-2.4037933	-3.0465393	2.5963287
1493777359377	-2.9602966	-1.9961395	3.1139069
1493777359377	-2.2471771	-2.026703	2.282898
1493777359377	-2.0250854	-3.112152	0.9984436
1493777359377	-1.1671143	-7.0260925	-4.0461273
1493777359377	-1.189682	-14.950912	-15.6471405
1493777359377	-2.4642334	-19.474823	-15.846329
1493777359377	-0.42791748	-17.45726	-12.716339
1493777359377	-0.1186676	-8.957382	-4.848526
1493777359377	-1.0991364	-1.0366211	-2.9514618
1493777359377	-2.952301	-3.631897	-4.3656616
1493777359377	-4.4574585	-12.404037	0.73735046
1493777359377	-1.0828857	-15.108704	2.1353455
1493777359377	-0.31565857	-13.914627	-2.3647919
1493777359377	-1.6404724	-8.233612	2.643341
1493777359377	-3.2974548	-4.6649323	5.5393066
1493777359377	-0.8082428	-8.206696	3.5283508
1493777359377	3.533493	-10.551178	3.6406555
1493777359377	4.3863525	-11.770187	3.1214294
1493777359377	2.5942993	-12.325714	2.5026093
1493777359377	1.548996	-11.708298	1.1155396
1493777359377	-0.19372559	-10.456543	0.37719727
1493777359377	-2.675644	-9.241531	0.3093567
1493777359377	-2.7684479	-9.011688	0.54901123
1493777359377	-1.6489105	-9.101257	0.69021606
1493777359377	-0.04345703	-8.658768	0.6696167
1493777359378	0.94462585	-8.557968	0.5804596
1493777359378	1.2662048	-8.586472	1.0726166
1493777359378	1.3537445	-8.687378	1.2722931
1493777359378	1.9418945	-8.956497	0.77627563
1493777359378	2.4725952	-9.492569	0.5708313
1493777359378	2.2027893	-9.763199	-0.28611755
1493777359378	1.0673218	-9.776321	-1.5300293
1493777359378	0.24580383	-10.278351	-1.9104767
1493777359378	0.12586975	-11.31015	-1.5920715
1493777359378	0.32740784	-11.766251	-1.585907
1493777359378	0.42895508	-11.590637	-2.0594025
1493777359378	0.676239	-11.21991	-2.2193909
1493777359378	2.3542786	-11.634445	-2.566391
1493777359378	3.468628	-13.509842	-1.7917328
1493777359378	2.5493011	-14.326355	-1.520462
1493777359378	0.14630127	-13.9986725	1.1712494
1493777359378	-2.677826	-13.094559	1.0127716
1493777359378	-3.494049	-11.507629	3.5010834
1493777359378	-4.617111	-11.136261	4.9172516
1493777359378	-5.3418427	-11.623962	3.8241882
1493777359378	-4.412216	-12.555359	1.9157562
1493777359378	-2.6715698	-12.883087	0.3013916
1493777359378	-0.41500854	-11.527847	-0.43891907
1493777359378	2.7504272	-10.625336	1.0397034
1493777359378	1.0484772	-10.094391	1.4880981
1493777359378	-0.5586853	-9.682129	1.5090637
1493777359378	-2.0987701	-9.296371	0.5063782
1493777359378	-2.4540863	-8.514053	0.7511902
1493777359378	-2.677002	-8.295563	1.7925262
1493777359378	-2.7953644	-6.881897	2.358673
1493777359378	-2.2846375	-5.1776123	2.0400696
1493777359378	-2.6688843	-4.6868744	1.5099335
1493777359378	-2.2516327	-5.0959473	0.5220642
1493777359378	-0.77194214	-6.9032135	-1.2073822
1493777359378	0.53718567	-8.742706	-3.191925
1493777359378	0.22264099	-10.257767	-5.2161407
1493777359378	-0.7635803	-11.693726	-6.590927
1493777359378	-0.62054443	-11.56926	-5.860153
1493777359378	-0.055984497	-11.08992	-3.2966309
1493777359378	-0.26296997	-10.254761	-1.6777039
1493777359378	-1.0360413	-9.190079	-1.2731323
1493777359379	-1.4878235	-8.466797	-1.3057556
1493777359379	-1.311142	-7.9224396	-1.627121
1493777359379	-1.248764	-8.518936	-1.4935455
1493777359379	-2.133072	-9.847809	-0.9256439
1493777359379	-3.499176	-11.19397	0.66830444
1493777359379	-3.896103	-12.13327	2.5904083
1493777359379	-2.7200775	-10.410233	2.9609833
1493777359379	-1.5039215	-8.025177	1.7091217
1493777359379	-0.80288696	-10.250473	1.5720215
1493777359379	0.19657898	-10.0056	1.8538971
1493777359379	-1.7229614	-6.0487823	-0.6421814
1493777359379	-0.33824158	-8.354507	-3.0536346
1493777359379	1.9745636	-11.942062	0.4759674
1493777359379	1.2443237	-10.868011	3.3369598
1493777359379	0.5508728	-10.2452545	2.862793
1493777359379	0.26986694	-11.64064	1.914978
1493777359379	1.0950317	-12.624725	1.4857635
1493777359379	-1.2366486	-14.851822	1.6636353
1493777359379	-5.1019135	-17.455215	2.0198517
1493777359379	-5.813202	-19.066238	1.6704712
1493777359379	-5.9769897	-18.781906	2.5831451
1493777359379	-4.481125	-14.451202	4.140259
1493777359379	-3.6938324	-10.97908	3.2667542
1493777359379	-5.9995728	-15.894302	2.520462
1493777359379	0.7499695	-6.689911	0.70791626
1493777359379	15.897446	-9.677322	15.120209
1493777359379	10.300858	-17.880203	5.130905
1493777359379	0.06349182	-18.023544	-11.667175
1493777359379	-1.6293793	-15.007538	1.7183838
1493777359379	4.5786133	-10.195007	1.2196503
1493777359379	13.338699	-7.610794	7.3934937
1493777359379	12.491486	-5.5288544	10.264069
1493777359379	10.62915	-4.8305054	13.348877
1493777359379	8.055206	-5.7447357	12.5984955
1493777359379	4.628128	-3.1550598	18.922028
1493777359379	-3.7962952	-10.239807	10.097626
1493777359379	-6.36084	-7.3276978	6.14415
1493777359379	-3.7212982	-2.2143402	3.9552765
1493777359379	-1.1801758	-3.6904144	1.543457
1493777359379	-2.0535736	-10.545853	2.026123
1493777359379	-4.4618225	-12.9956665	5.277191
1493777359379	-4.6915894	-5.6864777	7.7453766
1493777359379	-6.604233	-1.3326263	2.312317
1493777359380	-12.637024	-3.7840729	-1.1212158
1493777359380	-10.940613	-1.7627563	0.18077087
1493777359380	-2.8786774	-2.7398376	3.4229126
1493777359380	3.1692505	-4.3251343	13.460617
1493777359380	2.061737	-4.4249268	11.017105
1493777359380	-0.6209717	-0.7679901	5.5944214
1493777359380	8.450256	5.4171753	0.5045929
1493777359380	-2.3703003	1.52742	9.78569
1493777359380	0.20426941	-1.6330719	5.52565
1493777359380	2.148178	-0.63442993	8.381607
1493777359380	1.8584595	0.59562683	10.010712
1493777359380	1.2397919	0.015396118	10.667297
1493777359380	0.85310364	-0.13446045	11.083786
1493777359380	0.26116943	-0.1716156	10.916611
1493777359380	0.26324463	-0.32040405	11.048996
1493777359380	0.4809723	-0.32835388	10.928101
1493777359380	0.17959595	-0.15290833	10.717148
1493777359380	-0.75465393	0.1328125	10.157959
1493777359380	-1.0704346	0.5296478	9.126816
1493777359380	-0.9582977	0.70033264	9.491104
1493777359380	-0.18110657	0.7208252	10.636368
1493777359380	-0.3513031	0.9421234	10.713455
1493777359380	-1.5170441	0.9558716	9.380615
1493777359380	-2.280014	0.9015503	9.326523
1493777359380	-2.0066833	1.3195496	10.39743
1493777359380	-1.5174713	1.8452911	10.292877
1493777359380	-0.59884644	2.4749298	9.028229
1493777359380	0.15763855	2.711258	7.495331
1493777359380	0.41479492	2.9043732	6.2374573
1493777359380	0.62635803	2.502365	6.1670837
1493777359381	0.091659546	1.8278198	7.0264587
1493777359381	-0.18455505	1.1653137	7.7490997
1493777359381	-0.38449097	0.563797	9.052597
1493777359381	-2.085083	-0.34347534	8.827286
1493777359381	-1.7150116	-0.74435425	9.623169
1493777359381	-2.6489258	-1.7880554	8.746262
1493777359381	-2.715088	-2.0163727	8.827789
1493777359381	-2.8175812	-2.1523743	9.187851
1493777359381	-3.2959595	-2.2714233	10.426773
1493777359381	-2.076706	-2.0677185	11.818665
1493777359381	-2.504303	-1.7220917	10.272461
1493777359381	-2.8938446	-1.954483	9.076889
1493777359381	-4.396927	-2.350998	9.566544
1493777359381	-5.47377	-1.977066	12.9240265
1493777359387	-4.1461487	-1.7511139	14.805603
1493777359410	-1.6080322	3.8674622	5.1428986
1493777359427	1.0401001	3.5450592	9.832367
1493777359447	1.1422119	1.0763702	10.131332
1493777359486	1.26474	-0.928421	8.93457
1493777359507	2.5183868	-1.9132843	4.582718
1493777359526	3.7492523	-2.9464417	0.4427185
1493777359546	-2.9137726	-9.659866	19.277008
1493777359566	-0.76057434	-7.4756775	18.58789
1493777359586	4.448288	-3.134613	11.758331
1493777359605	3.7486725	1.9314423	10.412003
1493777359625	1.4972229	1.5965881	10.488251
1493777359645	1.2920227	-1.5960846	7.5105133
1493777359665	-0.45907593	-4.302246	7.4061127
1493777359684	-1.0857697	-3.6050568	10.055511
1493777359704	-0.12657166	-1.5292969	9.728073
1493777359724	-1.5316162	-0.29786682	8.368881
1493777359743	-2.5571594	0.28767395	7.163513
1493777359764	-1.670044	0.9152069	6.958618
1493777359784	-0.06361389	0.99308777	8.279602
1493777359804	0.23165894	0.028045654	12.087311
1493777359824	0.19354248	0.37409973	11.626083
1493777359842	-0.5840912	0.72052	9.086731
1493777359863	0.38267517	0.43162537	10.529587
1493777359882	1.6300659	0.5777283	11.644867
1493777359902	1.9244232	1.6439514	8.433197
1493777359922	0.35731506	1.2712555	7.079468
1493777359941	-0.54296875	1.2337341	7.5102386
1493777359962	-0.4374237	1.6065063	7.346924
1493777359982	0.23426819	1.6203461	7.1091156
1493777360001	2.4340057	0.92803955	10.017487
1493777360021	3.565216	0.6987915	12.576477
1493777360040	3.1521149	0.86557007	12.976303
1493777360061	1.6162567	1.1768188	12.924347
1493777360080	-0.106536865	1.4651031	11.739456
1493777360101	0.073150635	1.4587097	10.130569
1493777360120	1.105072	1.1967773	9.789505
1493777360140	1.6901855	0.8386841	10.089539
1493777360160	2.3515015	0.8616333	9.329407
1493777360179	1.9197998	0.6261902	7.7154694
1493777360200	1.1453857	0.6222229	6.7315674
1493777360219	1.5743713	0.3365326	5.110077
1493777360239	2.472824	-0.15841675	4.9208984
1493777360259	1.8037262	-1.2540283	8.9049835
1493777360284	2.4766846	-1.618454	14.014893
1493777360300	3.8137512	-1.1082306	15.965378
1493777360320	3.359436	-1.4498596	14.634354
1493777360352	4.017914	-1.5492249	7.1375427
1493777360357	2.6944122	-0.5871887	7.89946
1493777360377	3.161728	0.57632446	9.166321
1493777360396	4.474457	0.29852295	9.913162
1493777360416	4.465454	-1.7045898	12.910309
1493777360437	2.0298615	-5.083542	15.167755
1493777360456	1.7598877	-4.1559753	11.25293
1493777360475	0.35577393	-2.2789307	7.617981
1493777360494	-0.13887024	-0.18928528	5.599106
1493777360516	-0.8156738	-0.3223877	6.8985443
1493777360535	-1.1647949	0.71087646	10.308136
1493777360575	-0.9998779	1.6753082	11.701248
1493777360594	-0.18728638	2.6242218	9.676407
1493777360615	-1.8029785	2.1356964	9.304565
1493777360634	-2.1492004	1.5313263	7.5775604
1493777360654	-2.2459717	1.433609	6.9643555
1493777360675	-1.8242188	2.1884918	7.405426
1493777360694	-1.6817017	2.6811218	8.180557
1493777360714	-1.3427429	2.7588348	8.7677
1493777360733	-0.49716187	2.9858856	8.927719
1493777360753	-0.0695343	2.8557281	8.223679
1493777360773	0.2753601	3.073471	7.7831573
1493777360793	0.22409058	3.428772	8.027939
1493777360813	0.0435791	3.7502747	8.34407
1493777360833	0.09024048	3.993103	8.428696
1493777360851	0.117630005	4.0563507	8.300354
1493777360873	0.55540466	4.073593	8.308136
1493777360891	0.8912201	4.054016	8.397476
1493777360911	1.0822144	3.941452	8.516815
1493777360931	1.0275116	3.9807281	8.769897
1493777360950	0.8095093	3.9043427	8.861481
1493777360970	0.92800903	3.6887512	8.660736
1493777360992	1.1420746	3.4945526	8.317978
1493777361010	1.0417023	3.5639343	8.2725525
1493777361030	-0.14474487	3.9090424	8.533936
1493777361051	-2.2220764	4.329315	8.167419
1493777361069	-3.0137634	5.1102753	6.825821
1493777361089	-2.2956696	5.616394	5.8035583
1493777361109	-1.2215881	5.360977	6.2459106
1493777361131	0.33198547	4.9617157	8.407013
1493777361148	1.4723053	4.3862305	11.1189575
1493777361170	1.9227295	3.9866028	12.819565
1493777361188	1.913147	3.8537903	13.148361
1493777361208	1.8275757	3.6701813	12.377243
1493777361228	2.1658173	3.5745544	11.316772
1493777361248	2.8759155	3.5445557	10.789825
1493777361271	3.0484924	3.4430237	10.33609
1493777361322	2.7571259	3.5503082	9.6298065
1493777361322	2.122223	3.8654938	8.953354
1493777361334	1.4159698	4.139801	8.484756
1493777361346	0.7190552	3.8025818	8.184006
1493777361368	0.66941833	3.6734924	8.537308
1493777361387	0.27311707	3.2059631	9.49086
1493777361406	-0.49082947	2.755844	10.1788025
1493777361426	-1.1143036	2.463684	10.531784
1493777361445	-1.3476257	2.2449799	10.616577
1493777361465	-1.2220306	2.2610016	10.531448
1493777361486	-1.0928802	2.1719208	9.702332
1493777361505	-0.74287415	2.1906433	8.968872
1493777361526	-0.86582947	2.1566315	8.285477
1493777361545	-1.2890472	1.950531	7.4605255
1493777361566	-1.424118	1.9075317	7.0351563
1493777361584	-1.5845642	1.662262	7.2358704
1493777361605	-1.3913422	1.3686981	7.4086304
1493777361623	-0.73931885	1.1049957	7.1955566
1493777361643	-1.1460876	0.88500977	4.5961914
1493777361663	-1.9307098	0.87734985	2.8131409
1493777361702	-0.64630127	0.6587372	1.709732
1493777361722	0.4437561	0.48739624	1.5648499
1493777361742	1.0608673	0.06253052	3.6520996
1493777361762	-0.07133484	-0.8892975	7.3556824
1493777361782	-1.0350189	-1.70784	7.283203
1493777361803	-1.1473236	-0.59503174	7.3766937
1493777361821	0.06590271	0.4646454	8.557388
1493777361841	0.0152282715	-0.018585205	9.542023
1493777361861	0.22749329	0.7276001	3.7851715
1493777361881	1.2215271	0.018051147	3.721817
1493777361900	1.3810883	-0.84114075	16.249298
1493777361920	1.8922882	-0.5440979	19.277008
1493777361940	2.3259125	0.4992981	19.277008
1493777361958	1.5533447	-0.044509888	19.18489
1493777361980	1.559372	0.043518066	19.020126
1493777362000	1.3342133	0.90065	19.277008
1493777362019	1.3562927	1.7374573	18.999603
1493777362039	1.0211945	2.3840332	17.70259
1493777362058	0.74017334	2.699173	15.886612
1493777362078	-0.5491333	2.0559845	14.890335
1493777362098	-2.1691132	1.7361908	13.464767
1493777362118	-2.5902405	1.5994873	10.42363
1493777362138	-1.5703888	1.6404114	8.263168
1493777362157	-0.24371338	2.129715	7.948868
1493777362178	-0.74520874	2.5718536	7.497986
1493777362197	-1.269165	2.3015137	6.865906
1493777362217	0.14506531	1.8833313	8.037659
1493777362237	1.4173126	2.1916656	11.4943695
1493777362255	0.83114624	2.4636078	12.339127
1493777362277	0.20100403	1.4443054	10.214996
1493777362296	0.61328125	0.9955139	8.4711
1493777362316	0.71476746	1.3186188	8.062881
1493777362336	-0.04043579	0.8595276	8.345978
1493777362355	-0.10774231	0.07821655	8.417587
1493777362375	0.6890106	-0.38319397	8.8979645
1493777362395	1.2719727	-0.6269531	9.232193
1493777362415	1.7543793	-0.4429779	9.620163
1493777362434	2.3158264	0.19151306	11.256485
1493777362454	1.8231201	0.6896057	11.537231
1493777362474	0.4744873	0.7411499	10.793503
1493777362493	0.2459259	0.71961975	8.388504
1493777362514	1.194397	0.63375854	7.237152
1493777362534	1.718399	0.6744232	7.237259
1493777362553	2.0816956	0.6822815	7.684845
1493777362573	2.7005005	0.6095276	8.186325
1493777362592	2.7713623	-0.33255005	12.023407
1493777362612	2.5573883	-1.0193787	11.777893
1493777362633	2.9873962	-1.446106	9.578888
1493777362652	3.5219116	-1.6690979	10.665024
1493777362672	4.5121	-1.7384338	10.442978
1493777362692	3.9678497	-2.0088348	10.016785
1493777362713	2.7602234	-2.0529785	10.074387
1493777362731	2.5003204	-1.5466766	9.974548
1493777362751	1.793335	-2.1066895	9.827698
1493777362771	2.057434	-2.6171112	9.729782
1493777362809	2.2189636	-2.148758	11.044556
1493777362830	2.4057922	-1.5782623	15.433029
1493777362850	1.8410492	-2.2387238	15.689224
1493777362869	0.49569702	-0.58428955	14.699219
1493777362889	0.60243225	-0.8740082	9.094894
1493777362909	0.8851471	0.12730408	6.8740997
1493777362929	0.48121643	0.57328796	7.1399384
1493777362949	0.14582825	0.9470215	8.8341675
1493777362969	1.3848724	1.3321075	11.08783
1493777362988	2.0481567	1.2184906	12.96051
1493777363008	1.8866882	0.21936035	10.62088
1493777363028	2.010147	-0.06414795	7.830902
1493777363048	1.8513641	0.3449707	5.908249
1493777363067	1.5051422	0.22851563	6.723999
1493777363087	1.3539276	0.1410675	8.058411
1493777363107	1.3335266	0.17666626	7.5926514
1493777363127	1.1733246	0.48760986	7.492325
1493777363146	1.5983582	0.60513306	7.9248047
1493777363169	2.3568115	0.45462036	8.002289
1493777363186	2.2373352	0.7389679	6.9615326
1493777363206	1.3261719	1.0500183	7.8645935
1493777363225	1.2655945	1.9228058	10.235138
1493777363245	1.1018372	1.9159851	10.778122
1493777363264	0.9911957	1.874527	9.194458
1493777363285	-0.24224854	2.3370514	8.623703
1493777363305	-1.9725647	3.119049	9.602585
1493777363324	-2.3391418	4.0157776	11.124863
1493777363344	-2.662033	3.857544	11.225876
1493777363363	-1.7550964	2.5791168	10.95192
1493777363384	-0.7669983	2.0496368	11.737778
1493777363403	-0.63282776	1.8741302	12.758484
1493777363423	0.17433167	1.2758026	13.015564
1493777363443	1.0139618	0.47717285	11.982208
1493777363463	1.170227	0.041625977	10.540024
1493777363483	1.1115723	0.8078613	9.285522
1493777363502	0.6403351	1.4476624	8.504379
1493777363522	0.67033386	1.3402863	7.759857
1493777363542	1.2808838	0.9138794	8.043015
1493777363562	1.7402191	0.73854065	9.479385
1493777363582	1.7283478	1.1204071	10.047989
1493777363601	1.0294952	1.8266754	9.606888
1493777363621	0.13391113	2.7655487	8.620438
1493777363641	-0.96476746	3.4663696	7.559433
1493777363661	-0.92274475	3.5355377	6.3747253
1493777363680	-0.0104522705	3.003296	6.4202576
1493777363703	0.2682495	2.665924	8.558884
1493777363719	0.0019989014	2.6767273	9.415543
1493777363740	0.10723877	2.6965027	8.582092
1493777363759	0.919281	2.2922363	7.034012
1493777363779	1.6482544	1.9264221	6.534897
1493777363799	0.9808655	2.0433807	7.267288
1493777363818	1.7734222	2.3263702	8.318909
1493777363839	1.2315369	2.9331055	9.8694
1493777363858	0.14759827	3.107071	9.871033
1493777363878	-0.41125488	2.9865417	7.77594
1493777363917	-1.5486145	3.3578033	4.402527
1493777363938	-2.2391663	3.4106293	10.733017
1493777363957	1.7460785	4.6334534	12.848877
1493777363977	2.1725922	3.1672668	13.466324
1493777363997	1.8573914	3.1409302	12.375793
1493777364017	2.793869	3.0420532	13.611847
1493777364036	3.0640106	1.6418915	13.745544
1493777364056	4.05159	0.15002441	13.310822
1493777364076	3.1033173	0.15383911	13.309647
1493777364096	0.8002167	1.7269135	12.618881
1493777364115	0.114715576	2.5046844	10.335739
1493777364135	0.32736206	3.0591583	8.676743
1493777364155	-0.07029724	3.6381073	7.1343536
1493777364174	-1.7829895	2.3170624	8.838715
1493777364195	-1.3818817	1.3478851	10.0234375
1493777364214	-0.23233032	1.0434265	10.719986
1493777364236	0.47940063	2.0086365	10.508881
1493777364254	0.24035645	2.5056763	9.141037
1493777364273	-0.10050964	2.4890442	7.354431
1493777364294	-0.1280365	2.663391	6.7162323
1493777364313	-0.38952637	2.6078339	7.7664948
1493777364333	-0.41197205	2.9275208	8.469437
1493777364353	-0.3555603	3.262268	7.979187
1493777364372	0.50927734	3.5960083	7.5922546
1493777364392	1.2997742	3.5414276	8.242569
1493777364412	0.9922638	3.0276794	9.2473755
1493777364432	0.33909607	2.7781067	8.937439
1493777364452	0.7377777	3.233307	9.184479
1493777364471	2.5788727	3.740158	9.525986
1493777364491	2.87146	3.4739685	8.574585
1493777364511	1.9708862	2.9207153	9.0529785
1493777364531	1.820694	3.1971893	9.673309
1493777364551	1.6601257	3.8381958	10.151398
1493777364570	0.61416626	3.8850555	10.359619
1493777364591	-0.7067261	3.2369537	10.167816
1493777364610	-1.0737	2.910431	9.758575
1493777364630	-0.6434021	2.8149567	8.268494
1493777364649	0.5258789	2.3804474	10.308075
1493777364669	1.4588623	2.72435	11.766327
1493777364689	0.5290222	2.6312103	10.960327
1493777364709	-0.062072754	2.688095	9.712875
1493777364729	0.21855164	3.4270782	9.045975
1493777364748	0.5565033	3.6609497	8.529709
1493777364768	0.20643616	3.7221527	7.517914
1493777364788	-0.22032166	3.8748932	6.892456
1493777364808	-0.8354492	3.6678772	7.991562
1493777364827	-0.063323975	3.0638885	8.39801
1493777364848	1.8488312	3.6831665	9.130707
1493777364896	1.9166107	3.337387	7.577606
1493777364896	3.0361176	3.8482513	6.4405365
1493777364910	0.30039978	3.2453308	7.9635315
1493777364929	0.8526306	4.3038635	9.237152
1493777364947	1.1438293	4.263687	7.7974854
1493777364966	1.046524	4.152176	7.159012
1493777365006	0.89756775	4.4030457	7.241577
1493777365025	1.1878967	4.6440887	7.037689
1493777365045	1.1068878	4.5743256	5.919464
1493777365065	1.5568542	4.5279846	6.5950165
1493777365085	1.7606659	4.6730347	9.214905
1493777365105	2.2540588	4.63472	10.395767
1493777365125	2.0531921	4.195038	11.083267
1493777365144	1.7492371	5.1099243	9.210083
1493777365164	1.831604	5.3646393	7.125992
1493777365184	1.8944092	5.1104126	6.580078
1493777365204	1.2561798	4.86409	8.518631
1493777365224	1.3230743	4.657593	10.756195
1493777365243	1.3979034	3.9455109	10.9730835
1493777365263	1.7761688	3.5957336	10.343079
1493777365281	1.9262085	3.613739	9.564301
1493777365302	1.9548492	3.8827515	8.579254
1493777365322	2.1742249	3.9910126	8.465744
1493777365342	2.2352448	3.8342438	9.5121765
1493777365362	2.240265	3.5886536	9.562073
1493777365381	2.09404	3.6286926	7.8771667
1493777365402	1.250473	3.7748108	7.1007385
1493777365421	1.1333008	3.491394	7.6904297
1493777365441	1.6537018	3.232895	8.890228
1493777365461	2.099884	3.3494263	9.212387
1493777365479	2.3739014	3.496643	7.7015533
