accelerometer_timestamp	accelerometer_x_data	accelerometer_y_data	accelerometer_z_data
1493694821339	1.6226044	4.389618	9.616013
1493694821358	1.7318573	4.4943542	10.140488
1493694821381	0.77638245	4.4115295	10.08194
1493694821398	-0.2325592	4.470154	8.941803
1493694821418	-0.20144653	4.7215424	7.2712555
1493694821437	0.17756653	4.6953583	6.5027924
1493694821457	0.43688965	4.5130005	7.2668
1493694821477	0.693161	4.614517	8.430252
1493694821497	0.76594543	4.6554413	9.672363
1493694821516	0.75053406	4.5328217	10.047775
1493694821536	0.6407471	4.4141083	8.979385
1493694821556	0.42121887	4.749695	8.279388
1493694821576	-0.09933472	4.9453125	8.208893
1493694821595	0.18241882	4.8533325	8.600449
1493694821615	0.567688	4.9702454	9.5238495
1493694821636	0.36312866	4.737976	10.3103485
1493694821655	-0.3625183	5.025955	9.242035
1493694821694	-0.22798157	5.2897797	9.220886
1493694821714	0.12220764	4.9542847	8.034012
1493694821734	0.38050842	5.002716	7.560898
1493694821753	0.072509766	4.76474	7.9732056
1493694821773	-0.2695923	3.9874268	9.186813
1493694821793	-0.62783813	3.524292	10.143539
1493694821813	-1.1107025	3.6740112	9.143631
1493694821833	-0.102386475	4.1219788	9.292877
1493694821852	-0.009140015	3.8878632	8.548584
1493694821872	-0.6277771	4.0205536	7.7655487
1493694821892	-2.8654175	4.4842224	6.9297028
1493694821912	-2.4434357	4.7006836	6.5285034
1493694821931	-1.1674042	4.4015656	7.571335
1493694821951	-0.58898926	4.3625183	9.599777
1493694821971	-0.6125946	4.966629	10.267685
1493694821991	-1.7556763	5.2781982	9.230759
1493694822011	-2.8620453	5.3130035	7.529999
1493694822030	-2.1922607	4.6777954	8.531067
1493694822050	0.11105347	4.660965	9.006485
1493694822070	0.057052612	4.646286	9.174515
1493694822090	-0.5813751	4.738449	8.318359
1493694822110	-1.3197937	4.6113434	7.3040924
1493694822129	-1.3085175	4.7431946	7.56308
1493694822149	-0.64378357	4.4719696	7.05011
1493694822169	-0.86763	4.6629486	8.088821
1493694822188	-2.225998	4.9305267	8.55986
1493694822208	-2.7411194	4.721298	7.559189
1493694822228	-1.7812958	4.215744	7.539139
1493694822247	-0.34658813	3.8498535	8.312408
1493694822268	1.4270935	4.5637665	8.805695
1493694822287	0.6005249	6.06662	8.179291
1493694822307	-0.4851532	6.625992	8.508011
1493694822330	0.02557373	6.692917	9.265152
1493694822347	0.50909424	5.8538055	9.331863
1493694822366	0.41513062	4.3644257	7.8898926
1493694822394	0.19747925	3.731369	5.4145203
1493694822424	-0.40634155	4.1257935	8.094574
1493694822430	1.0307922	3.2541962	9.278503
1493694822446	1.5106049	3.4835205	10.492905
1493694822465	0.03416443	2.411255	8.897018
1493694822485	-0.2971344	2.5535889	9.574936
1493694822505	-0.7411194	3.9787903	9.928635
1493694822524	-0.6419525	3.282364	8.9748535
1493694822544	-0.6682434	3.304245	6.9125977
1493694822564	-0.7963104	5.228592	6.862091
1493694822584	-3.1781616	5.846924	5.6870728
1493694822603	-4.2190857	6.4839935	5.915695
1493694822623	-3.925415	7.4121246	7.258072
1493694822643	-1.522171	6.8837585	10.002274
1493694822663	-1.979599	7.265976	8.061081
1493694822682	-4.471924	5.8782196	5.146164
1493694822702	-5.109497	5.934952	1.7684631
1493694822722	-5.5794067	5.9190826	2.5566406
1493694822762	-6.3247833	7.794235	5.9004517
1493694822781	-8.687515	7.8663483	4.1538696
1493694822801	-11.414505	5.549118	0.3948822
1493694822821	-11.070007	7.2753754	-0.3812561
1493694822841	-10.482162	5.3633423	-1.2047424
1493694822862	-9.108261	5.7706146	0.62228394
1493694822883	-11.8042755	6.547928	4.9100647
1493694822900	-8.759888	6.18309	5.1736145
1493694822920	-6.2561493	5.547165	4.555786
1493694822940	-4.031479	5.977539	4.7871094
1493694822959	-3.9248047	7.0191803	8.227661
1493694822979	-2.1287994	9.054733	10.633774
1493694822999	-3.52948	7.3084564	8.416626
1493694823018	-3.2444305	6.968796	7.27594
1493694823038	-2.0501404	6.68042	7.0625763
1493694823058	-0.37342834	6.85849	7.9321747
1493694823078	0.09358215	6.7946167	8.662567
1493694823098	-1.2662048	6.0956116	8.682037
1493694823117	-2.9184113	4.8934326	6.9455414
1493694823137	-2.9487152	3.8434448	4.794632
1493694823160	-3.9780731	5.227997	7.342499
1493694823177	-3.6809692	6.6922607	10.249863
1493694823198	-3.0606384	5.389618	8.581818
1493694823217	-3.928421	3.5237885	6.2928925
1493694823236	-5.594635	3.705536	7.3536987
1493694823256	-6.7675323	4.5201263	9.549377
1493694823276	-7.3883514	4.0349426	8.955215
1493694823296	-7.9736633	3.6692963	5.9076385
1493694823315	-7.367935	1.6284332	3.1753082
1493694823335	3.9738312	6.99469	11.742096
1493694823355	-0.10638428	5.5462494	12.311707
1493694823374	-0.97052	4.5048065	6.7944946
1493694823394	1.3085632	4.788376	8.155304
1493694823414	-2.3034668	4.4125824	7.153305
1493694823434	-3.9676514	6.5546417	5.1698914
1493694823453	-4.991226	5.774048	2.3591766
1493694823473	-1.69487	6.1511383	7.7040405
1493694823493	-3.1170807	5.8749084	3.7281036
1493694823513	-2.1936035	6.1627045	3.639801
1493694823533	1.8441925	5.611557	4.1180725
1493694823552	-2.9401093	-0.73779297	2.6255035
1493694823572	-0.8526764	-0.41419983	1.8371582
1493694823592	0.104400635	0.014328003	1.9552155
1493694823612	-0.96565247	1.1203308	4.248169
1493694823631	-0.9766998	5.5850067	6.2123566
1493694823651	-1.9199219	12.543854	8.087982
1493694823671	-12.4604645	18.796219	7.1531525
1493694823691	-15.988922	17.143326	1.2973328
1493694823710	-19.257507	10.531952	0.37098694
1493694823730	-19.53836	4.5487823	0.72431946
1493694823750	-17.41806	5.5680237	-4.1211243
1493694823770	-16.299149	1.9607086	-2.6474762
1493694823790	-6.381668	5.8247375	-7.1265717
1493694823829	-5.40213	3.5836487	-6.015793
1493694823849	-4.465378	2.751358	-5.591629
1493694823869	-4.4765472	1.1653595	-3.5138702
1493694823888	-6.550125	2.215561	-2.5986786
1493694823908	-6.3705597	3.762741	-5.7239532
1493694823928	-9.511734	5.0740967	-2.320633
1493694823948	-8.830719	7.078964	-3.0517426
1493694823967	-11.145172	7.6403503	-1.4722137
1493694823987	-10.811844	9.835602	0.5925751
1493694824007	-7.082367	10.797607	3.0840302
1493694824027	-6.1635895	7.794815	0.9006653
1493694824046	-8.225037	2.7033691	-1.3825989
1493694824066	-11.039322	0.38671875	-3.3656616
1493694824086	-8.799179	0.3531494	-2.934494
1493694824106	-8.538849	-1.7816162	-2.7804108
1493694824126	-9.914673	-2.9845276	-3.9001007
1493694824145	-9.583542	-1.5354156	-4.472122
1493694824165	-10.853287	-0.86590576	-6.4095306
1493694824185	-9.288147	1.7655029	-5.3342285
1493694824205	-7.576996	2.9876556	-3.8458557
1493694824224	-6.6739655	4.06279	-4.385559
1493694824244	-6.625885	4.5709076	-0.5301056
1493694824264	-8.292831	3.0706482	2.6706085
1493694824284	-8.764282	3.9969482	7.4476166
1493694824303	-8.001923	12.245834	11.723267
1493694824323	-9.884781	18.06932	5.3280334
1493694824343	-12.769562	14.10022	-0.3618927
1493694824363	-14.29953	10.798264	4.550415
1493694824383	-5.3608856	7.9929657	-6.8575134
1493694824402	2.8972626	4.9609833	-11.656052
1493694824422	0.27082825	4.0648956	-3.2180939
1493694824442	-3.9925995	4.444931	-1.918747
1493694824462	-6.419525	3.3088074	-1.8090363
1493694824482	-8.369431	2.1671753	-1.2380829
1493694824502	-9.809525	1.7382355	0.7837982
1493694853291	-8.318359	2.5733337	5.528839
1493694853291	-3.06398	5.0135956	10.43602
1493694853291	-1.6787567	6.1490936	4.4509735
1493694853291	-2.4775696	5.4952087	0.8773041
1493694853291	-0.68348694	4.617462	0.44474792
1493694853291	4.9439545	5.016403	2.9090576
1493694853291	4.227707	3.745987	2.3802032
1493694853291	3.6017914	3.5593872	-3.9728546
1493694853291	2.3108215	3.198761	-1.0321503
1493694853291	0.71032715	3.3259125	1.9727478
1493694853291	16.58493	17.081573	16.72052
1493694853291	19.461044	18.570724	-11.429428
1493694853291	7.385269	9.0624695	-13.069275
1493694853291	2.0307312	11.650055	-0.77638245
1493694853291	2.7434845	13.989471	4.404236
1493694853291	3.2699127	13.254944	3.128296
1493694853291	3.0112457	12.290207	1.8761902
1493694853291	3.5267944	12.74086	-1.2709503
1493694853292	3.585678	10.099762	3.614334
1493694853292	5.7467804	7.7068176	1.4385223
1493694853292	7.2389526	8.7647705	1.35112
1493694853292	8.197876	9.265701	2.1696167
1493694853292	6.8981934	9.987427	2.0606384
1493694853292	4.0804443	11.738052	-0.72328186
1493694853292	2.6350403	10.702789	-4.8125
1493694853292	1.9052887	9.486557	-0.23605347
1493694853292	5.9813538	10.569534	2.6235504
1493694853292	1.5290375	7.0446777	3.434082
1493694853292	1.9941101	3.679657	3.361496
1493694853292	4.4885406	2.5039063	-3.7385101
1493694853292	3.4861145	1.7731628	0.9867859
1493694853292	2.6561737	4.8633423	0.14434814
1493694853292	3.4367828	3.6690521	-1.382309
1493694853292	3.8316956	2.1012268	-4.03067
1493694853292	3.019989	1.4575195	-2.89682
1493694853292	2.947525	3.7392426	-5.321533
1493694853292	5.156433	6.068619	-10.369904
1493694853292	5.9536743	7.5010986	-16.375534
1493694853292	5.495102	13.839493	-12.143127
1493694853292	5.1912537	15.36911	-4.256897
1493694853292	3.2989044	10.876297	-4.438385
1493694853292	2.8997955	6.2958527	-5.1822205
1493694853292	7.483902	8.056961	-6.598572
1493694853292	11.055496	10.418259	-5.540634
1493694853292	8.974625	13.140427	0.6549988
1493694853292	3.019638	12.135941	4.5998993
1493694853292	1.9357147	7.9689026	6.1176605
1493694853292	1.5791626	4.894226	6.123337
1493694853292	2.9406433	6.7486877	0.66734314
1493694853292	4.5240936	11.006699	-1.2749023
1493694853292	4.0088806	10.97168	-2.802948
1493694853292	4.4738464	10.141373	-3.917572
1493694853293	4.8964386	9.080444	-2.392746
1493694853293	5.7876434	7.9066467	-0.42607117
1493694853293	5.269394	8.218185	2.1578674
1493694853293	3.4775543	6.295761	-0.8128052
1493694853293	3.019394	5.369919	-1.9252167
1493694853293	3.0563507	6.3945923	0.63409424
1493694853293	2.813385	7.975479	1.6306
1493694853293	2.245346	8.6106415	-0.6139984
1493694853293	0.60821533	9.066315	-0.7006836
1493694853293	-1.6585388	7.8903503	0.2277832
1493694853293	-2.6905823	5.3737335	1.2355194
1493694853293	-6.9402313	3.1811523	3.7264252
1493694853293	-8.200348	4.517044	3.9985657
1493694853293	-4.4996643	8.243164	-0.66207886
1493694853293	-2.6260834	11.524796	-2.5297089
1493694853293	-4.8746033	14.460266	-2.741684
1493694853293	-3.7621765	12.555939	0.46617126
1493694853293	-1.7410736	12.977798	-1.4289551
1493694853293	-0.52497864	17.170517	1.785202
1493694853293	0.577652	17.023956	-2.6718292
1493694853293	-2.8455353	12.26976	2.0183563
1493694853293	-3.0159454	8.600098	2.88208
1493694853293	-0.9627228	8.126877	3.9858246
1493694853293	-2.9608154	8.471024	-0.70936584
1493694853293	-2.7240448	8.916351	-1.281601
1493694853293	12.077011	19.28801	-0.25213623
1493694853293	14.3919525	16.80333	-5.4646454
1493694853293	14.679825	11.2122345	-7.1407166
1493694853293	-0.46095276	8.065109	7.742996
1493694853293	-2.08844	8.308685	6.699051
1493694853293	-0.5742798	6.9650116	2.1295624
1493694853293	0.1010437	2.8143616	2.0308838
1493694853293	4.705658	3.161148	1.648468
1493694853293	4.9672546	2.624176	1.0709686
1493694853293	4.27948	2.5510406	0.21374512
1493694853293	3.8488617	2.6474304	-1.6109924
1493694853293	3.697647	2.0327759	-4.0795135
1493694853293	3.3760986	1.8029633	-5.5252533
1493694853293	3.1124268	2.7519226	-8.292984
1493694853293	2.8296661	5.7972565	-11.442993
1493694853293	2.4165192	13.003967	-11.88913
1493694853294	4.2535553	19.524582	-7.878189
1493694853294	5.2330475	16.243973	-4.1638184
1493694853294	3.1002808	7.5030212	-7.2605133
1493694853294	3.3066406	1.3959045	-11.082138
1493694853294	5.6462097	3.6092072	-10.155075
1493694853294	7.1172485	10.791672	-5.8654633
1493694853294	9.352112	13.442383	5.4572144
1493694853294	5.483612	9.731964	7.2048035
1493694853294	1.518158	5.5409393	-2.7796783
1493694853294	4.227127	4.8301697	-3.193039
1493694853294	5.1730194	5.6475983	0.35621643
1493694853294	2.876892	6.6354675	5.262741
1493694853294	1.8409271	10.600418	11.108124
1493694853294	0.37391663	15.475342	12.734833
1493694853295	-0.65766907	14.34729	7.2469177
1493694853295	0.20266724	10.630569	-3.3901978
1493694853295	1.9229431	7.839432	-6.145279
1493694853295	2.4950562	7.874405	-2.5294342
1493694853295	1.9958801	7.8213806	2.7342682
1493694853295	1.7922668	6.9431305	1.8856964
1493694853295	1.1906738	6.5895233	-0.6187744
1493694853295	1.5189667	6.6942596	-2.709198
1493694853295	1.8599548	7.1223297	0.33787537
1493694853295	1.9702606	7.8605347	1.1404266
1493694853295	1.2903137	9.362366	0.5405121
1493694853295	0.32382202	10.669662	-1.1771545
1493694853295	0.0063323975	12.818848	-2.0200348
1493694853295	2.0457764	13.516586	-1.5829773
1493694853295	1.1855011	11.83432	-0.42977905
1493694853295	0.22421265	11.758118	0.65641785
1493694853295	0.9540863	12.144257	-1.7459259
1493694853295	0.59690857	12.068481	1.2038727
1493694853295	2.6663818	17.34291	2.2615204
1493694853296	1.9715424	15.961807	-1.0689697
1493694853296	1.5488281	10.745575	2.4962616
1493694853296	2.3146973	9.915924	4.8464355
1493694853296	3.841751	9.391586	0.94355774
1493694853296	6.1251984	10.583786	0.9855652
1493694853296	8.129669	13.853973	-2.591507
1493694853296	8.304504	14.756744	-7.1269073
1493694853296	3.3214264	12.937622	-3.3625488
1493694853296	-1.661972	11.757172	6.1434937
1493694853296	-2.4902496	11.988312	8.033752
1493694853296	-1.6343384	6.6416473	1.9457245
1493694853296	1.9446869	2.7511902	3.6882782
1493694853296	3.9155731	1.8919678	2.7389832
1493694853297	4.884262	2.3782349	0.60388184
1493694853297	4.974579	2.6445618	-0.34892273
1493694853297	5.026413	2.9075012	-1.3658752
1493694853297	4.4298096	2.104004	-2.0907593
1493694853297	3.595932	1.0020294	-4.179825
1493694853297	3.707901	1.9908752	-5.672119
1493694853297	3.6552734	5.8537445	-6.748703
1493694853297	1.6229858	13.742676	-12.929733
1493694853297	1.5477753	19.524582	-14.385284
1493694853297	5.514694	15.333618	-6.651581
1493694853297	2.643341	5.700592	-6.9855957
1493694853297	0.302948	0.64801025	-7.049301
1493694853297	2.9932098	2.3168182	-5.612488
1493694853297	6.364975	6.4312134	-3.6871643
1493694853298	10.226791	12.258331	0.9364319
1493694853298	7.3979645	17.725845	0.8639221
1493694853298	3.4492493	12.902512	-0.6508789
1493694853298	3.4016724	6.2286987	-0.08862305
1493694853298	2.4594421	5.5735474	-0.07814026
1493694853298	2.015915	6.454666	2.324417
1493694853298	1.8951416	8.334625	7.7839203
1493694853298	2.5366669	11.912109	11.156326
1493694853298	0.12792969	12.1502075	8.96698
1493694853301	-0.58914185	10.565826	-2.4360504
1493694853301	0.6842346	9.717209	-4.2927856
1493694853301	2.3302765	8.525513	-4.9709625
1493694853301	2.2678528	8.265976	-2.7417297
1493694853301	1.7526398	7.5855865	2.3737793
1493694853301	1.947113	6.8448486	1.2201843
1493694853301	1.9304199	6.9045105	-1.2093811
1493694853301	1.2416077	7.2312775	-1.039093
1493694853301	0.5045929	7.982239	0.3959198
1493694853301	0.024612427	8.6315	-0.105270386
1493694853301	0.08654785	9.995743	-0.8101654
1493694853301	1.416153	12.4088745	0.15934753
1493694853301	2.6913147	12.991638	-2.6802826
1493694853301	1.7932129	11.517059	-3.171463
1493694853301	0.29296875	11.963242	-0.03955078
1493694853301	-2.5043182	12.97525	-1.334137
1493694853301	0.12420654	13.911331	0.7971649
1493694853301	1.1100616	15.043518	2.6319427
1493694853301	1.2133026	14.617889	-0.2561493
1493694853301	1.766922	11.641632	2.6285248
1493694853301	2.753891	9.888931	3.059433
1493694853301	4.6256104	9.801025	0.13957214
1493694853301	6.1887665	10.370117	-1.0309601
1493694853301	8.036133	12.0638275	-1.9133759
1493694853301	8.467773	13.699097	-3.6146545
1493694853301	2.7286072	11.9813385	-2.2289886
1493694853301	-0.3533783	11.830368	1.9056854
1493694853301	-2.5325317	12.29509	5.604187
1493694853301	-2.9888763	8.606827	0.04623413
1493694853301	0.06863403	3.2532501	3.5054321
1493694853301	3.8738708	2.3729553	2.8423767
1493694853301	5.0987396	2.7237396	1.2586212
1493694853301	4.7700195	2.6492004	0.4898529
1493694853301	4.635498	3.0820313	-0.21760559
1493694853301	4.85347	2.5955658	-2.5086517
1493694853301	4.283844	1.302597	-5.510391
1493694853301	3.59581	1.758728	-7.363617
1493694853301	2.859146	5.6825867	-9.362137
1493694853301	2.0070343	12.291016	-12.681198
1493694853302	3.7880554	17.200699	-12.417419
1493694853302	5.9754486	15.855804	-5.8867188
1493694853302	3.1964874	8.039276	-2.698059
1493694853302	2.631836	5.872177	-5.674591
1493694853302	5.2814026	9.839447	-7.7782593
1493694853302	7.002136	12.484451	-4.8626556
1493694853302	7.2132416	10.376236	2.4605255
1493694853302	3.9763947	6.295105	0.8549347
1493694853302	2.427246	4.797867	-3.911148
1493694853302	3.2987518	5.729889	-1.0023346
1493694853302	4.4941864	7.678589	3.454422
1493694853302	2.128891	9.461777	9.390564
1493694853302	1.3152008	13.439087	12.94693
1493694853302	0.12792969	13.743683	7.751465
1493694853302	-1.4122314	10.734802	-2.162262
1493694853302	1.3961334	8.640106	-5.536194
1493694853302	1.7620087	8.396759	-3.6408997
1493694853302	1.9624939	7.9876556	1.415741
1493694853302	1.5186005	6.59993	2.9011383
1493694853302	1.536499	6.504532	0.3943329
1493694853302	2.2690887	6.920578	-1.3265839
1493694853302	2.3559113	7.2397614	-0.69018555
1493694853302	1.9078674	7.5700226	0.97636414
1493694853302	1.8762512	9.075714	1.485321
1493694853302	1.9908752	10.977264	0.9931488
1493694853302	0.89479065	11.941696	-0.66630554
1493694853302	0.8457794	13.250381	-3.1281738
1493694853302	1.7982788	12.624588	-4.3979034
1493694853302	0.7597656	12.022247	-1.1963806
1493694853302	-1.4737091	11.68396	1.9362335
1493694853302	0.2896881	11.1465	-0.4850769
1493694853302	2.2046204	13.545105	0.31118774
1493694853302	4.2995605	15.7643585	-3.6325684
1493694853302	3.5492096	13.2509	-0.3860321
1493694853302	3.5730896	11.443253	2.7098846
1493694853302	5.058914	10.561569	2.457016
1493694853302	5.777405	11.4882965	2.4917603
1493694853302	5.422516	12.575592	1.5863037
1493694853302	4.5822906	13.063568	-2.6272736
1493694853303	2.4311981	12.699829	-4.0015564
1493694853303	-0.7556305	11.698929	2.6795502
1493694853303	-0.08085632	10.943649	2.9453735
1493694853303	-0.0024871826	7.967865	1.2543335
1493694853303	0.37747192	2.375763	2.2930145
1493694853303	2.4048462	2.4580688	2.5493774
1493694853303	1.6164093	2.3589325	0.8588562
1493694853303	3.1696167	2.3814545	-0.42149353
1493694853303	4.0711517	2.575943	-1.4234772
1493694853303	5.4467926	2.8597107	-1.9915009
1493694853303	5.4831696	2.6064758	-3.5854797
1493694853303	4.6746826	2.950714	-5.8615875
1493694853303	3.6375732	5.283615	-7.7977448
1493694853303	1.6886444	9.620285	-9.1744995
1493694853303	0.88230896	15.315338	-8.822205
1493694853303	2.8038483	17.480606	-6.4665833
1493694853303	3.6576996	12.555191	-5.772232
1493694853303	1.4318695	7.6538696	-8.27063
1493694853303	2.0481567	5.576538	-8.510803
1493694853303	3.6724548	7.8000183	-8.27359
1493694853303	3.342331	13.028427	-6.77359
1493694853303	7.2823486	15.0191345	4.1765137
1493694853303	8.431	7.2039337	4.6331635
1493694853303	5.289627	-0.17805481	-3.4255981
1493694853303	1.9945526	2.9194489	-6.1551514
1493694853303	1.147522	10.073914	5.6230927
1493694853303	-0.13645935	13.781036	8.4049835
1493694853303	-0.04081726	13.183197	1.2173462
1493694853303	1.1059875	10.144943	0.012237549
1493694853303	2.7779083	8.701645	1.3836517
1493694853303	2.514923	7.7467194	1.6708984
1493694853303	1.8565063	7.6567383	1.6147461
1493694853303	1.2165985	9.046417	2.3957825
1493694853303	0.49560547	9.622787	1.370636
1493694853303	0.46696472	8.256622	-0.33369446
1493694853303	0.22177124	7.189743	0.653183
1493694853303	0.6670532	7.7305756	0.21652222
1493694853304	1.2812347	7.950836	0.6764221
1493694853304	1.6460724	8.327042	1.6616211
1493694853304	1.2994232	9.969879	1.2490234
1493694853304	1.405365	10.595047	-0.78767395
1493694853304	1.4686737	11.296524	-1.2500458
1493694853304	2.0565186	12.159668	-1.3954926
1493694853304	0.97657776	12.369141	0.34776306
1493694853304	0.54655457	12.592224	1.0417023
1493694853304	1.7668762	11.272766	-0.90782166
1493694853304	1.1648102	12.178909	-0.91171265
1493694853304	2.4165955	16.835373	1.4710541
1493694853304	1.6250458	15.285873	0.8659973
1493694853304	3.5553436	12.1081085	2.422989
1493694853304	5.3930054	10.737549	6.105362
1493694853304	5.2725525	8.637711	2.8819275
1493694853304	4.56308	9.669449	-2.247284
1493694853304	4.222122	12.25267	-3.9206696
1493694853304	4.5838013	14.253983	-1.8602905
1493694853304	4.540283	15.700714	0.66682434
1493694853304	0.2644043	12.138931	2.7627258
1493694853304	-1.0916748	5.951111	7.0651093
1493694853304	0.40344238	2.5936432	3.4550781
1493694853304	2.2427673	2.0484314	0.05845642
1493694853304	3.5435944	2.321457	-1.3867645
1493694853304	3.6739044	3.5628052	-0.43933105
1493694853304	3.8063202	5.7700653	0.6385956
1493694853305	4.026169	4.80513	-1.0905151
1493694853305	4.378479	3.390854	-2.943634
1493694853305	3.742752	3.153473	-3.838379
1493694853305	2.416031	4.560547	-4.769943
1493694853305	0.40267944	7.9592896	-7.0390015
1493694853305	-0.6367798	12.696136	-7.919327
1493694853305	0.7359772	16.964294	-7.0262146
1493694853305	0.19654846	15.210754	-8.70639
1493694853305	-1.3960266	9.406357	-8.487381
1493694853305	0.634964	6.082718	-6.3159485
1493694853305	2.8407135	8.5143585	-7.4908905
1493694853305	5.8616943	15.966431	-6.370758
1493694853305	10.826126	17.04866	3.7897034
1493694853305	11.372696	3.3980408	3.8531494
1493694853305	5.8288574	-5.6804504	-8.134079
1493694853305	0.8509369	-0.1882019	-4.8844604
1493694853305	1.684555	12.242889	10.288803
1493694853305	-0.72065735	16.959808	9.307587
1493694853305	-1.2294922	13.525162	4.193329
1493694853305	0.24368286	8.830109	3.191681
1493694853305	1.6410217	6.4895325	0.743515
1493694853305	2.4391174	7.2474365	1.66539
1493694853305	1.887207	9.580307	1.0949097
1493694853305	1.5972595	9.902588	1.8002014
1493694853306	2.1898499	7.977173	1.5511475
1493694853306	2.3475342	7.405197	0.61361694
1493694853306	1.5877228	8.1497345	0.12696838
1493694853307	0.9246979	8.816635	0.11138916
1493694853307	0.60354614	8.545792	1.0088348
1493694853307	0.5525665	8.772293	1.4032135
1493694853307	0.65904236	9.42482	0.63990784
1493694853307	0.4096527	9.594772	0.108566284
1493694853307	0.9247894	11.082245	-0.10746765
1493694853307	2.1302185	12.03421	-1.7153168
1493694853307	2.005951	12.227219	-0.4269867
1493694853307	0.23144531	12.293121	1.9130859
1493694853307	0.048812866	12.2659	-0.36698914
1493694853307	0.6616974	12.890839	-1.0065002
1493694853307	2.0684052	15.264175	2.6579437
1493694853307	4.0295563	14.900391	-1.1049652
1493694853307	5.457443	13.22084	-1.8983002
1493694853307	6.802658	10.185532	2.2507477
1493694853307	5.888855	8.369705	3.782608
1493694853307	5.2399597	8.15126	2.223465
1493694853307	5.0709686	12.267746	-2.241928
1493694853307	3.853302	15.38681	-2.448883
1493694853307	0.58955383	16.434998	-0.73487854
1493694853307	-1.0290527	12.471588	3.633194
1493694853307	1.8733826	7.6582184	6.0711823
1493694853307	6.062332	4.1175537	2.1761475
1493694853307	4.3271027	2.5079498	0.7780609
1493694853307	3.5803528	3.2979736	0.62342834
1493694853307	3.832718	3.8409119	0.77111816
1493694853307	3.6493225	3.7603912	-0.031097412
1493694853307	3.137085	3.0515747	-1.0295563
1493694853307	3.0823517	2.1732788	-2.9599152
1493694853307	2.6285553	2.0099487	-4.802307
1493694853307	0.9765625	3.6742096	-5.459381
1493694853308	0.232193	7.218567	-7.59317
1493694853308	-0.06599426	12.931717	-11.134064
1493694853308	0.83888245	17.55658	-9.875885
1493694853308	2.7821503	14.77066	-6.9739532
1493694853308	2.6799316	8.492935	-5.9985657
1493694853308	3.01091	4.1696625	-5.613205
1493694853308	4.8023834	4.3191223	-8.869644
1493694853308	7.315918	10.176193	-7.7217712
1493694853308	9.087112	17.054672	3.1225433
1493694853308	5.178467	14.196854	1.2017975
1493694853308	3.805832	3.5371246	-1.1672058
1493694853308	2.113922	0.15454102	-2.6637878
1493694853308	3.1016235	6.296112	4.534424
1493694853308	1.4312134	9.502274	9.294052
1493694853308	0.4570923	12.464035	7.0380707
1493694853308	-0.8584137	15.594711	3.997635
1493694853308	-1.6845703	13.200714	0.06843567
1493694853308	2.1404266	9.0074005	0.06539917
1493694853308	2.4937286	6.6192627	0.272995
1493694853308	2.7269135	7.137314	0.92303467
1493694853308	1.6248474	7.3408203	1.4953156
1493694853308	1.6086273	7.5016937	-0.023849487
1493694853308	1.378479	8.132965	-0.9213867
1493694853308	0.6621399	8.817673	-0.040283203
1493694853308	0.518692	8.334	1.0996399
1493694853308	0.22090149	7.8220367	1.245224
1493694853308	0.87545776	8.83992	0.58802795
1493694853308	1.2206879	10.415466	-0.31066895
1493694853308	2.160019	11.357651	-1.23172
1493694853308	3.5450745	12.308212	-3.0163116
1493694853308	1.7635956	11.694199	-0.5109558
1493694853308	-0.6765442	12.548447	1.6459961
1493694853308	-0.079956055	12.381073	-0.34132385
1493694853308	1.1123505	12.545074	-0.9494324
1493694853308	1.8277588	15.400391	1.9459229
1493694853308	1.0843506	14.625259	0.9186096
1493694853308	1.6066132	12.726959	-1.0094757
1493694853308	4.5198517	10.081879	1.9183502
1493694853308	7.756012	8.902283	2.3688965
1493694853308	6.614197	9.287064	3.10318
1493694853308	5.7345276	11.895065	-1.4679413
1493694853308	4.332947	14.082138	-4.4151
1493694853309	1.3856354	16.019974	-1.6212616
1493694853309	-3.15979	14.306915	3.0558014
1493694853309	-1.3947296	8.992172	3.6082153
1493694853309	3.6697998	4.328354	2.2612915
1493694853309	3.695984	2.377655	2.1758118
1493694853309	3.5904846	2.8062744	0.9187927
1493694853309	3.7929077	3.7195282	0.502182
1493694853309	3.8981476	4.3388824	-0.25250244
1493694853309	3.7714996	3.9131165	-1.3999634
1493694853309	3.9951935	2.8821106	-2.7900238
1493694853309	3.4787903	1.996048	-3.9022827
1493694853309	2.926773	2.7113647	-4.9023743
1493694853309	2.6132202	5.2950134	-6.379059
1493694853309	1.180191	9.550644	-9.190521
1493694853309	-0.6619873	16.19786	-10.906952
1493694853309	1.109314	18.767563	-6.9609375
1493694853309	1.9918976	12.29007	-6.0743866
1493694853309	0.18437195	5.8571014	-7.6987457
1493694853309	1.3450317	2.6562805	-7.269348
1493694853309	2.9995728	3.5779572	-9.424225
1493694853309	6.2001343	8.530518	-3.5041351
1493694853309	10.4140625	16.645996	6.350464
1493694853309	5.4527283	16.204742	-1.2536316
1493694853309	2.457901	6.042343	-3.2370453
1493694853309	3.2885437	3.9943848	-0.7365265
1493694853309	3.763733	6.404312	2.6005554
1493694853309	1.5219727	7.3815002	4.9320984
1493694853309	0.8333893	8.416092	6.163452
1493694853309	0.7680969	12.109283	8.393509
1493694853309	0.979126	14.461517	7.2598267
1493694853309	-0.31721497	12.046616	-3.1665955
1493694853309	0.8805084	8.66861	-2.7041168
1493694853309	1.9150543	7.6161804	-2.0933075
1493694853309	1.5792847	7.478592	-0.19631958
1493694853309	0.64230347	7.059799	0.97991943
1493694853309	1.6867065	7.2504272	1.4984131
1493694853309	1.7794952	7.917343	0.32511902
1493694853309	0.9549713	8.490295	-0.35112
1493694853310	0.69166565	8.972733	0.09715271
1493694853310	0.8409424	9.52092	0.13825989
1493694853310	0.92697144	10.15126	0.059631348
1493694853310	1.3497772	11.439636	-1.1521149
1493694853310	2.5726166	12.449326	-2.233078
1493694853310	1.9269257	11.823608	0.14335632
1493694853310	-0.09388733	11.94339	1.6120605
1493694853310	0.43449402	12.560318	-0.687912
1493694853310	1.7822571	12.513397	-0.829422
1493694853310	1.623291	14.62175	1.8828278
1493694853310	0.9950104	15.081329	2.760437
1493694853310	1.1258087	12.355301	0.33203125
1493694853310	3.6030731	10.571365	0.14901733
1493694853310	6.7250824	9.176865	0.5391998
1493694853310	7.2980347	9.811462	1.9699554
1493694853310	5.1669006	10.85379	1.5788879
1493694853310	3.5759125	12.756317	-2.4600372
1493694853310	1.8521118	13.642212	-2.7104797
1493694853310	0.25846863	13.804184	0.4532013
1493694853311	-1.0827484	11.98526	2.881134
1493694853311	0.29652405	8.180893	3.5082092
1493694853311	3.2878113	3.792572	2.9107056
1493694853311	3.5486755	2.064148	1.2162933
1493694853311	3.6952057	2.7946625	0.11190796
1493694853311	3.928711	3.704071	-0.009384155
1493694853311	3.9398804	4.009094	-0.6074524
1493694853311	3.8862152	3.5838928	-2.0181274
1493694853311	3.4868011	2.257431	-3.4852753
1493694853311	2.5361938	1.6180115	-4.4665375
1493694853311	2.7282104	3.3311005	-5.4474945
1493694853311	2.4785156	6.4419556	-7.520035
1493694853311	0.76678467	12.411301	-11.611145
1493694853311	0.47673035	17.992859	-10.4935
1493694853311	2.464859	15.751617	-6.1059265
1493694853312	1.2915802	7.9520264	-3.7666779
1493694853312	1.5908203	2.6410828	-6.8721924
1493694853312	4.4414673	4.197754	-8.172455
1493694853312	7.2855835	10.026077	-5.79274
1493694853312	10.070663	14.963501	0.5985565
1493694853312	6.1646576	13.378281	3.0849304
1493694853312	2.6074066	5.1857758	-1.005661
1493694853312	2.325943	4.4564056	-2.3145752
1493694853312	3.1806183	5.917282	0.12519836
1493694853312	5.1042023	7.555588	3.363266
1493694853312	1.194046	8.424347	8.85405
1493694853312	-0.6258087	11.809967	11.505768
1493694853312	-2.6304016	13.861465	10.670441
1493694853312	-1.9096222	12.189941	1.5019226
1493694853312	0.99191284	8.932495	-10.182602
1493694853312	1.6455078	8.632309	1.5362091
1493694853312	0.81288147	7.291992	0.50727844
1493694853312	0.50094604	6.491333	4.170456
1493694853312	2.6118317	7.574692	-0.5934601
1493694853313	2.0229492	8.232193	-1.3733978
1493694853313	0.9412384	8.516769	-1.5472412
1493694853313	2.0371094	8.94017	-0.43577576
1493694853313	1.9520721	9.849472	1.3391113
1493694853313	1.4081573	10.382782	1.0671387
1493694853313	1.4127045	11.275497	-2.674347
1493694853313	1.2741089	12.368408	-1.7978363
1493694853313	0.53082275	11.725433	0.24415588
1493694853313	-0.65223694	11.433899	1.0703125
1493694853313	0.07298279	11.456436	-0.61569214
1493694853313	1.2562256	11.830078	-0.44104004
1493694853313	0.4337921	14.737579	1.9233856
1493694853313	0.5986786	15.518143	0.38206482
1493694853313	1.9472504	12.360901	-0.13595581
1493694853313	3.427063	10.661285	2.8735504
1493694853313	4.2675323	10.471313	2.3359375
1493694853313	4.4836273	11.010284	2.054306
1493694853313	5.2139587	12.42276	1.0775604
1493694853313	6.6509857	14.065491	-2.1169128
1493694853313	5.176346	13.833145	-4.046646
1493694853313	0.074157715	10.746399	-0.7365265
1493694853313	-1.3891449	9.284164	3.95401
1493694853313	0.14935303	8.79689	2.869156
1493694853313	0.1823883	6.250931	1.2345123
1493694853313	1.893219	3.850525	1.8866425
1493694853313	3.8743591	4.0569305	2.3784485
1493694853313	3.003128	3.7881775	1.5608063
1493694853313	2.790329	3.0896606	0.1993103
1493694853313	3.6079407	2.3327484	-1.0717773
1493694853313	3.9998627	1.1952362	-2.954834
1493694853313	3.9609985	0.99002075	-5.3398895
1493694853314	3.8712463	3.0309906	-7.2800293
1493694853314	2.8228607	7.4885864	-10.393478
1493694853314	1.3864288	15.634766	-12.125687
1493694853314	2.2986298	19.27069	-7.8459015
1493694853314	3.7418518	14.3142395	-6.379547
1493694853314	2.1907806	4.6154175	-8.035248
1493694853314	3.7315521	1.8622284	-8.9048
1493694853314	5.0122833	6.9496765	-8.766739
1493694853314	7.4835663	11.092667	-4.138031
1493694853314	9.918076	13.711563	4.109909
1493694853314	3.3862915	11.476349	1.5900421
1493694853314	2.7712708	5.6543427	-2.157608
1493694853314	4.0027924	4.7872925	-0.75697327
1493694853314	3.5296478	5.9544525	0.84129333
1493694853314	2.0725708	7.752121	6.2019196
1493694853314	1.0195313	11.1936035	11.794022
1493694853314	0.023727417	14.427643	11.397217
1493694853314	-1.984726	11.486954	4.2873535
1493694853314	2.2006073	9.176712	-12.510712
1493694853314	0.94177246	7.903244	-1.8164673
1493694853314	2.0736694	8.872116	-2.230667
1493694853314	1.197052	7.876648	2.0877686
1493694853314	1.0434265	7.1709747	1.3452911
1493694853314	1.3116455	7.304474	-1.5846252
1493694853314	0.62905884	7.5095825	-1.2937164
1493694853314	0.8854675	7.7543488	-0.8832245
1493694853314	0.8503113	8.52507	1.3680267
1493694853314	1.0501862	9.83905	0.7926636
1493694853314	0.89997864	11.393707	-0.39543152
1493694853314	1.2217712	12.707565	-2.389511
1493694853314	1.847168	12.763657	-2.6245117
1493694853314	0.7017975	12.150085	0.27967834
1493694853314	-0.75671387	12.536316	1.0710144
1493694853314	-0.45103455	12.375671	-0.62901306
1493694853314	1.7732544	12.749863	0.26034546
1493694853314	1.9528503	14.883026	1.4533691
1493694853314	1.0175781	14.064499	1.7061462
1493694853314	1.580719	11.274826	2.5122528
1493694853314	3.2686615	10.685837	2.2620087
1493694853314	5.1933746	10.182144	1.0017548
1493694853314	6.015396	10.531067	0.88905334
1493694853314	6.818405	12.40567	-0.9075012
1493694853314	6.951462	14.032425	-2.5363312
1493694853315	3.5016022	13.245346	-1.5717163
1493694853315	-1.0397186	11.307373	1.7363281
1493694853315	-2.250061	10.942261	1.7575073
1493694853315	-2.1231537	8.572037	1.8182526
1493694853315	0.8312988	4.6098633	3.0649872
1493694853315	3.808731	2.9999847	2.339447
1493694853315	4.421158	2.9906464	1.7845001
1493694853315	4.1707764	3.281189	0.8499756
1493694853315	4.2420807	3.5687866	-0.7371063
1493694853315	4.5979156	3.2687836	-1.7631683
1493694853315	4.361679	2.027069	-3.4102478
1493694853315	3.9726868	1.1421051	-5.8896484
1493694853315	3.8096924	2.2748566	-7.277191
1493694853315	2.7060394	6.660904	-9.491791
1493694853315	-0.27575684	15.605652	-12.207001
1493694853315	2.3108063	19.240875	-8.398041
1493694853315	4.243408	15.221558	-5.725006
1493694853315	1.1489105	4.6785583	-6.7508087
1493694853315	3.0532532	3.5610962	-8.694855
1493694853315	4.630783	10.86087	-9.111588
1493694853315	7.1879425	11.756012	-2.1629791
1493694853315	9.304993	11.027039	6.258011
1493694853316	2.6431274	6.971695	0.13763428
1493694853316	3.8734741	4.900894	-2.6358643
1493694853316	4.067871	5.5640106	-0.4223175
1493694853316	5.597412	7.1918335	2.417572
1493694853316	1.9093323	8.156357	10.07016
1493694853316	-1.0820618	10.405945	12.317398
1493694853316	-0.95677185	13.618576	8.310608
1493694853316	-3.4423065	13.237289	-11.968872
1493694853316	-0.06248474	11.290298	-1.7632446
1493694853316	0.6802368	7.7602997	-1.9879608
1493694853316	2.6435394	7.2943573	1.1772461
1493694853316	2.2578583	6.3741302	1.7842712
1493694853316	1.7973785	6.737961	-0.26481628
1493694853316	0.89515686	8.220261	-0.8688202
1493694853316	0.47789	8.240677	-0.7906647
1493694853316	1.0804138	8.029205	0.9467163
1493694853316	1.1524048	8.060715	0.5704193
1493694853316	1.314331	9.557159	-0.76652527
1493694853316	0.5437927	11.27066	-1.2508545
1493694853316	0.19949341	13.089157	0.06674194
1493694853316	0.40374756	13.186493	-0.59661865
1493694853316	-0.15040588	12.255341	-0.26976013
1493694853316	-0.93685913	12.800247	-0.7538452
1493694853316	-0.27537537	12.740906	-0.71351624
1493694853316	2.0668335	13.487549	2.470642
1493694853317	2.420395	15.26413	1.0160065
1493694853317	1.0810242	13.825607	-0.2732544
1493694853317	1.5247345	11.628433	1.7209778
1493694853317	3.0230408	10.106842	2.7984009
1493694853317	3.0548859	9.5784	3.160797
1493694853317	2.823883	9.343475	1.6676941
1493694853317	4.4296417	11.213486	-1.1700134
1493694853317	6.7088623	14.1262665	-3.9361267
1493694853317	4.6063385	13.674332	-4.3921356
1493694853317	0.55003357	11.908264	1.6325378
1493694853317	-2.4228516	10.706421	3.9112244
1493694853317	-1.1975708	7.5066223	1.8457489
1493694853317	2.8322754	3.5185547	0.9568176
1493694853317	4.186325	2.168045	0.7606354
1493694853317	4.3521576	3.4491425	0.98547363
1493694853317	4.182083	4.232437	0.31825256
1493694853317	4.0766754	4.0417633	-0.5796509
1493694853317	4.5546722	2.7118988	-2.0125122
1493694853317	4.211487	1.0559235	-3.8364716
1493694853317	3.7665405	0.71170044	-5.2126465
1493694853317	3.4958496	3.0209198	-6.5225525
1493694853317	2.9912567	9.31041	-9.368973
1493694853317	1.1105957	17.54892	-13.692596
1493694853317	4.3665314	19.47345	-8.745224
1493694853317	5.0569	12.900528	-5.374649
1493694853317	1.0383759	2.77742	-6.714279
1493694853317	3.0725708	2.8266754	-8.10144
1493694853317	4.4163513	10.165955	-7.0546265
1493694853318	7.2035217	13.613373	-2.504242
1493694853318	9.711014	15.870163	7.769211
1493694853318	2.5522156	8.650436	-1.2943726
1493694853318	3.7131042	4.8390045	-3.7221222
1493694853318	3.4893494	5.104889	-1.0489807
1493694853318	3.7484589	6.1250153	0.7975311
1493694853318	2.2443848	7.6519165	7.952011
1493694853318	0.7271271	10.581299	12.142792
1493694853318	0.21942139	14.456512	10.204346
1493694853318	-0.58128357	12.522537	2.2822113
1493694853318	0.7891998	10.50798	-8.436127
1493694853318	1.7629547	9.068741	-2.4321136
1493694853318	1.5020752	8.787598	-2.3027039
1493694853318	0.9795532	7.167267	2.5152283
1493694853318	2.1173096	6.500244	1.3896484
1493694853318	1.2489014	6.7158203	-0.8079834
1493694853318	0.55752563	7.9613647	-0.9167175
1493694853318	0.3704834	8.813217	-0.658371
1493694853318	0.31350708	8.689941	-0.5717926
1493694853318	0.69984436	9.322403	0.2684021
1493694853318	0.6853943	11.200302	-0.6696472
1493694853318	1.53508	12.768463	-2.228653
1493694853318	2.1201477	12.061996	-1.7939758
1493694853318	0.6073456	11.542236	1.6063232
1493694853318	-0.010620117	11.55452	0.24421692
1493694853318	1.1619873	12.229065	-2.548935
1493694853318	1.1769409	14.508545	0.39872742
1493694853318	0.7100525	15.953506	1.8452759
1493694853318	0.6584625	13.903763	0.36494446
1493694853318	1.3438873	10.872345	1.9726257
1493694853318	2.7311707	9.499481	2.5330505
1493694853318	3.3027496	9.353043	1.7134857
1493694853318	3.9509583	9.622864	0.3481903
1493694853318	5.8364105	11.632904	-2.0584717
1493694853318	7.7099	14.413452	-5.408951
1493694853318	4.233734	13.698074	-3.6664124
1493694853318	-1.0944061	11.1692505	3.1198273
1493694853318	-0.7956543	10.700882	1.8892212
1493694853318	-1.146759	7.041031	1.7127991
1493694853318	1.5491028	3.9731598	1.5595856
1493694853318	4.1456757	3.4294891	1.5053864
1493694853318	4.234192	3.5102692	1.7245636
1493694853318	3.486786	3.7697144	1.1873627
1493694853319	3.0916748	4.0973206	-0.050338745
1493694853319	3.7773132	3.0536041	-2.3483276
1493694853319	4.026993	1.2827759	-3.8077087
1493694853319	3.7597504	1.8700104	-6.3813324
1493694853319	3.2275238	4.416397	-8.245712
1493694853319	2.6993713	9.837616	-10.202118
1493694853319	2.962326	18.000748	-9.701721
1493694853319	3.3043976	19.524582	-6.5995483
1493694853319	2.919983	11.358078	-5.1199036
1493694853319	1.9968567	2.6572723	-7.2977448
1493694853319	4.440201	0.95866394	-6.520874
1493694853319	3.9575348	6.898041	-8.349091
1493694853319	8.076431	11.750427	-1.646225
1493694853319	10.559143	16.142883	7.509247
1493694853319	1.0604858	9.918289	-3.619873
1493694853319	3.490326	4.471985	-0.12957764
1493694853319	3.2624512	5.2865143	-1.005188
1493694853319	3.0889587	7.357315	2.0824127
1493694853319	0.948822	10.020569	10.363159
1493694853319	1.4931946	14.088547	13.505524
1493694853319	-0.96554565	12.385834	7.194107
1493694853319	0.32756042	10.10498	-0.008483887
1493694853319	1.721756	8.617722	-9.480011
1493694853319	2.3789063	9.0780945	1.4597168
1493694853319	1.7928162	8.507294	-1.6664276
1493694853319	1.6554413	7.935623	2.4851837
1493694853319	1.8728485	7.3088074	-0.07209778
1493694853319	1.3659668	7.807129	-1.150589
1493694853319	1.1560516	8.025482	-1.4170685
1493694853319	0.9510803	8.112671	-0.70588684
1493694853320	0.57263184	8.884354	-0.23829651
1493694853320	0.50372314	10.043182	-0.4594574
1493694853320	0.39411926	10.973358	-0.56721497
1493694853320	1.529602	11.885895	-0.8247833
1493694853320	2.0103912	11.6094055	-1.2194672
1493694853320	0.5979767	11.6744995	-0.7914276
1493694853320	-0.90327454	11.976059	-1.0765228
1493694853320	-0.35627747	11.893845	-1.1193542
1493694853320	1.2873077	12.682785	0.74302673
1493694853320	1.49823	14.312347	1.3977814
1493694853320	0.85705566	13.792908	0.51364136
1493694853320	0.75808716	11.469299	2.3580322
1493694853320	2.2092285	10.126862	3.277481
1493694853320	3.7660522	9.75943	1.4226532
1493694853320	4.805847	10.369507	-0.110687256
1493694853320	7.3626404	12.645309	-1.7648163
1493694853320	8.701889	14.284241	-3.5795288
1493694853320	4.1967316	12.004837	-2.5327606
1493694853320	0.09033203	10.416183	1.6078796
1493694853320	1.1516876	12.550507	2.7218628
1493694853320	-1.4555817	8.975449	2.1732178
1493694853320	0.5313873	5.04451	2.1448975
1493694853320	3.5101624	4.0646973	2.8773346
1493694853320	4.2695923	3.8155518	1.8986511
1493694853321	4.072418	3.6074371	0.6538849
1493694853321	4.5835876	3.7619019	-0.434906
1493694853321	4.9604797	3.0523834	-2.2505493
1493694853321	4.334381	1.47229	-3.9273376
1493694853321	4.08461	1.4337921	-5.4961853
1493694853321	4.567917	3.236435	-6.5131226
1493694853321	3.344284	7.5485992	-9.869293
1493694853321	0.45469666	15.006088	-11.223282
1493694853321	2.4099274	19.093536	-6.7427063
1493694853321	3.909958	14.74762	-5.414261
1493694853321	1.1956635	4.8253326	-7.4789886
1493694853321	1.3475037	0.70129395	-9.587875
1493694853321	4.1347046	6.178726	-7.222931
1493694853321	8.459366	15.648651	-4.727646
1493694853321	12.192612	19.483017	8.265701
1493694853321	2.6547394	10.034363	1.0323792
1493694853321	2.4570618	1.7012482	-1.688858
1493694853321	3.6980743	2.7251892	-2.848526
1493694853321	3.6168213	5.015396	-1.8609467
1493694853321	4.985016	7.453064	2.9155579
1493694853321	3.201416	9.459549	12.863266
1493694853321	2.0214844	13.211655	16.561218
1493694853321	-0.072906494	13.323242	11.352844
1493694853321	-1.0643463	10.692093	0.31240845
1493694853321	0.7016907	10.177002	-17.456726
1493694853321	1.7701111	9.783264	-6.2357483
1493694853321	0.7951813	8.286591	0.23371887
1493694853321	1.0896912	8.115509	2.8701782
1493694853321	1.6029663	7.457443	0.5649872
1493694853321	1.5829468	7.503845	-0.86395264
1493694853321	1.2512665	7.588028	-1.28479
1493694853321	0.57743835	7.885391	-0.5996399
1493694853321	0.53056335	8.855164	0.12123108
1493694853321	0.6876373	9.987244	0.07130432
1493694853321	1.5508728	11.654068	-1.1144867
1493694853322	2.456894	12.424637	-2.2822723
1493694853322	1.2690887	12.02417	-1.2211151
1493694853322	-0.3604126	11.795929	0.26742554
1493694853322	-0.5271301	11.654541	-1.1512451
1493694853322	0.16607666	12.531097	-1.1870575
1493694853322	0.60313416	14.35466	1.8090363
1493694853322	1.4144592	15.088669	1.7364502
1493694853322	1.4880371	12.982407	1.125824
1493694853322	1.6388245	10.4392395	3.0950012
1493694853322	2.681366	9.424957	2.8060608
1493694853322	3.281723	8.99234	0.82748413
1493694853322	5.0187836	9.924255	-0.21400452
1493694853322	9.058823	12.926788	-0.83325195
1493694853322	8.464478	13.067017	-3.5717468
1493694853322	2.9781494	10.53923	-2.3963318
1493694853322	2.4237213	10.8069	-0.47288513
1493694853322	0.57099915	10.416626	1.8391876
1493694853322	-1.473587	6.349121	2.969986
1493694853322	1.2550964	4.3240814	2.4039154
1493694853322	3.4756775	3.924881	2.102829
1493694853322	3.761383	3.554779	1.2242279
1493694853322	3.5743866	4.012375	1.1154785
1493694853322	3.4042206	4.0710144	-0.29463196
1493694853322	4.494278	2.9375305	-3.013565
1493694853322	4.5039673	1.8459015	-4.9490814
1493694853322	4.7063446	2.7546692	-6.5680695
1493694853322	4.650131	5.342926	-8.267715
1493694853322	2.2471924	10.692154	-10.477127
1493694853322	3.3039398	16.579163	-12.631912
1493694853322	6.070984	16.897598	-6.626663
1493694853322	4.303467	8.995224	-4.2867126
1493694853322	1.9716797	3.8361053	-6.343918
1493694853322	5.13649	4.7203064	-6.31868
1493694853322	6.434189	10.424194	-7.6627655
1493694853322	7.716629	13.073746	-6.0075836
1493694853322	9.1493225	12.790222	5.385742
1493694853322	2.1337585	8.296753	1.9305573
1493694853322	1.8838806	4.0499268	-2.608673
1493694853322	2.8046417	4.39534	-1.9065552
1493694853322	4.0166626	6.282364	1.1250763
1493694853322	3.9208374	9.302444	8.846207
1493694853322	0.45292664	13.130615	15.604919
1493694853322	-0.11029053	14.592407	10.110779
1493694853323	-0.6869049	11.774796	-1.0210876
1493694853323	0.9784851	9.536209	-7.8285675
1493694853323	2.5827942	9.046768	-0.9747925
1493694853323	1.2736206	8.157669	-0.5532074
1493694853323	1.3231354	7.4585724	3.4097443
1493694853323	1.8946228	6.960144	0.9893036
1493694853323	1.4625397	7.2038727	-0.8006897
1493694853323	0.86650085	8.058548	-1.3520355
1493694853323	0.7041626	8.551804	-1.0746765
1493694853323	0.4880066	8.923294	0.14984131
1493694853323	0.91070557	9.484039	0.32385254
1493694853323	1.414978	10.532654	0.013137817
1493694853323	2.4625397	11.851166	-1.4024506
1493694853323	2.513916	12.150284	-2.427002
1493694853323	0.9064789	12.310303	-0.94892883
1493694853323	-0.8857269	12.544052	-0.08589172
1493694853323	-0.8187561	12.695877	-0.92526245
1493694853323	0.53834534	13.586578	0.1877594
1493694853323	1.1555176	14.474548	1.1682129
1493694853323	1.5250397	12.67775	1.212204
1493694853323	2.097351	10.245071	2.3557434
1493694853323	3.25885	9.828232	2.0302582
1493694853323	4.2433624	10.201431	0.7224884
1493694853323	5.4955444	11.520676	-0.84161377
1493694853323	7.949005	14.092834	-2.3530426
1493694853323	5.904663	13.745102	-2.0712128
1493694853323	0.8873749	11.080124	-0.10946655
1493694853323	-0.56059265	10.112976	1.397995
1493694853323	0.654953	10.40213	0.39698792
1493694853323	-0.71725464	6.0983124	3.461975
1493694853323	1.9184418	3.560791	2.1242676
1493694853323	3.5516205	3.5289612	1.8839264
1493694853323	4.1999207	3.7771454	0.9823456
1493694853323	4.4785156	3.9426117	-0.17424011
1493694853323	4.5499573	3.930008	-1.06781
1493694853323	4.605957	2.717163	-2.794876
1493694853323	3.8296204	1.5241852	-3.6834106
1493694853323	4.2729645	1.9264069	-5.799118
1493694853323	4.812149	3.797638	-6.384445
1493694853323	3.3207703	9.147339	-8.839325
1493694853323	1.0380707	18.718185	-12.656036
1493694853324	4.3013	19.520355	-8.2230835
1493694853324	4.977707	11.195038	-6.243347
1493694853324	1.1781006	1.6697235	-7.5355835
1493694853324	3.5895844	1.4122467	-5.7350616
1493694853324	5.3614655	9.068985	-4.983307
1493694853324	8.926285	16.568268	-3.3659668
1493694853324	8.367416	16.614899	5.995758
1493694853324	1.7507172	7.924118	-0.9432678
1493694853324	2.4469757	3.0195923	-2.0656433
1493694853324	3.091156	4.086731	-2.0601501
1493694853324	4.1647034	6.3311005	0.56248474
1493694853324	5.492157	9.12178	5.893585
1493694853324	1.2099304	10.81778	13.486679
1493694853324	0.36764526	13.444077	12.729782
1493694853324	-0.9944763	11.789429	4.5167084
1493694853324	1.2159882	10.99472	-2.4853516
1493694853324	1.9264221	9.464569	-7.7398376
1493694853324	1.4628906	8.499619	-2.4832764
1493694853324	0.96746826	8.040634	2.561798
1493694853324	1.719696	7.1913147	2.4823914
1493694853324	1.1882629	6.834152	-0.006668091
1493694853324	0.58470154	7.571228	-1.5477905
1493694853324	0.3330536	8.265854	-1.299942
1493694853324	0.3581848	9.235001	-0.030349731
1493694853324	0.4287567	9.908966	0.1859436
1493694853324	0.31643677	10.292587	0.14120483
1493694853324	1.0044861	11.581512	-0.95614624
1493694853324	2.0063782	12.0060425	-2.19281
1493694853324	1.3927155	11.411682	-0.14051819
1493694853324	0.39595032	11.259384	1.2315674
1493694853324	0.78004456	11.282394	-0.04788208
1493694853324	1.9738007	12.265076	0.19651794
1493694853324	2.495285	15.201706	1.2069244
1493694853324	1.0727692	15.23877	0.59721375
1493694853324	0.15808105	12.146759	2.1415558
1493694853324	1.3098145	9.844055	4.7600555
1493694853324	3.3969269	9.393234	3.265152
1493694853324	4.246063	9.688171	1.432785
1493694853325	5.9594727	11.905701	-0.97535706
1493694853325	8.126877	14.321228	-3.7454224
1493694853325	5.327667	12.878906	-3.9129639
1493694853325	0.94163513	10.368698	-0.13850403
1493694853325	-0.011550903	10.493439	4.2416687
1493694853325	0.55682373	10.6436	2.02063
1493694853325	-0.86683655	6.43248	3.3789978
1493694853325	3.0313263	4.4220734	1.3137512
1493694853325	4.5008698	4.066559	1.4848175
1493694853325	4.4905243	3.6580505	1.8065491
1493694853325	4.701294	3.6816254	-0.26280212
1493694853325	4.5345306	3.1682892	-1.0443115
1493694853325	3.9620972	1.9055786	-2.6942291
1493694853325	3.6028748	1.0000916	-4.4525757
1493694853325	3.4190369	1.1706848	-6.059082
1493694853325	3.8754883	3.7167969	-7.375931
1493694853325	2.703827	9.38504	-9.392609
1493694853325	1.2009888	18.204834	-14.820419
1493694853325	5.8767242	19.118591	-6.280121
1493694853325	5.4108887	11.476303	-4.8711243
1493694853325	1.77211	2.6651611	-5.868927
1493694853325	5.1033936	3.746109	-7.308014
1493694853325	7.2361603	11.696976	-5.3881073
1493694853325	8.993317	14.627975	-1.8851166
1493694853325	6.1748657	10.358322	2.7436676
1493694853325	2.2355194	4.428711	-1.3804016
1493694853325	1.9883118	3.9349213	-3.2677917
1493694853325	3.0160675	5.8968353	-0.94555664
1493694853325	4.247162	8.545242	4.331558
1493694853325	3.650406	11.88089	11.833679
1493694853325	1.171463	14.35878	11.850327
1493694853325	-0.07963562	13.920654	7.0551605
1493694853325	-0.8106384	11.060837	-2.3381042
1493694853325	1.1893158	9.017319	-6.451889
1493694853325	3.3445892	9.048874	-1.3895264
1493694853325	1.579773	7.7676544	0.1563263
1493694853325	1.5111389	6.821808	3.4088135
1493694853326	1.5975494	6.2619324	1.6085358
1493694853326	0.84858704	6.972336	0.13569641
1493694853326	0.4595337	7.939911	-1.2331543
1493694853326	0.7801056	8.548416	-0.98088074
1493694853326	1.0067444	9.083008	0.37442017
1493694853326	1.4755554	10.09111	0.019042969
1493694853326	1.3269958	11.155777	-0.73924255
1493694853326	1.0268097	12.151596	-1.5807648
1493694853326	0.94273376	12.336685	-1.7153625
1493694853326	-0.24879456	11.819702	0.75483704
1493694853326	-1.1853485	11.413986	0.6222687
1493694853328	0.28977966	11.570297	-1.2783356
1493694853328	0.7684326	13.1180725	0.10180664
1493694853328	0.7407379	15.938736	2.24823
1493694853328	0.7670288	15.233612	1.651947
1493694853328	1.2438049	11.592026	2.2924957
1493694853328	2.947235	9.560623	3.4506836
1493694853328	3.7744904	9.034134	2.1174011
1493694853328	3.5949707	9.039932	1.3597107
1493694853328	6.5364075	12.184525	-0.46047974
1493694853328	9.056381	15.191055	-3.8396912
1493694853328	4.1775208	13.144043	-4.1961517
1493694853328	-0.24594116	10.344711	0.41748047
1493694853328	-1.6444702	10.908661	7.5543823
1493694853328	-2.4890594	10.169525	0.122543335
1493694853328	-0.06163025	5.699539	2.9396515
1493694853328	4.5339966	3.7088165	1.6859894
1493694853329	4.621216	3.2303467	2.0528717
1493694853329	4.5726776	3.6101532	0.8857422
1493694853329	4.974289	3.6078339	-0.56921387
1493694853329	4.998352	2.6649017	-2.1743927
1493694853329	4.751297	1.4659729	-3.6556854
1493694853329	4.0388336	1.2456512	-6.018921
1493694853329	3.7521515	3.5011292	-7.3256073
1493694853329	2.4399261	7.700821	-9.000626
1493694853329	0.8735504	14.981079	-11.553574
1493694853329	4.24823	19.147095	-5.277725
1493694853329	5.604416	14.296967	-6.949463
1493694853329	1.6856995	3.6158142	-5.4926453
1493694853329	3.0471497	1.7657013	-7.5194855
1493694853329	5.83165	7.8594513	-7.315674
1493694853329	8.032272	15.983887	-4.4813843
1493694853329	8.8663025	16.173264	4.016327
1493694853329	2.8748322	7.841873	1.5879059
1493694853329	2.1486816	2.4910278	-1.7941895
1493694853329	2.2154388	3.5518188	-2.7701263
1493694853329	3.197586	6.1574097	0.15875244
1493694853329	4.6922455	8.845993	4.901245
1493694853329	2.519577	11.935013	11.333145
1493694853329	0.8903351	15.239441	10.813538
1493694853329	-1.4580994	12.688446	-1.4611969
1493694853329	-1.5755157	9.071869	-9.9691925
1493694853329	2.0926514	8.919327	-1.9876556
1493694853329	2.285324	8.810928	-1.1700745
1493694853329	1.4171753	7.8448944	2.0285797
1493694853329	1.9904175	6.840805	1.7472992
1493694853329	1.858841	6.4533234	-0.51197815
1493694853329	1.0128784	6.9161987	-1.3862915
1493694853329	0.558197	7.479889	-0.34100342
1493694853329	0.61431885	7.812317	0.4616089
1493694853329	0.99620056	8.621765	0.8800659
1493694853329	0.9547119	9.892502	1.0766296
1493694853329	0.7327118	11.455414	-0.7127228
1493694853329	1.5661163	12.308945	-2.8799896
1493694853329	1.6277161	11.694733	-1.8158264
1493694853329	0.15701294	11.43071	1.501648
1493694853330	-0.6798401	11.33551	0.62286377
1493694853330	0.023071289	12.138123	-0.68896484
1493694853330	0.7920227	14.602173	1.0197144
1493694853330	1.7531586	16.929092	2.4861145
1493694853330	2.2018585	14.75795	2.8964233
1493694853330	2.863556	10.760483	1.5570831
1493694853330	5.695053	8.635849	0.13825989
1493694853330	5.666855	9.251816	1.2288818
1493694853330	4.6499176	9.462311	2.4796143
1493694853330	5.7252045	11.526199	1.3936768
1493694853330	6.3784485	14.114044	-1.4944153
1493694853330	2.4674683	12.80249	-4.2391663
1493694853330	-0.55049133	11.235764	-0.8499756
1493694853330	1.1994324	11.822998	4.3918915
1493694853330	1.0542297	9.901718	3.4496918
1493694853330	0.24876404	4.8875732	5.7985992
1493694853330	3.0236511	2.7930603	1.1971436
1493694853330	4.5338287	3.289154	-0.040420532
1493694853330	4.237152	3.1262512	-0.07420349
1493694853330	3.9115143	3.411621	-1.0366669
1493694853330	3.8529053	2.9354553	-1.2823944
1493694853330	3.854126	1.3674774	-3.0743866
1493694853330	3.4019623	0.54267883	-5.4878845
1493694853330	4.078293	2.6353302	-6.8309784
1493694853330	3.416397	7.820572	-8.388947
1493694853330	1.6937714	17.299667	-14.078384
1493694853330	5.01416	18.835953	-8.074219
1493694853330	5.7307587	12.795959	-7.508484
1493694853330	2.3415222	2.607483	-5.32605
1493694853330	5.198517	3.8940125	-5.473633
1493694853330	7.5527344	11.357849	-4.4010315
1493694853330	8.440903	13.432922	-4.560852
1493694853330	5.489975	10.0763855	0.056488037
1493694853330	1.6008453	5.501816	-0.22218323
1493694853330	1.829361	4.3137817	-0.44450378
1493694853330	1.6829529	5.6160126	-0.2375946
1493694853330	2.9474182	8.619965	3.431305
1493694853330	3.4812164	12.516937	9.516312
1493694853330	1.1108551	15.300034	8.87471
1493694853330	-0.7232666	14.705185	2.484497
1493694853330	-0.7645569	11.1992035	-2.9593506
1493694853330	2.4571686	9.211945	-2.2973328
1493694853331	3.424179	8.354782	-0.9716034
1493694853331	2.8675842	7.4227753	0.7181549
1493694853331	2.492981	6.8627625	2.6070557
1493694853331	1.85643	6.6325684	1.8261108
1493694853331	0.9255066	7.0717163	0.43440247
1493694853331	0.46949768	7.7959747	-0.4280243
1493694853331	0.24594116	8.430405	-0.5873413
1493694853331	0.2414093	8.803024	-0.6642914
1493694853331	0.6394806	9.239899	-0.9657898
1493694853331	0.7533264	9.697327	-1.0147705
1493694853331	1.0656128	10.527252	-0.96188354
1493694853331	1.7525024	11.190247	-0.67648315
1493694853331	1.7683868	11.173965	-0.79615784
1493694853331	0.805954	11.287857	-0.47065735
1493694853331	0.27560425	11.365265	0.26231384
1493694853331	1.5948029	11.305084	-0.17736816
1493694853331	2.2508545	12.119064	1.454895
1493694853331	2.8105774	15.767731	1.7270508
1493694853331	1.7276611	16.354294	-0.49719238
1493694853331	0.5121918	12.988205	-0.47181702
1493694853331	1.023346	9.407471	2.973938
1493694853331	3.1938171	8.041595	2.570221
1493694853331	3.8409882	8.340866	0.47346497
1493694853331	4.6280518	9.547928	0.3522339
1493694853331	5.830368	12.330765	-0.14863586
1493694853331	5.1743164	13.56723	-4.2258606
1493694853331	0.6173706	10.496994	-2.6950378
1493694853331	-0.77349854	9.659332	4.364334
1493694853331	1.7774963	12.823227	6.2383575
1493694853331	-0.44424438	9.912735	-1.6487732
1493694853331	1.3287659	5.386383	1.9975586
1493694853331	4.0323486	4.329193	1.6022949
1493694853331	4.554138	4.89682	1.1645813
1493694853331	3.263092	4.922882	-0.65478516
1493694853331	3.3627014	4.470642	-1.5462494
1493694853331	3.7542725	2.8750305	-2.4125671
1493694853332	3.7167206	1.2606659	-3.5936127
1493694853332	3.8460693	1.1158447	-5.8226166
1493694853332	3.7238007	3.8953247	-7.0536957
1493694853332	2.6061249	9.2655945	-8.403976
1493694853332	2.4406433	16.25969	-6.8299866
1493694853332	2.9572601	18.16748	-5.2833557
1493694853332	0.70410156	10.80632	-8.952972
1493694853332	1.1213989	1.773056	-7.498749
1493694853332	3.9443512	2.5791473	-5.8223724
1493694853332	5.9860992	9.654434	-5.318619
1493694853332	7.3069763	16.78688	-0.5723419
1493694853332	6.0783234	14.716339	5.2639923
1493694853332	1.8102112	6.2086487	-1.1781616
1493694853332	2.861618	2.9397583	-1.9699402
1493694853332	3.18602	5.225189	-2.5467072
1493694853332	3.7682953	7.708359	1.3735809
1493694853332	2.8721313	10.751099	9.418701
1493694853332	0.8239136	14.425156	13.718384
1493694853332	-0.6167908	14.135498	7.4310303
1493694853332	0.07946777	10.355988	-8.221039
1493694853332	2.2321472	9.1128845	-7.7734528
1493694853332	1.894516	9.36528	-1.0249023
1493694853332	1.6526031	8.868408	-0.33815002
1493694853332	2.030487	7.446762	1.4720764
1493694853332	2.144638	6.626068	-0.60891724
1493694853332	1.54245	7.0563965	-1.7164917
1493694853332	1.226532	7.346527	-1.150528
1493694853332	1.1347198	7.177475	-0.5608368
1493694853332	1.3546295	7.416977	0.42442322
1493694853332	1.7035522	8.61171	1.279953
1493694853332	1.4656525	10.28923	0.7065582
1493694853332	1.1962585	11.765152	-0.7881012
1493694853332	1.7315369	12.207275	-1.8912354
1493694853332	0.77053833	11.982178	-0.508667
1493694853332	-0.68074036	12.249619	0.23713684
1493694853332	-0.36613464	12.8573	-1.3540039
1493694853332	0.72779846	13.264175	-0.499115
1493694853332	1.2711487	15.04747	1.6019287
1493694853332	0.56877136	14.426895	-0.037017822
1493694853332	0.5697632	11.691162	2.4393158
1493694853332	1.4762268	9.781235	3.5407104
1493694853332	4.2198944	9.483383	0.9755554
1493694853333	4.093231	9.225769	0.611496
1493694853333	4.9009094	9.935089	0.21026611
1493694853333	8.034378	13.40802	-2.4710693
1493694853333	5.1630707	12.852432	-5.6971893
1493694853333	0.37670898	10.553299	-1.5256805
1493694853333	-0.09114075	10.943253	4.2080383
1493694853333	0.81211853	11.57196	-0.07984924
1493694853333	-2.0236053	5.9411774	2.6632233
1493694853333	3.1538544	4.03067	0.9729767
1493694853333	4.0292664	3.892685	2.329895
1493694853333	4.3355713	4.071213	0.86602783
1493694853333	4.1610413	3.7790833	0.11694336
1493694853333	4.4385986	3.2543335	-1.5619354
1493694853333	4.6108704	1.8104248	-3.4370117
1493694853334	3.7916565	1.3202972	-4.604599
1493694853334	3.7165375	2.8188477	-6.0480194
1493694853334	2.9404755	6.530899	-8.237503
1493694853334	1.3729401	13.610001	-10.973007
1493694853334	2.4860382	19.256714	-10.806763
1493694853334	5.0220337	16.063858	-5.7188263
1493694853334	2.8800507	7.8398743	-4.778549
1493694853334	1.4254456	2.3929749	-6.674713
1493694853334	3.9422607	4.2768097	-7.1803894
1493694853334	6.5464783	11.514923	-6.142914
1493694853334	9.834793	15.114975	1.0672302
1493694853334	6.8173065	11.503525	3.6372528
1493694853334	1.5959778	5.1421356	-2.8534393
1493694853334	3.1332092	3.96846	-2.1376648
1493694853334	3.0488281	5.343796	-0.48625183
1493694853334	3.2254944	7.587845	2.7585907
1493694853334	1.9964142	10.448807	10.113831
1493694853334	-0.42591858	13.754105	13.224503
1493694853334	-1.3130646	13.365509	7.7278137
1493694853334	1.1543732	10.330322	-9.278534
1493694853334	3.5417633	9.710983	-8.830582
1493694853334	2.9878998	9.872711	-1.7022247
1493694853334	1.9431152	8.578003	0.7484894
1493694853334	1.8884888	6.9064026	1.4046936
1493694853334	1.9863434	6.710205	-0.49143982
1493694853334	1.2747955	7.3425903	-0.97750854
1493694853334	1.0956116	7.6336365	-0.39001465
1493694853334	1.3088684	7.8469543	0.5424042
1493694853334	1.4637299	8.392715	0.64805603
1493694853334	0.8489227	9.358612	1.1867828
1493694853334	-0.24320984	10.881561	0.62506104
1493694853334	0.6149597	12.866531	-1.6134186
1493694853334	2.208496	11.748169	-3.2907257
1493694853334	1.5348358	10.871277	-0.7554779
1493694853334	-0.46141052	11.121902	0.81529236
1493694853334	-0.5872803	11.378311	-0.38453674
1493694853334	1.4096832	12.214951	0.31044006
1493694853334	2.7154846	14.832123	1.6286774
1493694853334	0.7353821	14.585861	-0.12942505
1493694853334	0.848114	11.811554	2.4850006
1493694853334	1.6460419	10.078873	5.029297
1493694853334	4.7612	10.092209	1.6333771
1493694853335	5.440796	10.300278	0.20223999
1493694853335	7.4159393	12.130447	-2.7751312
1493694853335	9.510696	13.774841	-4.029831
1493694853335	3.2547913	11.373642	-0.77571106
1493694853335	-0.08428955	9.441437	0.6124878
1493694853335	0.5317383	10.354675	2.3335419
1493694853335	1.5170746	10.375336	0.39167786
1493694853335	0.42227173	7.373291	2.1990051
1493694853335	2.6740112	5.0180664	1.0120239
1493694853335	3.4667206	4.2229614	2.3958282
1493694853335	4.1258698	3.9392853	1.6819916
1493694853335	4.588043	3.546997	-0.13117981
1493694853335	4.274292	3.27565	-0.8946228
1493694853335	4.0851135	2.8571014	-2.3561249
1493694853335	3.49971	1.9707794	-3.0919952
1493694853335	3.5863037	2.1960754	-4.91066
1493694853335	4.245331	4.488205	-5.9917603
1493694853335	3.7572632	10.091537	-7.112091
1493694853335	2.7410583	17.304062	-10.201324
1493694853335	5.1283875	18.481369	-12.24173
1493694853335	6.298416	12.3715515	-6.8105316
1493694853335	1.3285217	3.162445	-4.8524323
1493694853335	1.0306549	0.8624115	-4.9947968
1493694853335	3.957489	5.065323	-4.0577087
1493694853335	6.9724274	11.299866	-3.311432
1493694853335	9.107513	16.867401	0.60588074
1493694853335	5.4885254	13.9891815	1.2388458
1493694853335	3.278183	6.2213135	-0.43748474
1493694853335	3.406601	4.563614	0.7598114
1493694853335	3.4118042	5.6372375	0.57077026
1493694853335	4.9023285	7.668228	2.8441162
1493694853336	2.223465	9.362167	9.59967
1493694853336	-0.026306152	12.8572235	11.885117
1493694853336	0.18824768	14.253082	4.3317566
1493694853336	-0.75787354	11.699463	-3.473175
1493694853336	0.97010803	9.814865	-4.5274963
1493694853336	1.361908	8.239441	-2.7754211
1493694853336	1.4240723	7.2790833	0.8456726
1493694853336	1.6356812	6.8876038	2.0822449
1493694853336	1.3608246	6.8039856	0.74812317
1493694853336	0.44366455	7.6215363	-1.1013489
1493694853336	0.16616821	8.735626	-1.1389008
1493694853336	0.74186707	9.173523	-1.2440491
1493694853336	0.2856903	8.956268	-0.3617401
1493694853336	1.2274017	9.659714	-0.020614624
1493694853336	2.214737	10.751373	-0.494339
1493694853336	2.3181305	11.447174	-1.0901489
1493694853336	0.79730225	11.219772	-0.23971558
1493694853336	-0.64849854	11.955322	-0.5322876
1493694853336	-2.7836914	11.746216	-0.23669434
1493694853336	0.98013306	12.075012	-1.3340912
1493694853336	2.5404205	12.463226	0.2427063
1493694853336	1.1199341	13.650101	2.0353394
1493694853336	2.1236877	12.623886	-0.0053100586
1493694853336	3.090561	11.414688	1.6128082
1493694853336	4.360092	10.601135	2.1670074
1493694853336	5.505005	10.3958435	0.3864746
1493694853336	5.571701	10.506134	0.53974915
1493694853336	5.71669	10.462219	-0.04650879
1493694853336	7.7248077	12.291077	-1.2330017
1493694853336	2.27034	11.203781	-2.2594452
1493694853336	0.220932	10.53273	-0.769928
1493694853336	2.5455475	11.640427	-1.5567169
1493694853336	0.46372986	10.33931	-0.5537262
1493694853336	0.6304321	8.050446	1.715683
1493694853336	2.7126923	5.8511353	2.6901398
1493694853336	3.4340668	4.7762756	2.2339478
1493694853336	4.1158905	4.134735	1.4899597
1493694853336	4.3154144	3.6928558	-0.3668518
1493694853336	3.918808	3.41568	-1.3308563
1493694853336	3.4292908	2.8787994	-2.428299
1493694853336	3.4859772	2.0569305	-3.504547
1493694853336	3.7930145	1.9074249	-4.034607
1493694853337	3.0794525	3.5194397	-3.4855347
1493694853337	2.8828735	9.145065	-5.8184204
1493694853337	1.4167938	16.404999	-8.74881
1493694853337	-0.72143555	18.620712	-9.64064
1493694853337	1.7156067	13.33699	-9.447678
1493694853337	1.2313538	5.8877563	-5.132324
1493694853337	1.1177368	4.3611298	-0.34535217
1493694853337	4.4986267	8.079163	-3.4162598
1493694853337	7.3695984	13.064896	-3.8883057
1493694853337	8.53656	15.302124	0.54096985
1493694853337	4.613388	9.894684	-0.42907715
1493694853337	3.3535461	5.252243	-1.2909241
1493694853337	3.6257324	6.468033	1.1416779
1493694853337	3.6727448	8.420197	2.2927856
1493694853337	4.2374573	10.02092	3.8344574
1493694853337	3.760254	10.985916	5.2302094
1493694853337	3.6240845	11.77919	4.2338715
1493694853337	3.1851807	10.712112	1.6147156
1493694853337	2.4957733	9.483017	0.77526855
1493694853337	3.4316864	10.123016	1.7770844
1493694853337	1.9593964	8.89978	3.7118378
1493694853337	0.9997864	7.52977	3.6798553
1493694853337	0.79901123	7.294861	3.8730927
1493694853337	0.9176483	7.844635	1.1386871
1493694853337	0.6321106	9.166168	0.6174927
1493694853337	0.015731812	10.228546	2.2866669
1493694853337	-0.046035767	11.158691	1.8754425
1493694853337	0.50416565	10.954712	0.21627808
1493694853337	1.6970062	9.780563	1.5305481
1493694853337	2.375885	9.375336	1.3850555
1493694853337	2.63591	10.029846	-0.13696289
1493694853337	1.5913849	10.093521	1.5618439
1493694853337	-0.5999756	9.955948	2.3025208
1493694853337	-1.4626923	10.258881	0.5088501
1493694853337	-0.317688	11.359726	-3.2711945
1493694853337	2.2669067	12.367874	-2.5402374
1493694853337	3.5702362	10.996094	-0.13954163
1493694853337	4.824707	8.905579	-1.5862274
1493694853337	5.5460205	7.267639	-1.6854553
1493694853337	5.2968903	8.113251	0.6029663
1493694853337	5.85968	11.231369	-0.14160156
1493694853337	6.064331	13.060867	-1.699234
1493694853337	7.294861	11.044968	-0.8497925
1493694853338	8.041107	8.290192	-3.3554688
1493694853338	7.527115	6.6283264	-3.7563171
1493694853338	4.847519	6.653717	-1.3512421
1493694853338	2.876709	6.729141	-3.179016
1493694853338	3.4998627	5.8104095	-2.9822235
1493694853338	3.5255585	5.754196	-1.7485046
1493694853338	3.1225128	5.7421722	-1.6498871
1493694853338	3.219345	5.568512	-2.2407074
1493694853338	3.9562378	5.0695343	-2.3518372
1493694853338	4.3374176	4.741226	-1.6530762
1493694853338	3.7479095	5.511917	-3.5192719
1493694853338	1.8509827	6.2806244	-7.0323334
1493694853338	-0.016601563	7.073181	-8.649872
1493694853338	-1.1197662	8.09111	-8.163788
1493694853338	-0.5652313	8.692673	-7.4108124
1493694853338	1.7866058	8.69426	-7.4888916
1493694853338	3.3710022	8.68042	-6.573181
1493694853338	5.748932	7.9456177	-6.2910004
1493694853338	8.853134	7.224701	-6.0220795
1493694853338	9.910248	7.9539948	-5.3787537
1493694853338	10.587692	8.74379	-4.3960724
1493694853338	8.219574	7.175537	-3.517685
1493694853338	5.4188843	4.6916046	-3.2387085
1493694853338	4.607422	4.6376038	-2.8161316
1493694853338	4.8815613	6.2837677	-0.04386902
1493694853338	4.969269	7.1184845	4.223938
1493694853338	3.1900635	8.887268	7.8403625
1493694853338	1.0342712	11.712799	8.481018
1493694853338	0.010498047	15.106705	3.510025
1493694853338	-2.659958	15.140808	-1.2583466
1493694853338	0.021209717	12.874771	-0.9759674
1493694853338	2.2297974	11.344513	-0.043777466
1493694853338	2.0802155	10.262711	1.3712616
1493694853338	2.6163177	9.185898	2.0138702
1493694853338	2.9286957	8.124039	0.41026306
1493694853338	2.170639	7.969681	1.3944397
1493694853338	1.1490021	7.7233124	2.005066
1493694853338	0.69721985	7.709091	1.2390594
1493694853338	0.31610107	7.9630127	-0.6214447
1493694853338	0.006088257	8.550964	-0.31359863
1493694853338	-0.34501648	8.98793	-0.14936829
1493694853338	-0.5554962	8.935913	-0.9787903
1493694853339	-0.018981934	8.497009	0.28825378
1493694853339	1.4926453	8.795639	0.26635742
1493694853339	1.908783	9.965607	-0.5133972
1493694853339	1.5812225	11.584595	-1.8554077
1493694853339	1.3862457	12.652618	-0.6954346
1493694853339	1.2319489	12.4787445	-1.8709717
1493694853339	1.5515289	12.008545	-2.8677368
1493694853339	2.2396393	11.761627	-1.8041229
1493694853339	2.919098	11.619064	0.3371582
1493694853339	3.2841034	13.337936	1.8473358
1493694853339	3.063324	13.4218445	1.7403717
1493694853339	2.5738068	11.845932	2.0257568
1493694853339	2.8452606	9.741409	2.2030334
1493694853339	4.022583	10.045227	2.1287842
1493694853339	4.762909	11.44902	2.528717
1493694853339	4.7610016	11.642731	1.8866577
1493694853339	6.3363495	11.858643	0.028762817
1493694853339	5.3365784	12.565399	-3.3509674
1493694853339	0.71321106	11.5215	-3.6658173
1493694853339	-0.8456421	12.038834	3.5888977
1493694853339	-0.24490356	12.269089	6.8429413
1493694853339	1.8265381	7.968521	2.6249847
1493694853339	3.636551	4.2344666	1.2962036
1493694853339	4.3844757	2.9093933	0.11489868
1493694853339	4.5639343	2.4940033	-1.5299072
1493694853339	3.8162537	2.6103668	-2.627304
1493694853339	3.19458	3.1973572	-2.988922
1493694853339	3.0458984	3.2454834	-2.658661
1493694853339	2.826065	2.5586853	-3.624405
1493694853339	2.384552	2.0557404	-5.5352325
1493694853339	1.329895	3.4278107	-7.0221405
1493694853339	-0.007965088	7.968445	-9.554428
1493694853339	-0.022537231	15.311554	-11.277435
1493694853339	1.4470062	18.323334	-7.7548523
1493694853339	2.2825317	13.262878	-4.859726
1493694853339	2.7775574	6.0617065	-5.5672913
1493694853339	5.014328	7.313843	-6.015091
1493694853339	7.626831	13.616257	-6.014923
1493694853339	7.5033417	11.598221	-0.65330505
1493694853339	4.4802856	5.6021576	0.84413147
1493694853339	3.392456	3.315155	-3.8724976
1493694853340	3.6312714	4.0555725	-1.9799652
1493694853340	3.9974213	5.8200836	0.89564514
1493694853340	4.398239	8.855164	7.151367
1493694853340	2.1040802	13.134171	14.191681
1493694853340	1.8388977	18.185623	12.006592
1493694853340	-0.77285767	15.67627	1.2010345
1493694853340	-2.0069275	8.855545	-17.15741
1493694853340	1.4877167	10.036835	1.2922668
1493694853340	3.5068665	8.778336	-1.5634155
1493694853340	2.951126	7.262451	2.105713
1493694853340	2.5415802	6.4090424	3.0001526
1493694853340	2.2744598	6.0502167	-0.26312256
1493694853340	1.9215393	6.634308	-0.8020477
1493694853340	1.2308502	6.770111	-1.6566315
1493694853360	1.1737213	7.2839203	0.29675293
1493694913299	1.6668854	8.495285	0.6064606
1493694913299	2.094574	9.547577	1.1162262
1493694913299	1.5949707	10.304535	0.5515137
1493694913299	1.3954926	11.720047	-1.703537
1493694913299	2.0277252	12.273392	-3.956192
1493694913299	1.6198578	11.266174	-2.0719452
1493694913299	-0.38217163	11.027084	2.1163635
1493694913299	-0.96435547	12.161423	1.0497589
1493694913299	-0.06404114	12.992584	-0.9766083
1493694913299	1.2788544	14.283752	-0.12068176
1493694913299	2.692688	15.629852	0.31376648
1493694913299	1.4110107	12.8593445	-0.27264404
1493694913299	0.9583435	10.450607	3.0979156
1493694913300	2.1873932	10.348587	3.6726685
1493694913300	2.8457184	10.154022	1.6456909
1493694913300	3.903183	10.5881195	0.26582336
1493694913300	7.259201	13.297104	-2.21315
1493694913300	7.3114166	13.8050995	-4.6717987
1493694913300	1.338089	10.664932	-1.4723969
1493694913300	0.6108856	10.079117	0.052246094
1493694913300	-0.1071167	10.009964	1.3798523
1493694913300	-1.9956055	6.917206	2.6639862
1493694913300	0.9307556	4.0069885	2.7564697
1493694913300	3.9898987	3.957672	1.1811066
1493694913300	4.244705	3.7851715	0.11433411
1493694913300	3.9618073	3.8391113	-1.0602112
1493694913300	3.6569824	3.9129791	-1.535492
1493694913300	3.9667206	3.146347	-1.8546295
1493694913300	3.9206238	2.1126099	-2.9531097
1493694913300	3.9432983	2.3815918	-4.562042
1493694913300	4.0529785	4.4872437	-6.4093018
1493694913300	3.289505	9.04454	-8.2966
1493694913300	1.7662048	16.329056	-9.0542145
1493694913300	2.7996368	19.524582	-6.390213
1493694913300	3.2279358	12.742004	-7.1882324
1493694913300	1.7683563	3.6922913	-7.951889
1493694913300	3.653061	1.4906464	-6.92807
1493694913300	5.064789	7.9534607	-6.11055
1493694913301	8.14624	13.911819	-2.1180725
1493694913301	7.272293	13.801483	4.448807
1493694913301	3.3451843	7.9407806	0.34072876
1493694913301	2.7709198	4.1035004	-1.779953
1493694913301	3.3754425	5.0933685	-0.7635498
1493694913301	3.7762146	7.4440765	1.9610443
1493694913301	1.8788147	9.849167	8.933487
1493694913301	0.8558502	13.948013	11.335968
1493694913301	-0.59565735	15.017593	7.297058
1493694913301	-1.4606323	12.215332	-14.034256
1493694913301	3.0580902	10.129288	-4.4332733
1493694913301	3.5754395	8.77002	-2.482544
1493694913301	2.7940521	8.092346	0.57759094
1493694913301	2.3243103	7.2783356	3.8843384
1493694913301	2.6689453	6.6611023	0.5032959
1493694913301	1.2492065	7.196411	-0.7186127
1493694913301	0.54722595	8.412552	-1.0723114
1493694913301	-0.032684326	8.593582	-1.2880402
1493694913301	0.010726929	8.5937805	-1.4527435
1493694913301	0.31948853	8.970337	-1.5610352
1493694913301	0.15716553	9.093277	0.12113953
1493694913301	-0.125	9.54599	-0.33650208
1493694913301	0.6855469	10.903931	-0.4512024
1493694913301	2.6784058	11.471344	-2.0327759
1493694913301	2.0157318	10.959824	-1.4343567
1493694913301	0.9112854	11.745087	-0.25091553
1493694913302	0.15631104	11.585342	-1.4859619
1493694913302	2.986435	12.480057	-1.9622803
1493694913302	2.79393	14.680923	-0.8319702
1493694913302	2.1026764	15.086792	-0.5626373
1493694913302	0.78526306	11.816635	-0.08589172
1493694913302	0.07473755	10.640106	2.6138
1493694913302	1.6912842	10.262344	2.3803558
1493694913302	2.9574585	10.863556	1.6989441
1493694913302	4.950348	11.633484	0.70973206
1493694913302	6.944824	13.732346	-2.4345245
1493694913302	4.644821	13.042236	-5.7104797
1493694913302	0.5159607	10.206497	-2.445404
1493694913302	0.24046326	9.9939575	2.4273682
1493694913302	-0.50242615	9.636124	3.1996918
1493694913302	-0.91812134	6.6552277	1.7580261
1493694913302	2.0758667	4.764618	2.2195892
1493694913302	3.7182465	4.4235687	2.3009949
1493694913302	4.042038	4.02211	0.84288025
1493694913302	4.4300995	3.6170197	-0.7616272
1493694913302	5.112961	3.1298828	-1.6957855
1493694913302	5.0380096	2.0495758	-2.2669525
1493694913302	4.3636017	1.2996826	-3.2194672
1493694913302	4.230957	1.9803009	-4.098938
1493694913302	3.5281525	5.500473	-6.505493
1493694913302	1.9156036	12.254929	-11.008133
1493694913303	1.7378082	18.070358	-9.664078
1493694913303	2.7995605	18.351822	-5.795822
1493694913303	1.6124268	10.6623535	-6.635071
1493694913303	0.076416016	3.894928	-7.8625793
1493694913303	2.4961548	3.8322754	-6.9923706
1493694913303	4.6605988	10.977478	-6.703064
1493694913303	8.674805	15.491501	-1.334259
1493694913303	7.9932404	12.391312	5.78389
1493694913303	3.6234741	5.214813	-3.0869598
1493694913303	3.8129272	2.4131317	-3.365265
1493694913303	3.8410645	4.38385	-1.0799255
1493694913303	2.7651367	6.4402924	0.73127747
1493694913303	2.7565765	8.292908	7.4683075
1493694913303	0.4893341	12.464966	15.713776
1493694913303	-0.59303284	15.254181	10.587677
1493694913303	-1.8205719	12.448837	3.5445862
1493694913303	1.6910095	10.080582	-17.532913
1493694913303	3.7230682	9.892441	-0.85050964
1493694913303	2.3114624	8.9841	-1.1556549
1493694913303	1.9871674	7.6345367	3.8535614
1493694913304	2.4748993	6.7105255	0.8693695
1493694913304	1.8593903	6.6400146	-1.2902069
1493694913304	0.6191559	7.724411	-1.2863159
1493694913304	0.21585083	8.365128	-0.2999115
1493694913304	-0.1111145	8.858963	1.0379944
1493694913304	0.39801025	9.737961	-0.18362427
1493694913304	0.1832428	9.916962	-0.3539276
1493694913304	0.09083557	10.945831	-1.2786255
1493694913304	1.6931458	12.421494	-2.1029968
1493694913304	2.1214294	11.512848	-1.7424774
1493694913304	0.6364746	10.959839	0.72572327
1493694913304	-0.12150574	11.230728	0.42178345
1493694913304	0.4714203	11.50679	-1.8810883
1493694913304	1.930954	13.1562195	-0.11935425
1493694913304	2.5265503	14.843689	0.6950226
1493694913304	1.1749878	13.580856	0.60220337
1493694913304	0.86782837	10.428131	2.7582397
1493694913304	1.9249115	9.553482	3.0350037
1493694913304	3.2150574	10.018234	0.77316284
1493694913304	4.3131256	11.249268	-0.14190674
1493694913304	6.569092	13.807907	-1.6995392
1493694913304	7.2408752	14.894119	-3.1559296
1493694913304	2.972824	12.176895	-2.5523376
1493694913304	-0.87638855	10.414429	2.0345764
1493694913305	-1.1768036	10.883591	2.1087494
1493694913305	-0.6728363	8.235474	0.7036133
1493694913305	1.0075684	4.3088684	1.8022766
1493694913305	3.5265045	3.5151062	0.85739136
1493694913305	3.9302368	3.3123474	1.2141418
1493694913305	4.123703	3.3487854	0.53256226
1493694913305	4.367401	3.7669983	-0.8122101
1493694913305	4.7975616	3.2001038	-1.9669952
1493694913305	4.5357513	1.6923218	-3.4795227
1493694913305	4.2038574	1.007843	-5.1275024
1493694913305	3.9490204	2.0736542	-5.183182
1493694913305	3.265747	7.476593	-6.7601166
1493694913305	0.11164856	16.764374	-12.272827
1493694913305	3.8872375	19.524582	-8.646378
1493694913305	7.219696	14.722244	-7.456009
1493694913305	1.4238892	3.4331818	-7.4390717
1493694913305	1.4993134	-0.14317322	-6.9030304
1493694913305	4.0344696	5.605484	-5.8968353
1493694913305	6.7610626	12.908188	-4.1091156
1493694913305	10.038406	15.0793915	4.8318634
1493694913305	2.7216644	12.848907	-0.61128235
1493694913305	2.5269775	5.3146057	-1.219696
1493694913305	3.4619446	3.9695282	-1.0864258
1493694913305	2.4976501	5.3797455	0.26463318
1493694913305	2.947998	6.9898834	2.9499207
1493694913306	0.523407	10.245453	10.111633
1493694913306	-0.2271576	15.817657	11.722778
1493694913306	-0.4996643	14.275253	3.6795807
1493694913306	2.102539	9.784195	-12.374756
1493694913306	2.1919098	8.628189	-0.5808258
1493694913306	1.9775238	7.680176	-1.2513885
1493694913306	1.5773773	6.7483826	3.6048584
1493694913306	1.7958527	5.9216766	2.0493164
1493694913306	1.2152252	6.938507	0.6565552
1493694913306	0.48017883	8.837479	-0.35934448
1493694913306	-0.26791382	9.21225	-1.144928
1493694913306	0.8472595	9.271454	-1.3430176
1493694913306	0.5625763	9.741394	-1.0529022
1493694913306	0.14985657	10.533096	-1.2032471
1493694913306	-0.50831604	11.275375	-0.52290344
1493694913306	0.114593506	12.664307	-0.46617126
1493694913306	1.5000153	12.462753	-1.4772949
1493694913306	0.95233154	11.784271	-0.9145355
1493694913307	0.21533203	11.675049	-0.10803223
1493694913307	0.40675354	11.111465	-2.3865204
1493694913307	3.1139832	12.652603	0.053115845
1493694913307	3.079422	14.50145	1.0423737
1493694913307	1.2546082	13.282898	0.2565155
1493694913307	0.8759613	10.432938	2.2616882
1493694913307	1.9332275	9.930649	2.266571
1493694913307	2.9038239	10.632568	0.5532837
1493694913307	4.029312	11.710388	-1.9836426E-4
1493694913307	6.1412964	14.224518	-1.6000366
1493694913308	5.1460876	14.841797	-3.4852905
1493694913308	1.102478	12.361649	-2.555954
1493694913308	-1.2821655	11.743011	3.3548431
1493694913308	-2.228531	10.4687805	3.9124603
1493694913308	-0.38639832	6.2059784	1.9609528
1493694913308	2.4034271	3.1762085	0.8804321
1493694913309	3.2731934	2.6348572	-0.0317688
1493694913309	3.348587	3.1477966	0.8282623
1493694913309	3.6401062	3.9160004	0.41737366
1493694913309	4.2685394	3.986908	-0.49656677
1493694913309	4.889862	2.8311768	-2.318283
1493694913309	4.2430267	1.4449615	-4.0007935
1493694913309	3.958084	1.5049744	-5.684952
1493694913309	3.8069153	3.4272766	-7.166794
1493694913309	2.4184265	8.622238	-8.871262
1493694913309	0.65049744	17.432693	-9.947891
1493694913310	3.0184631	19.524582	-2.4677887
1493694913310	2.5453644	14.748093	-6.553406
1493694913310	-0.60058594	2.683258	-12.413681
1493694913310	1.3279419	-0.9343872	-10.109619
1493694913310	3.419342	5.26886	-7.0739594
1493694913310	7.851181	13.016693	-0.72943115
1493694913310	11.696579	15.719849	11.169556
1493694913310	-0.33424377	11.976028	-5.1319275
1493694913310	3.2433472	4.5070953	-2.3081512
1493694913311	4.335602	4.348236	-0.08465576
1493694913311	3.156372	6.7483063	0.810318
1493694913311	4.089325	8.439819	3.9986877
1493694913311	0.108047485	9.759796	11.834686
1493694913311	-0.14982605	13.170624	11.284882
1493694913311	-0.5784607	12.541183	3.1070251
1493694913311	0.89360046	11.349396	-14.022675
1493694913311	2.5389404	10.143829	-3.003189
1493694913311	2.2395477	9.113388	-3.7164917
1493694913311	1.5640564	8.136673	2.097229
1493694913311	1.6890717	6.724594	1.7389984
1493694913311	1.1596069	6.654907	-0.23338318
1493694913311	0.4298706	7.5081024	-0.6789093
1493694913311	-0.060958862	8.196533	-0.49700928
1493694913311	0.026138306	8.641846	-0.44665527
1493694913311	0.7876282	9.068314	-0.76104736
1493694913311	0.9120941	9.534973	-0.90153503
1493694913311	0.59765625	10.1736145	-1.409378
1493694913311	1.6377258	11.063141	-2.209198
1493694913311	1.8781738	11.364151	-2.11586
1493694913311	0.663208	11.806595	0.25732422
1493694913312	-0.5832825	11.512878	0.88308716
1493694913312	-0.08633423	11.789459	-1.5426636
1493694913312	0.8207245	13.691528	-1.9706268
1493694913312	0.44805908	15.721924	-0.15660095
1493694913313	1.0813599	14.707016	1.2761688
1493694913313	2.095932	11.366425	2.219223
1493694913313	3.2287292	10.42218	2.704422
1493694913314	4.0399323	10.475647	1.8825531
1493694913314	5.2007294	10.715485	2.6609192
1493694913314	5.9379883	12.217377	1.7168579
1493694913314	7.1898346	14.407639	-2.3311615
1493694913314	4.482712	13.015778	-3.9689026
1493694913315	-0.16647339	10.158752	0.20239258
1493694913316	1.857254	10.390717	2.0452423
1493694913316	1.4948425	8.288254	1.1056366
1493694913316	0.35168457	4.340744	1.1053772
1493694913316	3.0934448	3.5065002	0.5217743
1493694913316	3.4540405	3.359665	1.4333191
1493694913317	3.3042603	3.093338	1.6941681
1493694913317	3.3860931	3.1026154	0.72128296
1493694913317	3.6654816	2.5347137	-1.1867065
1493694913317	3.8026123	1.2433777	-3.019516
1493694913317	3.5215454	0.7968292	-5.104767
1493694913318	3.146103	3.218811	-5.667984
1493694913318	2.591217	10.407898	-9.414764
1493694913318	0.36073303	18.195313	-15.5581665
1493694913318	7.349884	19.524582	-7.3500214
1493694913318	6.5619354	12.08815	-8.482956
1493694913318	-0.021377563	1.4625244	-6.38855
1493694913319	4.415512	3.020523	-7.2256927
1493694913319	6.19812	11.6250305	-7.100952
1493694913319	4.301834	14.805252	-5.057602
1493694913319	7.1666107	11.212753	4.7498474
1493694913320	2.3896484	5.270996	1.3233948
1493694913320	1.8007355	2.1088562	-4.258896
1493694913320	2.789383	4.230057	-1.8596191
1493694913320	4.1606445	5.984619	1.2081451
1493694913321	4.3419952	8.87265	6.5428314
1493694913321	-0.09341431	12.669266	15.389099
1493694913321	0.15718079	17.039505	11.572586
1493694913321	-1.3522186	13.405472	-2.5971375
1493694913322	1.7992096	8.90332	-14.545929
1493694913322	5.460907	9.214615	0.42295837
1493694913322	2.5512238	8.515503	-1.4665527
1493694913322	1.6297302	7.694351	4.000122
1493694913322	2.106018	6.6029205	1.3660126
1493694913323	1.6964874	6.7315063	-0.37911987
1493694913323	0.6478424	7.45961	-0.9099426
1493694913323	0.30863953	7.875992	-1.0198517
1493694913323	0.19091797	8.17511	-0.27285767
1493694913324	0.82011414	8.853073	-0.078430176
1493694913324	0.9966278	9.69928	-0.27226257
1493694913324	0.71136475	10.692184	-0.5166168
1493694913324	0.63171387	11.461166	-1.5516968
1493694913324	0.6870575	11.436371	-1.3405762
1493694913324	0.27870178	11.78125	0.3141632
1493694913324	0.5657654	11.88916	0.17010498
1493694913324	2.247116	11.453995	-0.869751
1493694913324	3.3759003	12.987854	-0.71058655
1493694913324	2.3683777	16.020508	0.027008057
1493694913324	0.43710327	15.558746	0.40664673
1493694913324	0.05645752	11.907944	2.7506714
1493694913324	1.7727814	9.499985	4.1185303
1493694913324	3.2629852	8.962799	1.8305969
1493694913324	4.015106	9.536133	-0.17210388
1493694913324	6.0361023	11.902863	-1.1783905
1493694913324	7.1137695	13.884827	-3.0443726
1493694913324	3.984848	12.934448	-2.4399567
1493694913324	0.32122803	11.384232	1.1268768
1493694913324	-0.72151184	11.838593	3.3415375
1493694913325	-0.3781891	9.805313	2.2779388
1493694913325	0.94511414	4.8937683	2.5374298
1493694913325	3.233139	3.457199	1.2529907
1493694913325	4.149002	3.949829	0.67767334
1493694913325	3.8073425	3.833725	0.30459595
1493694913325	3.7224731	3.7104492	-0.99650574
1493694913325	3.6658478	3.4013062	-1.4100952
1493694913325	3.5954742	2.0335846	-2.4773254
1493694913325	2.8656616	0.5351715	-4.3039856
1493694913325	3.2313232	1.6079559	-5.537262
1493694913325	2.8890533	4.62442	-7.5280914
1493694913325	2.6927032	11.571243	-9.728241
1493694913325	2.1905365	18.792343	-10.83931
1493694913325	4.644333	19.524582	-4.883499
1493694913325	0.8211975	8.448639	-6.4310455
1493694913325	-0.41629028	-2.2557678	-10.592682
1493694913325	3.9457397	-2.282959	-8.402176
1493694913325	4.7210693	6.4065247	-6.0218353
1493694913325	10.585037	14.518204	1.0726776
1493694913325	10.089371	19.28714	10.99025
1493694913325	1.9692535	9.864441	-3.619629
1493694913325	4.0931854	4.910095	1.3871918
1493694913325	3.5059052	5.3601074	0.043701172
1493694913325	2.5521393	6.4044037	1.4347992
1493694913325	0.8044281	8.132263	6.6948853
1493694913325	-0.18333435	12.3324585	11.564362
1493694913326	0.25489807	15.10672	8.679672
1493694913326	0.23742676	11.956894	-0.25308228
1493694913326	2.601471	9.644974	-7.188797
1493694913326	2.491333	8.461639	-1.1373596
1493694913326	1.7998352	8.02211	0.044403076
1493694913326	1.0828247	7.1489563	2.6377258
1493694913326	1.73172	7.1868134	1.0145264
1493694913326	1.0188141	7.600418	-0.4909973
1493694913326	0.62223816	8.104507	-0.8284302
1493694913326	0.26139832	8.044708	-0.9708557
1493694913326	0.92082214	8.743027	-0.74087524
1493694913326	0.59381104	9.477646	-0.5704651
1493694913326	0.44059753	10.103638	-0.16365051
1493694913326	0.8014984	11.411362	0.035751343
1493694913326	2.0650787	12.1262665	-1.4268341
1493694913327	2.061737	11.409393	-1.6224518
1493694913327	0.6337738	11.509323	0.9403534
1493694913327	-0.26228333	11.663254	0.4710846
1493694913327	0.8213043	11.587204	-1.5187683
1493694913327	2.6245728	12.550934	-1.229538
1493694913328	2.731598	14.354095	-0.044036865
1493694913328	0.98820496	14.596069	0.53512573
1493694913328	-0.5693054	12.200241	2.5872803
1493694913328	0.6615448	10.045227	4.6481323
1493694913328	2.275711	9.652359	2.770279
1493694913328	2.9253235	9.525833	0.7801819
1493694913328	4.7730865	11.169083	-0.3809204
1493694913328	8.178452	13.981598	-3.3397675
1493694913328	6.5548096	12.72757	-5.259781
1493694913328	1.9548798	10.979248	-0.31324768
1493694913328	0.05117798	12.452988	5.76416
1493694913328	-2.0803375	9.144852	3.140747
1493694913328	0.2814331	4.1470947	1.4424744
1493694913329	3.4996948	3.024353	0.3148346
1493694913329	4.277649	3.0494843	0.16864014
1493694913329	4.5789337	3.210785	-0.03276062
1493694913329	4.4410706	3.2190857	-1.3799133
1493694913329	4.0102844	2.8180542	-2.1178436
1493694913329	3.6003876	1.5243378	-3.6164398
1493694913329	3.298874	0.9771271	-5.604187
1493694913330	3.5601654	2.161255	-6.0915985
1493694913330	3.1287842	6.301956	-7.946518
1493694913330	0.38450623	16.15355	-11.130814
1493694913330	4.196335	19.409958	-7.470291
1493694913330	5.410492	17.461365	-6.4186554
1493694913330	1.6497955	4.0946503	-7.33374
1493694913330	2.843628	-0.41859436	-7.483551
1493694913330	5.846863	5.134598	-6.974594
1493694913330	6.1122437	11.761551	-5.4650116
1493694913330	7.153717	14.874908	3.8774414
1493694913330	1.9866943	10.497009	3.1051483
1493694913330	1.7936859	4.908066	-0.39501953
1493694913330	2.954422	4.0539856	-1.2065582
1493694913330	2.850174	5.7668	1.9213715
1493694913330	1.7701416	8.3862915	6.3896637
1493694913330	0.714798	12.414688	11.785049
1493694913330	-0.73301697	15.433228	8.99556
1493694913330	0.13346863	12.245529	-2.5344696
1493694913330	2.036911	8.2829895	-13.294937
1493694913330	4.305008	8.925659	-3.5147705
1493694913330	2.826004	7.2739716	0.13140869
1493694913330	2.3574371	6.7046204	4.259552
1493694913330	1.6869354	6.8388367	2.6021118
1493694913331	1.0930328	7.5230255	-0.29658508
1493694913331	0.83724976	8.192032	-1.6544342
1493694913331	0.41914368	8.519562	-1.2960358
1493694913331	0.2661438	9.274521	1.1192017
1493694913331	0.6791687	10.29068	0.2766571
1493694913331	0.21166992	11.092575	-0.5777588
1493694913331	-0.08955383	12.280609	-1.5555267
1493694913331	0.83898926	12.677628	-2.2824097
1493694913331	1.2901154	11.975006	-0.61727905
1493694913331	0.8413849	11.357559	0.592041
1493694913331	1.4822083	10.959213	-0.6113281
1493694913331	2.0157166	11.549896	-0.6992035
1493694913331	2.4619904	14.600571	0.4750824
1493694913331	1.5024567	15.854141	0.36618042
1493694913331	0.36920166	12.776581	1.6833649
1493694913331	1.1443787	9.861267	4.1105804
1493694913331	2.3193207	9.176117	2.7471313
1493694913331	3.4204254	9.686783	0.6651001
1493694913331	5.031845	11.577423	-0.2572937
1493694913331	7.9815216	14.415695	-3.593628
1493694913331	6.3337097	13.939865	-4.7652893
1493694913331	1.5194092	11.230392	-0.5196533
1493694913331	-1.3689423	11.350616	7.1002655
1493694913331	-1.3258057	10.620361	2.5873108
1493694913331	0.859848	5.6820374	1.2592926
1493694913331	3.3475494	2.6915894	0.95106506
1493694913331	4.271179	2.7356262	0.17449951
1493694913332	4.1680603	3.0689087	-0.10058594
1493694913332	3.449234	3.1573944	-0.8645172
1493694913332	2.92865	2.7636719	-1.2485962
1493694913332	2.8574982	1.416748	-2.6852875
1493694913332	2.4687805	0.51898193	-4.851242
1493694913332	2.545868	1.565033	-5.071472
1493694913332	2.8994904	5.8098755	-8.515152
1493694913332	1.6111298	14.806442	-9.920624
1493694913332	1.3398895	19.430527	-10.888199
1493694913332	4.8862915	19.01184	-7.5423584
1493694913332	0.5459137	5.0457916	-4.1954803
1493694913332	4.0538483	0.48242188	-9.050949
1493694913332	6.9256744	8.56105	-5.067734
1493694913332	9.504669	14.510254	-2.6232605
1493694913332	6.8165283	9.472107	3.9995117
1493694913332	0.9232483	5.4437256	-2.1012878
1493694913332	2.0207367	3.269989	-2.4696808
1493694913332	2.9675903	4.9888153	-0.28556824
1493694913332	4.1505737	7.8512573	3.783905
1493694913332	2.685791	10.347153	10.691101
1493694913332	1.5635681	14.392303	12.203995
1493694913332	-0.9743805	15.184631	6.2171936
1493694913332	-1.1474152	11.363327	-3.317627
1493694913332	1.39151	9.083527	-5.8211975
1493694913332	3.1830292	9.18631	0.45892334
1493694913332	2.738449	7.1335754	0.04840088
1493694913332	2.6748047	6.4996033	1.2536469
1493694913333	2.7524261	6.5519714	0.82299805
1493694913333	0.88368225	7.18277	7.9345703E-4
1493694913333	0.2101593	7.732483	-0.6222687
1493694913333	0.27035522	8.14006	0.04559326
1493694913333	0.50434875	8.838608	0.9574127
1493694913333	1.0750732	9.954269	0.65278625
1493694913333	0.8050842	10.705627	-0.40229797
1493694913333	0.031906128	11.677597	-1.583664
1493694913333	0.67025757	12.576248	-3.272934
1493694913333	1.5193329	11.910294	-2.5144958
1493694913333	0.4359131	10.88504	1.0124359
1493694913333	0.040405273	10.858368	1.3539276
1493694913333	0.43955994	12.08754	0.103134155
1493694913333	0.8639679	15.302139	1.1541748
1493694913333	0.9026642	16.269241	1.1290131
1493694913333	1.5094452	13.214035	2.119873
1493694913333	3.2041626	10.2526245	3.728424
1493694913333	4.676895	9.505096	1.4575043
1493694913333	5.3108215	10.216324	0.18118286
1493694913333	6.2635956	12.239288	-0.21130371
1493694913333	7.4908905	14.361038	-1.9170532
1493694913333	3.8874817	13.3316345	-2.845749
1493694913333	0.29421997	11.280731	-1.4614716
1493694913333	-2.462616	11.228012	6.080612
1493694913333	-1.1503601	10.884842	1.4611969
1493694913333	0.8397217	5.371277	1.0294647
1493694913334	3.682846	2.4712372	0.5307007
1493694913334	4.1506805	2.5588226	0.63139343
1493694913334	4.1584167	3.0822449	0.634964
1493694913334	3.5590363	3.3300018	0.48329163
1493694913334	3.6656036	3.4126282	-0.32499695
1493694913334	3.9770966	2.1363525	-2.5542297
1493694913335	3.1498413	0.2959442	-4.472687
1493694913335	3.342163	1.2450714	-5.806244
1493694913335	2.6983337	4.2695007	-7.191635
1493694913335	1.1706238	12.023621	-10.951553
1493694913335	0.8205414	19.524582	-14.683838
1493694913335	6.2083893	18.817535	-4.415863
1493694913335	1.3977661	6.9653015	-5.428238
1493694913335	1.658783	-0.7919464	-9.027435
1493694913335	5.866699	6.1379547	-5.96521
1493694913335	10.135605	15.052475	-3.5074158
1493694913335	9.384476	13.736084	5.48172
1493694913335	0.458786	8.143311	-1.6452484
1493694913335	2.1280212	2.7767792	-1.6669769
1493694913335	2.7171326	3.6968231	-1.7466125
1493694913335	4.1576996	6.145233	0.9870453
1493694913335	4.4846344	8.37294	5.0345306
1493694913335	1.6448517	10.912262	12.801956
1493694913335	-0.20916748	14.622757	12.314667
1493694913335	-1.4841309	13.369965	4.230133
1493694913335	-0.11242676	10.630539	-2.41539
1493694913335	2.6370544	8.75325	-6.223892
1493694913335	2.8575134	8.549347	0.6002655
1493694913335	1.545105	7.4530945	2.9674835
1493694913335	1.8854675	6.8853455	2.4283142
1493694913336	1.670227	7.0583496	-0.22358704
1493694913336	0.61039734	7.704483	-0.87335205
1493694913336	0.026351929	8.030792	-0.7021942
1493694913336	0.23023987	8.1633	-0.39926147
1493694913336	0.88153076	8.810959	-0.21543884
1493694913336	0.9270172	10.032074	0.19581604
1493694913336	0.5894623	11.882645	0.015075684
1493694913336	1.3612518	12.976624	-2.2640228
1493694913336	1.6383667	12.199188	-2.8453064
1493694913336	0.45417786	11.870621	-0.10519409
1493694913336	-0.24562073	11.752472	0.07420349
1493694913336	0.27194214	11.851791	-0.24499512
1493694913336	2.2850342	14.489349	0.7602539
1493694913336	2.0393524	15.862976	-0.01638794
1493694913336	0.8530731	13.198441	1.1649475
1493694913336	1.3052673	10.18335	4.1192627
1493694913337	3.005188	9.443039	3.2804718
1493694913337	3.65419	9.785431	1.6063995
1493694913337	4.0181885	10.879974	0.3828888
1493694913337	6.49115	13.672836	-1.2395325
1493694913337	6.914261	14.399048	-5.6399536
1493694913337	1.8917084	11.6545105	-2.9106293
1493694913337	0.021774292	10.852493	3.293518
1493694913337	-1.6981659	10.820374	3.7591705
1493694913337	-0.35464478	6.6792145	2.0325012
1493694913337	2.8783875	2.5726013	0.7318573
1493694913337	4.5750275	1.9393158	0.26586914
1493694913337	4.276413	2.4108582	0.60665894
1493694913337	4.224945	3.1163025	-0.6092987
1493694913337	3.5163727	3.4816895	-1.2791443
1493694913337	3.4155426	2.5702057	-2.559372
1493694913337	2.8055573	1.1189423	-3.8920135
1493694913337	2.4282532	1.0733948	-6.092987
1493694913337	3.008728	3.7231598	-8.055725
1493694913337	2.2836761	9.631912	-12.259613
1493694913337	1.5647125	18.626968	-8.400314
1493694913337	3.6632385	19.095016	-1.1079559
1493694913337	0.78074646	13.1293335	-9.19043
1493694913337	-0.33758545	1.4099426	-10.735168
1493694913337	4.5772552	5.9151306	-7.095627
1493694913337	9.490143	14.795471	-2.8733215
1493694913337	10.079483	12.490646	7.3272095
1493694913338	3.6001282	5.4565735	1.6681671
1493694913338	0.92749023	1.9738007	-5.4379883
1493694913338	4.3719025	3.9247894	-2.111618
1493694913338	4.2523193	6.5210266	1.1789551
1493694913338	4.0554504	9.271652	6.7395325
1493694913338	1.7279663	12.729736	13.293777
1493694913338	-0.0914917	15.451233	9.95578
1493694913338	-1.3291626	12.634705	2.4002686
1493694913338	0.041000366	9.803772	-2.855011
1493694913338	2.03508	8.660416	-7.3808594
1493694913338	2.3871155	8.776062	0.25238037
1493694913338	1.6391602	7.6860046	1.8588104
1493694913338	1.877243	7.1701508	2.0190277
1493694913338	1.6235657	6.9161377	-0.7935486
1493694913338	0.8092499	7.245346	-1.5110321
1493694913338	0.82785034	7.7710876	-1.1271515
1493694913338	1.0093231	8.741119	0.11703491
1493694913338	1.1362152	9.669785	0.46931458
1493694913338	0.6353302	10.207672	0.02986145
1493694913338	0.12213135	11.570908	-1.2741089
1493694913338	0.7433014	12.401764	-3.387848
1493694913338	0.75076294	11.785812	-2.734253
1493694913338	-0.47654724	11.692688	0.14912415
1493694913338	0.003326416	12.631088	1.4884186
1493694913338	2.2914734	14.783493	1.844696
1493694913338	2.7003632	15.659775	-0.63967896
1493694913338	1.9002075	13.198242	0.086364746
1493694913339	2.6369476	11.12616	3.6349487
1493694913339	3.747528	10.606903	2.8119202
1493694913339	3.852539	11.137787	1.6893921
1493694913339	4.0834503	11.995682	0.9661865
1493694913339	6.272629	13.728104	-0.06097412
1493694913339	5.7096405	13.602814	-2.3713226
1493694913339	0.48336792	11.125	-2.0086365
1493694913339	2.8573608	11.250305	-0.88168335
1493694913339	0.87812805	9.704315	0.6098175
1493694913339	0.36891174	6.259079	1.989975
1493694913339	1.5012665	3.6410675	2.7617493
1493694913339	3.2664032	2.9249268	1.7734985
1493694913339	4.2101746	2.5513153	0.73017883
1493694913339	4.072754	2.5696106	-0.13832092
1493694913339	3.9158478	3.0828857	-1.0958557
1493694913339	3.9724274	2.3534698	-2.4953766
1493694913339	3.619217	0.893219	-3.9104156
1493694913341	3.8778076	1.2988739	-4.837723
1493694913341	3.2475128	3.7896729	-5.2112274
1493694913342	2.9811249	10.94545	-9.507935
1493694913342	-0.06161499	19.524582	-14.2842865
1493694913342	5.0663605	19.137695	-6.301239
1493694913342	5.029831	10.42186	-7.9588776
1493694913342	0.5727234	0.8951416	-7.985962
1493694913342	3.813202	3.0204163	-9.029526
1493694913342	5.462799	11.846664	-6.0559235
1493694913342	9.080582	15.447571	1.0309753
1493694913342	6.3442993	11.724533	5.5510254
1493694913342	2.0626678	5.3035736	-2.1302032
1493694913342	2.6128235	3.0301666	-4.336319
1493694913342	3.3757477	4.351059	-0.8407898
1493694913342	3.3872375	6.158066	2.0269623
1493694913342	2.116562	8.698914	9.037811
1493694913342	-0.49240112	12.485336	14.727585
1493694913342	-0.8713379	14.84816	8.604599
1493694913342	-0.14463806	11.372833	-4.2821198
1493694913342	3.991333	9.274765	-12.15657
1493694913342	3.604599	9.056427	-1.2154236
1493694913342	2.2401123	8.480789	0.27438354
1493694913342	1.888504	7.3760223	3.0385742
1493694913342	2.1017761	6.863556	0.9861145
1493694913342	1.5027466	7.310089	-0.44873047
1493694913342	0.40093994	8.137314	-0.52659607
1493694913342	-0.011245728	8.895645	-0.33413696
1493694913342	-0.11430359	9.539505	-0.34288025
1493694913343	0.2419281	10.374832	-1.1235809
1493694913343	0.006790161	11.083527	-1.9181366
1493694913343	0.24716187	11.571045	-2.3653412
1493694913343	0.8086548	11.562454	-1.4524689
1493694913343	0.34765625	11.378433	-0.84916687
1493694913343	-0.5197296	10.951782	-0.3493805
1493694913343	1.2010498	11.049332	-0.91726685
1493694913343	2.365448	12.550461	0.012008667
1493694913343	2.6106567	16.466263	1.2089233
1493694913343	1.5880737	15.598633	0.8752289
1493694913343	1.2667236	11.747894	2.9188232
1493694913343	2.719345	9.328812	3.284668
1493694913343	4.4006653	9.697815	0.25006104
1493694913343	4.408249	10.355057	0.31802368
1493694913343	5.852417	12.235275	0.7223053
1493694913343	7.3919067	14.255829	-1.3430176
1493694913343	4.7404633	13.346313	-4.0039673
1493694913343	0.39463806	10.81163	-1.3933868
1493694913343	-2.2638092	9.736649	8.073715
1493694913343	1.1218414	9.606354	3.1849518
1493694913343	1.8539886	5.5699005	0.8568573
1493694913343	3.9913025	2.3427277	-1.0767517
1493694913343	3.79805	2.9543457	-0.45121765
1493694913343	3.1175385	3.3159027	1.1718903
1493694913343	3.0319824	3.1578827	0.7288513
1493694913343	2.7065277	2.6493378	-0.8826752
1493694913344	3.0865784	1.3314819	-3.203354
1493694913344	2.452057	1.2297516	-5.197647
1493694913344	2.2393494	3.431137	-6.2739563
1493694913344	1.3874664	8.730286	-11.503052
1493694913344	-0.09585571	16.80069	-15.272339
1493694913344	5.92099	19.339874	-4.5931854
1493694913344	5.8005066	15.691483	-4.009201
1493694913344	3.1529236	6.415344	-5.7432556
1493694913344	5.1401215	4.0234222	-7.9200897
1493694913344	6.9526367	9.14061	-7.6747284
1493694913344	7.9432983	11.772034	-7.5374146
1493694913344	7.9717712	9.247971	4.0203705
1493694913344	3.4870605	5.527664	2.6469269
1493694913344	1.7996979	3.79982	-2.5046997
1493694913344	2.7615814	4.6799316	-0.8804321
1493694913344	3.6571045	6.635193	2.370453
1493694913344	3.0398102	9.578125	8.572983
1493694913344	0.10890198	13.677658	13.160965
1493694913344	-0.8212433	16.026428	8.3967285
1493694913344	-1.265976	12.404266	-3.9991913
1493694913344	1.3932037	9.435333	-8.929993
1493694913344	3.5364685	9.662872	0.21083069
1493694913344	2.0948486	7.8863373	0.3771515
1493694913344	2.1428528	7.403122	3.4271393
1493694913344	2.320404	6.7203217	2.0148163
1493694913344	1.4729309	6.8183136	-0.25857544
1493694913344	0.4674225	7.765915	-1.1870728
1493694913344	0.127594	8.396576	-1.4653931
1493694913345	0.215271	9.083923	-0.7619629
1493694913345	0.73287964	9.736771	-0.7819061
1493694913345	0.6596985	10.136978	-0.92837524
1493694913345	0.7836304	11.219177	-0.6942749
1493694913345	1.8182831	12.096863	-1.4367981
1493694913345	1.5865326	11.773605	-1.8370514
1493694913345	0.109802246	11.848831	-0.08345032
1493694913345	-1.3498535	12.0655365	0.15505981
1493694913345	0.024963379	12.708542	-0.26345825
1493694913345	2.940384	13.870041	0.4454651
1493694913345	2.9679413	15.066635	0.42362976
1493694913345	1.633255	12.966721	1.340683
1493694913345	1.5871735	9.988403	4.1655884
1493694913345	2.713623	9.325928	3.2281494
1493694913345	3.5057068	9.50827	0.58291626
1493694913345	4.8401947	10.713501	-0.15904236
1493694913345	8.417511	13.445892	-2.0231323
1493694913345	7.8177795	13.404785	-5.658203
1493694913345	1.99617	11.322311	-2.6701508
1493694913345	-1.0606079	11.104172	3.506836
1493694913345	0.29519653	11.311935	2.1553345
1493694913345	-0.77615356	5.43042	2.232254
1493694913345	2.3494263	3.1365967	1.849762
1493694913345	3.4967194	2.697052	1.1765137
1493694913345	3.7641754	2.8431854	1.1553955
1493694913345	3.7638245	3.0622406	0.65045166
1493694913345	3.4918976	3.6885986	-1.0281677
1493694913346	3.5200043	2.6281586	-3.1867676
1493694913346	3.0120087	1.2788544	-5.1187744
1493694913346	3.5104523	2.1844635	-6.8563232
1493694913346	3.3256378	4.696228	-8.074341
1493694913346	1.6431885	11.220444	-11.933975
1493694913346	2.3453522	19.524582	-12.632782
1493694913346	6.823822	18.233383	-5.548538
1493694913346	3.7006989	9.253082	-2.818512
1493694913346	4.2929535	4.2466125	-8.245331
1493694913346	6.327484	10.263077	-5.4746857
1493694913346	6.9289856	12.867203	-4.3676453
1493694913346	6.0352173	6.2198944	2.216858
1493694913346	3.449997	3.0772247	1.2727509
1493694913346	1.2921448	2.6611328	-4.285446
1493694913346	3.968872	5.0527496	-0.65579224
1493694913346	5.2674713	7.4039917	3.606369
1493694913346	4.0992584	11.146408	11.12677
1493694913346	0.8620148	16.1958	16.146667
1493694913346	-1.5868378	16.670105	7.4091187
1493694913346	-2.717453	11.295364	-7.3621674
1493694913346	0.6678467	8.622452	-12.5104065
1493694913346	4.0566864	9.547287	0.13331604
1493694913346	1.6896515	7.4878235	1.5026398
1493694913346	2.2104797	6.917633	2.863678
1493694913346	1.986969	6.6261444	0.64964294
1493694913347	1.1187134	6.873932	-0.9758301
1493694913347	0.84791565	7.4479523	-0.61912537
1493694913347	1.6590881	8.057526	0.26533508
1493694913347	2.2028656	8.801468	0.4795227
1493694913347	2.531067	10.000092	0.016967773
1493694913347	1.7806244	11.143173	-1.1090698
1493694913347	0.79785156	12.174667	-2.0598755
1493694913347	0.62812805	12.286072	-2.0870209
1493694913347	-0.5863495	11.647079	0.7730255
1493694913347	-1.4007568	12.065063	0.59884644
1493694913347	-0.064315796	12.729874	-1.1263428
1493694913347	2.039444	13.6814575	-0.8791046
1493694913347	2.7099915	15.502655	0.5447235
1493694913347	1.5197449	13.414139	1.9376068
1493694913347	1.4185791	10.421967	2.890808
1493694913347	2.473114	9.310135	1.99646
1493694913347	3.3018951	9.929901	0.65774536
1493694913347	3.4013367	10.977249	0.5897827
1493694913347	5.491043	13.167191	0.012496948
1493694913347	7.437851	14.740707	-2.9350433
1493694913347	3.6916046	12.13649	-2.8684082
1493694913347	-1.0805817	9.540619	4.2221375
1493694913347	3.1177368	10.994308	2.128067
1493694913347	-1.6782074	7.311661	-0.17523193
1493694913347	1.0804291	3.604828	0.63435364
1493694913347	4.391144	3.318039	0.0569458
1493694913347	4.0505524	3.217331	1.324585
1493694913348	3.995758	3.0825348	-0.06614685
1493694913348	3.8036194	3.3043213	-0.65011597
1493694913348	3.9901123	2.3936157	-1.8467255
1493694913348	3.2332458	0.5199127	-3.8322906
1493694913348	2.888855	1.3023224	-5.6168976
1493694913348	2.7246094	4.2165527	-6.5214844
1493694913348	2.7526855	10.921448	-10.062866
1493694913348	0.25646973	19.235886	-9.810181
1493694913348	3.3421783	18.849503	-4.597824
1493694913348	2.5308533	11.629028	-8.550674
1493694913348	0.9122772	2.0777893	-8.671082
1493694913348	2.9354706	1.5563354	-9.93045
1493694913348	5.351532	7.446823	-7.2901154
1493694913348	10.591034	14.441437	1.5928497
1493694913348	9.182571	15.251831	7.7975006
1493694913348	1.351593	8.1610565	-3.4917145
1493694913348	3.270935	3.3079681	-2.0970306
1493694913348	3.1403046	4.3060303	-1.8506622
1493694913348	1.9383545	6.018265	2.251709
1493694913348	1.5045624	8.372833	9.436783
1493694913348	0.85606384	12.831055	13.051804
1493694913348	-0.15893555	15.025406	7.9418793
1493694913348	-0.02168274	12.063187	-3.609604
1493694913348	1.869339	9.449554	-6.84523
1493694913348	1.3339233	9.182571	1.1083832
1493694913349	1.4145355	8.611618	0.8191223
1493694913349	0.9892731	7.4580536	1.8396912
1493694913349	1.5552979	7.335724	-0.08842468
1493694913349	1.0702972	7.4710083	-0.62802124
1493694913349	0.8430939	7.7286987	-0.59814453
1493694913349	0.7194824	8.025024	-0.2967682
1493694913349	1.0393677	8.486008	-0.30389404
1493694913349	1.8931885	9.15126	-0.03668213
1493694913349	2.3575592	10.380096	0.3037262
1493694913349	2.408432	11.32843	-1.8882141
1493694913349	2.0227356	11.531891	-2.5481567
1493694913349	0.32710266	11.375427	0.5573273
1493694913349	-0.7459564	11.611099	1.200119
1493694913349	-0.1773529	12.2860565	-0.90997314
1493694913349	-0.14758301	13.436066	-0.52622986
1493694913349	0.78141785	16.323288	-0.51730347
1493694913349	1.6474152	15.302414	-1.7108917
1493694913349	2.5838623	11.629944	2.6849213
1493694913349	2.5887299	10.176559	3.7327118
1493694913349	2.8471527	9.342499	2.2302704
1493694913349	3.177414	9.210098	1.8584442
1493694913349	4.622879	11.323532	0.47843933
1493694913349	6.9304657	14.174118	-3.4547272
1493694913349	6.9050446	14.532333	-4.995682
1493694913349	0.18833923	11.10968	0.9326935
1493694913349	-2.5346222	9.109619	6.7991943
1493694913349	1.1209717	9.463516	-0.52542114
1493694913349	-0.22114563	4.2354584	1.4555969
1493694913350	3.916748	2.9455872	1.1493225
1493694913350	4.6526947	3.2317963	0.3053131
1493694913350	4.220825	3.404541	0.20960999
1493694913350	3.8702087	3.5624084	-0.9942322
1493694913350	3.6742249	2.5474548	-1.976944
1493694913350	3.6167603	1.0996246	-3.9109955
1493694913350	3.2374268	0.9445343	-5.4374237
1493694913350	3.2807312	2.4791107	-5.8143616
1493694913350	2.8137817	7.628189	-8.540207
1493694913350	-0.27856445	16.702469	-13.166977
1493694913350	3.057907	19.406906	-8.309006
1493694913350	5.4363403	15.768738	-7.4619293
1493694913350	0.62493896	2.8832397	-4.6516113
1493694913350	3.0003662	0.9052429	-8.747879
1493694913350	5.813736	8.171555	-7.5471344
1493694913350	8.634018	12.627274	-1.0897369
1493694913350	8.006577	12.402206	4.2785645
1493694913350	1.3097839	7.7394867	-0.7416229
1493694913350	2.9921112	4.948181	-1.7106323
1493694913350	2.8815765	5.4967804	-0.99598694
1493694913350	3.3032837	7.513199	2.9706116
1493694913350	3.3469696	10.2892	9.015305
1493694913350	0.5939789	12.460876	10.351456
1493694913350	-1.0175018	12.642227	7.135559
1493694913350	-0.29673767	10.45314	-2.7545319
1493694913350	2.284668	9.124725	-6.6309814
1493694913350	1.9818573	8.834305	0.90164185
1493694913351	1.9209442	8.601654	0.20759583
1493694913351	1.8927307	7.778	1.6882935
1493694913351	1.8251953	7.22377	-0.08729553
1493694913351	1.3725433	7.665512	-0.81082153
1493694913351	0.9520569	8.234848	-0.7050934
1493694913351	0.34046936	8.351746	0.10853577
1493694913351	0.39414978	8.486893	0.16069031
1493694913351	1.2684479	9.57045	0.45031738
1493694913351	1.1812897	10.99205	-0.076431274
1493694913351	1.2830963	11.998535	-2.4832916
1493694913351	2.0368805	11.895615	-3.6422577
1493694913351	1.4029083	11.07634	0.12136841
1493694913351	0.16847229	10.934113	1.5196991
1493694913351	-0.005706787	11.722977	-0.43388367
1493694913351	0.4271698	13.067856	-0.5638428
1493694913351	1.5960693	16.03035	1.362793
1493694913351	1.085495	15.354584	0.5595703
1493694913351	0.9490051	12.271011	1.7756958
1493694913351	2.010437	10.064392	3.488678
1493694913351	4.1456146	9.730438	1.329483
1493694913351	4.370514	10.30751	0.4627838
1493694913351	4.8604126	11.777969	-0.02355957
1493694913351	6.5931244	13.659073	-0.29997253
1493694913351	3.956955	12.742096	-2.19458
1493694913351	-0.5100403	9.945694	-1.1859283
1493694913351	-1.2040253	9.842789	4.819412
1493694913352	1.8348694	11.323776	0.9603882
1493694913352	-0.4921112	5.851776	1.8921661
1493694913352	3.7927399	3.877777	1.1781769
1493694913352	5.0942993	3.6268768	1.7175598
1493694913352	4.1772766	3.7409363	0.5887146
1493694913352	3.5482025	3.8966064	-0.8698578
1493694913352	3.4208832	3.2332153	-1.0216827
1493694913352	3.6558228	1.6505127	-2.9614563
1493694913352	3.3041992	0.45388794	-4.8736877
1493694913352	3.6055908	1.4663849	-5.9212494
1493694913352	3.0018616	4.6965485	-7.7276
1493694913352	1.5550232	12.012436	-9.910187
1493694913352	0.8902893	19.524582	-9.866943
1493694913352	4.835266	17.455307	-7.378952
1493694913352	2.2335052	7.247635	-6.4943085
1493694913352	2.13031	0.28689575	-7.8112793
1493694913352	5.479477	3.7751465	-8.384781
1493694913352	6.9118958	11.809006	-3.8909302
1493694913352	8.864883	15.438812	3.3068542
1493694913352	4.1835785	12.329422	3.3757172
1493694913352	2.0671387	5.0935516	-1.6239319
1493694913352	3.6596985	4.275055	-1.009903
1493694913352	3.8839417	6.1881866	0.36053467
1493694913352	2.994156	8.10527	5.2618256
1493694913352	1.3843231	10.238602	10.849472
1493694913352	0.5602875	13.061447	10.018723
1493694913352	-0.77983093	13.4552765	5.4729767
1493694913353	0.80285645	11.177994	-2.9960327
1493694913353	2.7575073	9.4943695	-6.3969727
1493694913353	2.0068207	8.590179	-0.8191223
1493694913353	1.0642548	7.5719604	1.7826538
1493694913353	1.4757996	6.795456	2.7584076
1493694913353	1.5231781	6.7864075	0.5828705
1493694913353	0.9727936	7.5252075	-0.9295502
1493694913353	0.71847534	8.00296	-1.384018
1493694913353	0.9184265	8.351578	-1.3206024
1493694913353	1.0521088	9.121292	-1.0207367
1493694913353	0.4582672	9.940216	-0.3144226
1493694913353	0.22633362	11.3403015	-0.23277283
1493694913353	1.7391205	11.861496	-1.516571
1493694913353	1.3523254	11.044083	-0.9718628
1493694913353	0.40394592	12.047104	0.20707703
1493694913353	-1.043747	12.137512	-0.9814148
1493694913353	1.4585571	12.801086	-1.1094818
1493694913353	3.9164581	14.351105	0.57533264
1493694913353	2.8118744	15.013962	-0.16911316
1493694913353	0.8413391	12.62941	1.0178375
1493694913353	1.3627167	10.836334	3.7382202
1493694913353	3.443756	10.205734	2.1595917
1493694913353	4.4025726	10.343674	1.0833588
1493694913353	4.913269	10.767166	0.33087158
1493694913353	8.086899	12.444962	-0.86872864
1493694913353	6.042145	12.206894	-5.1944733
1493694913353	0.9552765	10.1163025	-3.2832184
1493694913354	0.9433594	11.607513	1.496109
1493694913354	0.119277954	11.366699	1.4844818
1493694913354	-1.2021332	6.912445	4.191513
1493694913354	3.106079	4.943985	2.0061188
1493694913354	4.4071045	3.4512634	2.2509308
1493694913354	5.091461	3.06279	0.3645935
1493694913354	4.6884155	3.306427	-0.019561768
1493694913354	4.4608307	3.9229584	-1.5752563
1493694913354	3.4815216	2.7572937	-3.2188568
1493694913354	2.7300568	0.9651947	-4.3326416
1493694913354	2.582138	0.6744995	-5.339279
1493694913354	2.7826233	2.7511444	-5.9389496
1493694913354	1.892456	8.834915	-9.336517
1493694913354	0.07258606	19.419144	-11.961746
1493694913354	4.178787	18.859085	-8.56131
1493694913354	5.5699615	12.972321	-7.906372
1493694913354	1.3403625	0.3221588	-6.848343
1493694913354	4.8268433	0.5541229	-6.6617737
1493694913354	7.8102264	9.095917	-2.2649994
1493694913354	9.162262	13.837921	1.2410583
1493694913354	3.98349	12.958008	0.3453827
1493694913354	0.89019775	7.072937	-3.6598816
1493694913354	4.090271	4.226654	0.74523926
1493694913354	3.7598267	5.634094	0.71136475
1493694913354	4.9894257	7.7899323	2.4510956
1493694913355	3.3283844	9.406326	8.146088
1493694913355	0.030456543	11.220215	13.5308075
1493694913355	-0.9360504	12.773788	9.981674
1493694913355	-0.90086365	11.531235	4.796356
1493694913355	1.6385956	10.9435425	-4.309952
1493694913355	2.8931732	10.449097	-7.728012
1493694913355	2.2369385	9.430084	-1.2045746
1493694913355	1.1241302	8.350342	1.8063202
1493694913355	1.1877899	7.2824707	2.3343506
1493694913355	1.019928	6.986908	0.40438843
1493694913355	0.5632782	7.5025024	-0.8412781
1493694913355	-0.18344116	7.6112366	-1.1426544
1493694913355	0.2557373	8.031082	-0.84339905
1493694913355	0.7881317	8.986282	-1.0414886
1493694913355	0.47306824	9.70607	0.015335083
1493694913355	-0.058883667	10.541107	-0.22987366
1493694913355	1.4876709	11.582886	-0.74812317
1493694913355	1.7967529	11.556641	-1.5009766
1493694913355	1.4135742	12.000076	-0.50871277
1493694913355	0.43702698	11.714737	0.30378723
1493694913355	1.697113	13.157928	0.9672394
1493694913355	2.3594818	15.093018	1.173584
1493694913355	0.753067	15.719482	0.53504944
1493694913355	1.1895142	13.0486145	1.893631
1493694913355	2.3670807	9.749832	3.6572266
1493694913356	4.1921387	9.016739	2.0303802
1493694913356	4.157196	9.425476	0.49998474
1493694913356	4.9317017	10.767792	0.04937744
1493694913356	7.2375946	13.649078	-1.0924072
1493694913356	5.1835785	13.343994	-5.531143
1493694913356	1.5939178	11.292557	-2.9977112
1493694913356	-2.209671	11.391373	6.2556
1493694913356	1.0850525	12.114258	2.1907501
1493694913356	1.4452362	6.9053955	1.0974426
1493694913356	3.286209	3.0558624	1.9882202
1493694913356	4.801056	3.6466827	0.6959839
1493694913356	3.958664	3.3243713	1.499939
1493694913356	3.698944	3.3408203	0.33926392
1493694913356	2.9627686	3.3928223	-0.583786
1493694913356	2.9269714	2.0737915	-2.0006714
1493694913356	2.9918213	0.3842163	-4.323639
1493694913356	2.5779572	0.8406677	-5.4248505
1493694913356	2.4550781	4.450302	-6.191742
1493694913356	2.3275757	12.056351	-10.459137
1493694913356	2.4445038	19.524582	-12.414215
1493694913356	7.739853	17.816437	-7.6076508
1493694913356	4.7640686	9.780014	-6.0788574
1493694913356	2.4234772	3.9527283	-3.9933167
1493694913356	6.2793274	9.535721	-6.420624
1493694913356	7.4772186	13.141296	-4.940674
1493694913356	5.273346	8.694946	-1.2664642
1493694913356	3.4845276	4.090454	-0.7702484
1493694913357	2.3197021	3.3500214	-0.39698792
1493694913357	2.1047058	4.660431	-0.6041107
1493694913357	3.8360596	6.5957336	2.0192413
1493694913357	4.1309967	9.048508	6.791519
1493694913357	1.7023621	12.606995	12.356522
1493694913357	0.3257141	16.19217	10.538147
1493694913357	-3.4135284	13.970322	-4.867981
1493694913357	-2.395584	10.308853	-8.216843
1493694913357	3.1309967	9.293335	-0.86987305
1493694913357	3.7595367	8.093109	-1.0630646
1493694913357	3.0270538	7.2624207	1.9840393
1493694913357	3.046753	6.700485	2.8875732
1493694913357	2.5673218	6.2924805	1.3013611
1493694913357	1.3954926	6.5487976	-0.6179352
1493694913357	0.6728821	7.734314	-0.9515228
1493694913357	-0.13642883	8.676834	0.026489258
1493694913357	-0.035690308	9.550903	-0.5120239
1493694913357	0.45155334	9.852631	-1.3438416
1493694913357	-0.12371826	10.105072	-0.49061584
1493694913357	0.08456421	11.234573	-0.7035675
1493694913357	1.6708069	11.763275	-2.065094
1493694913357	0.9406128	11.366501	-0.75354004
1493694913357	0.24186707	11.529617	1.4506989
1493694913357	-0.9991913	11.01149	0.22441101
1493694913358	1.1377106	11.877274	-1.7043304
1493694913358	4.655258	14.649292	-1.0634613
1493694913358	2.436386	15.622208	0.982254
1493694913358	-0.6209259	13.327148	1.1580048
1493694913358	-0.30485535	10.58461	3.6650848
1493694913358	2.2108307	9.350372	3.7405396
1493694913358	4.606735	9.546509	0.5568085
1493694913358	4.3599396	10.569229	0.74494934
1493694913358	6.2981873	12.355499	-0.13729858
1493694913358	8.2660675	13.968552	-3.7555847
1493694913358	2.607956	11.923126	-3.9932404
1493694913358	-0.9530182	9.847519	2.0421143
1493694913358	-3.2922363	10.39299	4.5415955
1493694913358	0.07551575	10.656631	0.3204193
1493694913358	1.0593872	5.2389374	1.8485107
1493694913358	4.222397	3.478836	1.616806
1493694913358	4.908661	3.2789307	1.3007202
1493694913358	4.420868	3.456726	9.765625E-4
1493694913358	3.867035	3.665039	-0.78770447
1493694913358	3.9129791	3.1172028	-1.5243835
1493694913358	4.045288	1.6321411	-2.6777802
1493694913358	3.368225	0.7046051	-3.9767456
1493694913358	3.570282	1.9868774	-5.688858
1493694913358	3.5215302	5.800949	-7.0626373
1493694913358	3.1220093	13.265411	-9.759705
1493694913358	1.6163635	19.524582	-9.3341675
1493694913359	3.0751648	17.121109	-5.8397675
1493694913359	1.5847168	8.652756	-8.640808
1493694913359	0.82481384	2.1165924	-9.83165
1493694913359	5.2842255	8.015839	-6.687668
1493694913359	7.7597046	13.550552	-1.2103882
1493694913359	6.516815	10.129517	3.7449036
1493694913359	2.6861115	4.4245453	0.49855042
1493694913359	2.0899353	3.7390442	-4.0034943
1493694913359	4.0140076	5.3489532	-2.3154602
1493694913359	4.7214355	7.3402405	2.098526
1493694913359	2.695633	8.927155	8.438675
1493694913359	0.54959106	11.59819	13.0312195
1493694913359	-0.33137512	14.499435	9.3736725
1493694913359	-2.7514648	13.156433	-7.7893066
1493694913359	0.2336731	11.198914	-8.904022
1493694913359	3.598709	10.078247	-1.1685181
1493694913359	3.6598969	8.647079	-0.48025513
1493694913359	3.2037354	7.283676	1.7601166
1493694913359	2.8729858	6.1830444	1.3334656
1493694913359	1.5529785	6.245392	0.9799042
1493694913359	0.5463257	7.2565765	0.27670288
1493694913359	0.27253723	8.265411	-0.53974915
1493694913359	0.6345825	8.9711	-0.67059326
1493694913359	1.1553955	9.517578	-0.9592438
1493694913359	0.540802	10.026901	-1.5151978
1493694913360	-0.38069153	11.413986	-0.6514435
1493694913360	0.29083252	12.849869	-1.2630615
1493694913360	1.6176453	11.795181	-1.8325806
1493694913360	0.80152893	10.632874	-0.1566925
1493694913360	0.4603424	11.118622	0.13859558
1493694913360	-0.05621338	11.321808	-1.8548737
1493694913360	1.1782379	13.059845	0.6555939
1493694913360	3.3282776	15.625504	1.2991791
1493694913360	1.7869568	14.354187	0.4617157
1493694913360	0.9975128	11.23526	1.8087311
1493694913360	2.114563	9.585541	3.315033
1493694913361	3.9521332	9.413971	1.2645569
1493694913361	4.3571777	10.044571	0.33789063
1493694913361	5.415756	11.556503	-0.112854004
1493694913361	9.183777	14.310013	-1.6240692
1493694913361	3.0549622	12.25795	-4.3995514
1493694913361	-0.12562561	11.03157	-1.4182129
1493694913361	-2.8101044	11.14328	5.8453064
1493694913361	-0.6030884	12.371918	0.7647705
1493694913361	1.4181976	5.9582825	2.5092316
1493694913361	4.047867	2.468689	1.2076111
1493694913361	4.978775	2.64505	1.2316895
1493694913361	4.558258	3.1994019	0.35383606
1493694913361	4.232544	3.73703	-0.76008606
1493694913361	4.1091156	3.2712402	-1.564621
1493694913361	4.1882477	1.6715393	-2.730667
1493694913361	4.0686646	0.62835693	-4.432602
1493694913361	3.6445313	1.5633392	-5.3243256
1493694913361	3.4268036	5.6659393	-6.2757416
1493694913361	2.1674347	13.440048	-9.35289
1493694913362	0.7420654	19.524582	-10.743134
1493694913362	4.2984924	17.198364	-6.171295
1493694913362	3.0492554	8.532074	-7.5286713
1493694913362	1.8411102	0.7925415	-8.724808
1493694913362	4.5298767	4.1445313	-8.521744
1493694913362	7.500458	13.0568695	-3.610672
1493694913362	8.396942	14.281876	2.913147
1493694913362	4.180954	8.145706	3.3772278
1493694913362	1.6101227	4.6792145	-3.7010345
1493694913362	2.6325226	4.6532288	-2.790802
1493694913362	3.7086487	7.0631104	1.0402527
1493694913362	1.9519806	8.955338	8.228836
1493694913362	0.26774597	12.086243	12.986069
1493694913362	-0.5298462	14.766205	9.816498
1493694913362	-1.436264	12.687073	1.9256744
1493694913362	1.0407104	9.679123	-3.5182648
1493694913362	2.7662659	8.957565	-2.718155
1493694913362	2.2118835	8.273819	-0.56895447
1493694913362	2.1190643	7.3211365	2.1766205
1493694913362	2.574051	6.6072083	1.4737091
1493694913362	2.0982513	6.6944427	-0.33920288
1493694913362	1.2146149	7.4425507	-1.5128326
1493694913362	0.7247467	8.257996	-0.9552307
1493694913362	0.74098206	8.970642	-0.17668152
1493694913362	1.0876007	9.648071	-0.30802917
1493694913362	0.6201172	10.017395	-0.15866089
1493694913363	-0.1308899	10.817642	-0.42121887
1493694913363	0.955307	12.741394	-1.3562164
1493694913363	2.0002136	11.774338	-3.3803558
1493694913363	0.75720215	11.10498	-0.39302063
1493694913363	-0.630249	11.986969	1.8118591
1493694913363	-0.66978455	11.667938	-0.6604614
1493694913363	3.0449371	13.013214	0.11268616
1493694913363	4.291092	14.969543	0.2938385
1493694913363	0.64907837	13.730759	-1.0177307
1493694913363	-0.5772705	11.239639	3.466034
1493694913363	0.60821533	9.518692	5.6966248
1493694913363	2.4413757	9.887543	2.1071167
1493694913363	3.7100372	10.322952	0.15090942
1493694913363	6.158066	12.641983	-0.7441101
1493694913363	9.3233795	14.486893	-4.339279
1493694913363	3.9251251	11.663452	-4.736969
1493694913363	0.2876892	9.623413	0.03742981
1493694913363	2.936203	10.524216	-0.69866943
1493694913363	-0.64375305	9.761337	3.4898071
1493694913363	-0.0234375	5.2378387	2.001068
1493694913363	3.9190674	4.1214294	0.88072205
1493694913363	4.534149	3.882965	1.7931366
1493694913363	4.575012	3.7219849	0.84251404
1493694913363	4.2528687	3.567398	-0.5219574
1493694913363	4.345581	3.006775	-1.8348236
1493694913364	4.274704	1.6219635	-3.4931183
1493694913364	3.35466	1.0332947	-4.447754
1493694913364	3.3602142	2.8259735	-5.3748474
1493694913364	3.062683	6.9442596	-6.6788483
1493694913364	1.7773438	13.994598	-9.256271
1493694913364	1.7172546	19.524582	-8.467529
1493694913364	4.3711395	16.384155	-5.526062
1493694913364	2.359665	6.954315	-8.919037
1493694913364	1.4602356	-0.43411255	-9.113892
1493694913364	3.97583	0.67588806	-6.9869385
1493694913364	5.8133698	7.0351563	-4.767044
1493694913364	9.169098	14.12915	2.4827576
1493694913364	5.3694305	16.414398	1.6985931
1493694913364	1.4116516	10.120514	-2.5493011
1493694913364	3.7883606	4.6465454	0.6516571
1493694913364	3.2803497	4.755005	0.19795227
1493694913364	2.2925262	6.314865	1.5157013
1493694913364	1.066925	8.882156	7.6546173
1493694913364	0.8061676	13.584549	11.749573
1493694913364	0.36038208	15.704376	6.2958984
1493694913364	0.041168213	13.184357	-5.0296936
1493694913364	1.696579	9.862244	-4.5361023
1493694913364	2.3291626	8.274429	-2.4795074
1493694913364	2.5487518	7.733124	0.81217957
