accelerometer_timestamp	accelerometer_x_data	accelerometer_y_data	accelerometer_z_data
1493781779263	-5.592804	2.9311523	9.015289
1493781779283	-5.8330536	3.131485	8.528442
1493781779302	-5.5522766	3.19635	9.311249
1493781779322	-5.1462708	2.9132233	9.76741
1493781779341	-4.690918	2.7809906	9.67807
1493781779362	-4.5677643	3.5433502	9.643005
1493781779381	-5.1766663	3.8692322	9.0681
1493781779401	-5.321991	3.9478302	8.802002
1493781779421	-4.8847504	3.9424744	9.551529
1493781779440	-4.560974	3.8341217	9.710312
1493781779460	-4.4355316	3.8365479	9.451447
1493781779480	-4.263397	3.9128113	9.181335
1493781779500	-4.0249786	3.723816	9.475037
1493781779520	-3.921585	3.4962769	9.706299
1493781779539	-3.8899994	3.5572052	9.352524
1493781779560	-3.759781	3.1267242	8.501083
1493781779579	-1.8230591	2.6031952	9.105057
1493781779599	-1.4589233	1.971878	9.675476
1493781779619	-2.6611328	2.2932587	9.07196
1493781779638	-2.1878204	3.1654358	8.081497
1493781779658	-2.3849945	3.0580597	7.837921
1493781779678	-2.2000275	2.5281982	8.486572
1493781779698	-2.762085	1.8338318	8.622742
1493781779717	-2.5077362	2.0818024	7.96933
1493781779737	-1.9395752	2.1324158	8.448471
1493781779757	-1.6112823	2.5406494	8.978287
1493781779777	-2.1808472	2.1133118	7.7897034
1493781779797	-2.074646	1.7669373	7.157547
1493781779817	-1.2589722	1.6230774	6.8919525
1493781779836	-2.177063	1.6916504	6.9116364
1493781779856	-1.6674652	2.147644	5.7971497
1493781779876	-1.2936401	2.2972717	7.3608246
1493781779896	-1.2588196	2.7490997	8.555664
1493781779915	-1.0261688	2.3512878	8.3129425
1493781779935	-0.29847717	1.8190765	8.578949
1493781779955	0.7087555	1.8972168	8.602539
1493781779975	0.5743103	1.3562317	7.316025
1493781780035	0.117630005	0.4437561	5.29039
1493781780035	0.77900696	-1.2129669	5.118469
1493781780035	3.8742523	-2.7767487	8.38942
1493781780054	4.3700867	-4.040497	6.582489
1493781780094	-1.4746094	-0.047851563	3.422882
1493781780113	2.7778625	1.2634888	8.060074
1493781780133	2.7425385	-5.2823944	4.961487
1493781780153	2.0182495	-1.8694153	9.039383
1493781780172	2.4303284	0.21879578	9.204819
1493781780193	1.7029877	-2.078354	6.1602936
1493781780212	3.6226196	-1.0769653	7.780884
1493781780232	5.0697784	-0.72958374	7.3723907
1493781780252	5.074539	-0.99012756	12.334824
1493781780272	4.282028	-0.8451843	8.661331
1493781780291	1.4706116	-6.301605	8.463272
1493781780311	2.315216	-6.3411865	15.00943
1493781780331	7.137146	-3.3438873	1.8065186
1493781780351	8.906738	-3.2309113	2.5136719
1493781780371	6.056549	-4.633377	6.1136017
1493781780390	5.0233	-7.4238434	5.359894
1493781780410	4.5986786	-9.012238	6.767807
1493781780430	7.7825775	-9.312683	10.172104
1493781780450	13.954514	-6.7492065	12.943558
1493781780470	19.373474	-3.1981506	15.661804
1493781780489	19.058105	-2.4571533	15.348282
1493781780509	16.762497	-4.233078	12.799637
1493781780529	13.500015	-4.9276886	9.216843
1493781780548	14.117477	-2.7807007	2.8676453
1493781780568	14.698761	0.56918335	-3.5932617
1493781780588	9.6627655	-2.7831268	-3.166626
1493781780608	6.776535	-6.0382843	-1.13591
1493781780627	7.9765625	-3.8495636	-2.5826416
1493781780647	6.0236816	-3.0132751	-4.6884155
1493781780667	7.0891876	-2.741516	-2.0423584
1493781780687	11.254456	-4.5988007	0.22210693
1493781780707	9.40271	-5.6127625	4.352707
1493781780727	6.604065	-5.2296906	2.8036957
1493781780746	8.034561	-3.2563324	1.6969299
1493781780766	9.110718	-2.0703583	1.1454163
1493781780786	6.4880524	-4.4040527	-1.3589783
1493781780806	1.2527466	-7.629822	-1.06073
1493781780826	0.55189514	-7.621216	-1.3318939
1493781780845	2.5124664	-7.344284	-1.7401733
1493781780865	2.1334991	-8.284485	-5.835327
1493781780885	4.2379913	-10.183823	-0.4257202
1493781780905	8.842621	-3.6479187	-0.95362854
1493781780926	5.9241333	-6.7980957	-3.6018524
1493781780945	7.3242188	-6.6414337	0.903183
1493781780964	8.921478	-6.339813	-3.839981
1493781780984	4.4522705	-7.3876343	-0.885376
1493781781004	4.0832214	-8.526779	-0.67440796
1493781781023	7.273941	-9.052597	0.19419861
1493781781043	3.8323517	-18.058182	0.4162445
1493781781063	7.3439636	-19.474823	-3.661728
1493781781083	5.055084	-11.061111	-1.0217743
1493781781103	1.0167084	-8.110428	-1.0204468
1493781781122	1.2070313	-8.447327	-2.146164
1493781781142	5.3943024	-8.404968	-2.7567444
1493781781162	0.9601593	-9.998245	1.0483398
1493781781182	3.2382965	-5.3884735	-1.5780182
1493781781221	2.4280548	-8.329224	0.22180176
1493781781241	1.8981934	-9.668411	-1.9657288
1493781781261	3.186264	-5.8686523	-1.8781891
1493781781281	1.3037415	-4.910797	-1.7329407
1493781781301	0.71743774	1.252533	-3.0418549
1493781781320	-0.10647583	0.5539093	-2.307785
1493781781340	1.2011261	-15.4206085	-4.264862
1493781781360	8.2968445	-6.7690735	-4.186981
1493781781380	1.8265076	-16.874237	-4.4081726
1493781781400	4.55101	-5.8341827	-3.1690369
1493781781419	3.9949646	0.5125427	-3.7625122
1493781781439	-2.4097748	-5.720978	-3.09198
1493781781460	-8.561859	-16.190048	0.31529236
1493781781479	5.929413	-6.74498	-4.1963043
1493781781498	0.6817322	-10.808044	-4.78981
1493781781518	1.2680206	-4.394562	-2.1191711
1493781781538	-1.1109619	-8.104233	0.05696106
1493781781558	-1.9037781	-11.809845	-0.17611694
1493781781578	-4.541519	-1.8869781	-0.93870544
1493781781597	-7.4633484	5.861908	1.2235413
1493781781617	4.737015	-9.3559265	6.146759
1493781781637	4.1845093	-16.978745	2.5207825
1493781781657	-5.214203	-12.367157	-0.52137756
1493781781677	-8.9691925	-10.442352	-1.5587463
1493781781696	-5.763336	-9.839264	-2.2472534
1493781781716	-2.4715424	-10.901382	0.8018646
1493781781736	-1.0804443	-10.627853	4.5592804
1493781781756	-0.23454285	-10.633362	5.469757
1493781781775	0.19674683	-10.1754	2.54805
1493781781795	-0.21492004	-8.904572	1.4395599
1493781781815	-0.8282318	-7.8545685	0.79063416
1493781781835	-0.011306763	-8.726501	-0.25946045
1493781781855	-0.108184814	-10.122101	0.14329529
1493781781874	-1.9021759	-9.947266	0.669281
1493781781894	-2.8287659	-9.337753	1.0651398
1493781781914	-3.0106506	-8.943298	1.6356506
1493781781934	-3.173355	-8.931961	2.1099854
1493781781954	-3.110382	-9.053726	2.1738892
1493781781973	-3.0935364	-9.376221	2.2126465
1493781781993	-2.4443207	-10.068039	2.4784393
1493781782013	-1.7108917	-10.686035	2.3274384
1493781782033	-0.9092102	-10.814728	1.9443665
1493781782053	-0.19581604	-10.077438	1.2137146
1493781782072	0.32322693	-9.90657	0.8722229
1493781782092	0.33566284	-10.045624	0.30096436
1493781782112	0.25752258	-10.048187	0.7028198
1493781782132	-0.43460083	-10.388062	1.2210846
1493781782151	-0.77763367	-10.915314	1.2806854
1493781782171	-0.45698547	-11.213989	1.3896179
1493781782191	-0.024734497	-11.510452	0.3126831
1493781782211	-0.19648743	-11.479523	-0.758728
1493781782231	-0.8457031	-11.208008	-0.87857056
1493781782251	-1.2308807	-11.368195	-0.8577728
1493781782270	-0.07626343	-11.948135	-0.51168823
1493781782290	0.045440674	-13.698029	-0.11541748
1493781782310	-0.09843445	-14.159119	-1.2536163
1493781782349	-1.4427032	-12.994186	-2.888214
1493781782369	-1.8128357	-11.21608	-2.2424774
1493781782389	-1.8182831	-9.815964	3.141861
1493781782409	-3.2755737	-11.342972	4.3734283
1493781782429	-5.7088165	-12.810852	4.8616333
1493781787296	-5.024948	-13.965958	0.9733124
1493781787296	-1.4059296	-13.575928	-1.0457916
1493781787296	2.645584	-12.372559	-1.9920349
1493781787297	1.0207977	-11.562668	-0.5058441
1493781787297	0.7848511	-8.846527	0.87368774
1493781787297	-1.1452026	-7.4738464	1.4645996
1493781787297	-1.9321136	-6.6146393	1.2289581
1493781787297	-1.9647522	-6.471695	1.4762878
1493781787297	-1.9192657	-6.689621	1.3040161
1493781787297	-1.715683	-6.562332	1.5519409
1493781787297	-2.3565521	-5.3130035	2.1013184
1493781787297	-2.86026	-3.6773682	2.4492188
1493781787297	-2.8607788	-2.750702	2.3869019
1493781787297	-2.5959015	-2.80188	1.3633423
1493781787297	-2.404251	-3.8162384	-0.6819
1493781787297	-1.3372498	-6.677826	-4.2506104
1493781787297	-0.645874	-11.574112	-9.176041
1493781787297	0.22683716	-16.998917	-15.151657
1493781787297	2.5571747	-19.474823	-15.608597
1493781787297	2.8719177	-15.113571	-7.2104034
1493781787297	0.65911865	-5.8332825	-3.4157562
1493781787297	-4.2916107	-5.181946	-2.3510895
1493781787297	-8.041504	-12.445404	2.3825073
1493781787297	-4.2043304	-15.643951	4.6622314
1493781787297	1.9717102	-12.186066	2.262207
1493781787298	-1.0627289	-5.2283936	5.824875
1493781787298	-7.9545593	-2.9801025	8.407455
1493781787298	-5.350189	-8.5811615	6.781891
1493781787298	0.5123291	-13.505692	4.800659
1493781787298	1.9116058	-13.551315	3.359665
1493781787298	-0.037353516	-11.730957	1.833435
1493781787298	-0.9072113	-10.355225	1.3683167
1493781787298	-1.9697571	-9.528198	0.38337708
1493781787298	-2.22258	-9.0989685	0.2902069
1493781787298	-1.0835266	-8.784561	0.41464233
1493781787298	0.021224976	-8.238113	0.5539856
1493781787299	0.34487915	-8.065979	0.4507141
1493781787299	0.123413086	-8.633301	0.24125671
1493781787299	-0.443161	-9.154861	0.37428284
1493781787299	-0.7003174	-9.11058	1.1143036
1493781787299	-0.60427856	-9.285049	1.1009674
1493781787300	-0.35679626	-9.65831	0.6827698
1493781787300	-0.05470276	-10.052826	-0.80592346
1493781787300	0.32684326	-10.461487	-1.6217041
1493781787300	-0.19229126	-10.861008	-0.79644775
1493781787300	0.2830658	-11.275009	-0.7116852
1493781787300	1.4057007	-12.037857	-0.4149933
1493781787300	0.94680786	-12.456131	-1.5802307
1493781787300	0.88279724	-13.32106	-2.717041
1493781787300	-0.2923584	-14.975281	-1.5238953
1493781787300	-1.00354	-15.762695	-3.2273407
1493781787300	-1.2440948	-14.365128	-2.5605774
1493781787300	-3.2639465	-12.269562	2.6264648
1493781787300	-5.5204773	-12.226303	5.2341614
1493781787300	-5.096222	-13.748199	4.6664276
1493781787300	-3.1772156	-14.527145	-0.010940552
1493781787300	-0.42193604	-14.864304	-3.332138
1493781787300	2.4954834	-13.960632	-2.8738708
1493781787300	0.302063	-12.324005	1.855957
1493781787300	-1.103653	-8.826462	3.0865326
1493781787300	-2.4544525	-6.7065277	2.7310638
1493781787300	-1.6495819	-6.1756287	2.6230774
1493781787300	-2.1705475	-4.9263153	2.740036
1493781787300	-3.0324554	-4.146866	1.9788666
1493781787300	-3.1032104	-3.8392792	2.120285
1493781787300	-3.084549	-2.8982391	2.9638977
1493781787300	-2.8471375	-2.142929	3.3327942
1493781787300	-2.3307953	-2.0463562	2.7388458
1493781787301	-1.9346924	-2.9515076	0.78404236
1493781787301	-0.87994385	-5.955368	-4.4775085
1493781787301	0.024887085	-12.646393	-13.25354
1493781787301	-0.25369263	-19.474823	-17.65358
1493781787301	-1.8629761	-18.831268	-13.6635895
1493781787301	-0.4867096	-13.911621	-5.222229
1493781787301	-2.0542297	-5.276169	-3.3993225
1493781787301	-6.7296906	-6.838806	-5.5704956
1493781787301	-6.8917847	-14.527496	-3.7389374
1493781787301	-1.0565186	-13.7256775	3.7980347
1493781787301	1.0510406	-7.2243805	8.265366
1493781787301	-1.5670471	-3.2707977	8.185944
1493781787301	-2.9096375	-6.9846344	4.435196
1493781787301	0.17327881	-12.326767	6.0302887
1493781787301	1.9789581	-14.258041	2.9592285
1493781787301	1.6834259	-12.089066	2.3065186
1493781787301	0.08177185	-10.200729	2.2538605
1493781787301	-1.7516174	-9.253494	1.6901398
1493781787301	-2.8745422	-8.913406	0.14819336
1493781787301	-2.7700806	-9.415085	-0.37020874
1493781787301	-1.7994995	-9.269562	0.14149475
1493781787301	-0.70401	-8.662399	0.19355774
1493781787301	-0.4008026	-8.102249	0.1884613
1493781787301	-0.31767273	-8.352142	0.14756775
1493781787301	-0.029129028	-9.051636	0.26948547
1493781787301	-0.19345093	-9.572449	0.7852478
1493781787301	-0.50268555	-9.748169	0.66734314
1493781787302	-0.4787445	-9.692261	0.083465576
1493781787302	-0.31163025	-9.917313	-0.4839325
1493781787302	0.14868164	-10.363129	-1.0423584
1493781787302	0.51982117	-11.112473	-0.8457489
1493781787302	-0.6209259	-11.071732	-0.48303223
1493781787302	-0.2803192	-10.985992	-0.9640808
1493781787302	1.0248108	-11.299362	-0.7682648
1493781787302	1.537384	-11.731583	-1.2614136
1493781787302	1.8556213	-12.598526	-2.2969666
1493781787302	2.998886	-13.661911	-2.231781
1493781787302	1.9701538	-14.635376	-2.4332123
1493781787302	1.7279053	-13.6032715	-2.5424347
1493781787302	-0.7137604	-12.846283	2.156952
1493781787302	-3.823349	-11.204025	3.4836273
1493781787302	-6.648102	-13.039703	4.679306
1493781787302	-6.626358	-14.635254	4.0942993
1493781787302	-6.084717	-15.791687	2.6932678
1493781787302	-0.43771362	-14.000412	-0.89533997
1493781787302	3.0175476	-13.165024	-1.5253143
1493781787303	1.3070221	-10.817871	0.308136
1493781787303	-1.3927612	-8.749069	2.2596588
1493781787303	-2.677948	-7.013489	2.3424225
1493781787303	-2.074356	-5.703705	2.110962
1493781787303	-1.6988678	-5.092407	1.933609
1493781787303	-2.7397919	-5.121231	1.4232941
1493781787303	-4.3171234	-5.2554626	2.0820923
1493781787303	-5.0677185	-4.384033	3.1590576
1493781787303	-3.8731384	-3.5763245	3.1077423
1493781787303	-2.0054016	-3.7140198	2.4844208
1493781787303	-1.0265656	-4.8151245	1.1394348
1493781787303	-0.6943512	-7.835083	-2.441452
1493781787303	-0.98757935	-12.717804	-9.018814
1493781787303	0.38771057	-16.692902	-14.989243
1493781787303	2.515335	-16.05957	-11.034393
1493781787303	1.0962219	-11.891617	-4.6770325
1493781787303	-0.5338898	-8.067734	-2.4114075
1493781787303	-2.881958	-7.360199	-4.0509186
1493781787303	-5.68721	-13.393051	-6.9238434
1493781787303	-3.557724	-19.474823	-2.6251068
1493781787304	0.98469543	-14.788452	4.5529327
1493781787304	-2.027069	-4.70549	8.166794
1493781787304	-11.053116	-0.47184753	6.332535
1493781787304	-9.821838	-5.4949493	3.7664795
1493781787304	-0.70014954	-12.109238	6.883911
1493781787304	2.1294403	-14.052567	6.939804
1493781787304	0.8713684	-13.318008	3.5045013
1493781787304	-0.4627838	-11.811203	0.3730011
1493781787304	-1.1964569	-10.5429535	0.9264221
1493781787304	-1.3773651	-10.198059	2.22464
1493781787304	-0.78305054	-10.331848	1.5824127
1493781787305	0.28512573	-9.80751	1.900589
1493781787305	0.807312	-9.513748	1.8266754
1493781787305	-0.1051178	-9.463089	1.0876465
1493781787305	-1.8350525	-9.035248	0.06985474
1493781787305	-1.1203613	-8.461792	1.1500092
1493781787305	0.68159485	-8.633484	0.5621033
1493781787305	1.5925293	-8.484009	2.000351
1493781787305	0.74627686	-8.200989	2.5838776
1493781787305	-1.849884	-9.458328	2.527298
1493781787305	-2.4843445	-10.289764	2.41008
1493781787305	-1.693161	-8.829102	2.381134
1493781787305	1.7206573	-7.4618683	3.584549
1493781787305	3.3968506	-7.525757	3.2497559
1493781787305	1.4383392	-9.0420685	3.0749817
1493781787305	-2.3663177	-12.702164	1.0005493
1493781787305	-6.57045	-15.571304	0.74601746
1493781787305	-8.599686	-14.004257	1.0232086
1493781787305	-9.304413	-10.135941	1.2106476
1493781787305	-10.128708	-8.476608	1.8870544
1493781787305	-7.9456177	-8.133362	2.0523987
1493781787305	-5.2274933	-9.022934	1.7942047
1493781787305	-1.8231964	-10.406647	1.467392
1493781787305	-0.9004059	-9.771591	1.1360016
1493781787305	2.3039093	-8.472855	1.2223969
1493781787305	2.7927246	-7.8694763	1.234024
1493781787305	0.84750366	-7.722763	-0.43392944
1493781787306	-1.2484436	-6.6184998	0.039657593
1493781787306	-1.6573639	-6.8240204	-0.182724
1493781787306	-1.6962433	-7.431961	-0.19445801
1493781787306	-1.9994354	-7.916931	-0.016433716
1493781787306	-2.424179	-8.338348	-0.16183472
1493781787306	-2.6419678	-8.823669	-0.36627197
1493781787306	-1.3513489	-9.689697	-1.4911346
1493781787306	-0.20446777	-10.149765	-2.1327515
1493781787306	-0.28533936	-9.904343	-2.6809845
1493781787306	0.10952759	-9.394684	-1.8952942
1493781787306	0.55229187	-9.675781	-1.164154
1493781787306	0.5970154	-9.681046	-1.368393
1493781787306	0.8415222	-10.096069	-1.0150299
1493781787306	0.580307	-11.478973	-0.12132263
1493781787306	-0.5824585	-12.8927	0.7256317
1493781787306	-1.972168	-13.500748	0.3644867
1493781787306	-2.873108	-12.501404	0.17041016
1493781787306	-3.1912842	-10.01149	1.2613983
1493781787306	-3.034958	-8.544373	3.0437622
1493781787306	-1.2016296	-9.287415	4.683975
1493781787306	0.24476624	-10.545578	5.972168
1493781787306	-0.0158844	-11.399307	5.0081635
1493781787306	0.44363403	-12.084381	2.7150574
1493781787313	0.98272705	-12.012421	0.9974365
1493781787334	1.1619415	-11.789413	-0.19688416
1493781787352	1.1272583	-10.915894	-0.42085266
1493781802302	0.6556549	-9.529709	0.35838318
1493781802302	-0.5631561	-8.5625	1.0538788
1493781802302	-1.7562256	-7.948242	1.29776
1493781802303	-2.1010132	-7.803009	1.7574615
1493781802303	-1.9950714	-8.195984	1.7404633
1493781802303	-1.0731659	-8.6657715	1.3653412
1493781802303	0.25860596	-9.125351	1.8381958
1493781802303	0.06201172	-9.44809	1.0123596
1493781802303	0.3334961	-9.8315735	-1.2050171
1493781802303	1.3955231	-10.962906	-2.2190247
1493781802304	1.3835754	-11.996002	-1.7359161
1493781802304	0.89016724	-12.236679	-0.9591675
1493781802304	0.01939392	-12.400253	-1.5679016
1493781802304	-0.6602936	-12.107727	-1.8975372
1493781802304	-0.5575104	-12.556564	-2.4950256
1493781802304	-1.1408234	-13.890549	-1.7943573
1493781802304	-1.5307922	-13.869659	-2.0395508
1493781802304	-3.3135986	-13.356262	-2.113739
1493781802305	-5.131729	-11.678497	0.68603516
1493781802305	-7.0001526	-11.596481	5.702759
1493781802305	-7.3133698	-11.853851	5.2356567
1493781802305	-4.779312	-13.686584	2.893692
1493781802305	-1.9307861	-14.044128	-1.8197632
1493781802305	1.1232605	-13.420822	-1.982132
1493781802305	1.2584229	-11.750183	-2.2444458
1493781802305	0.3864746	-8.9960785	0.14271545
1493781802305	-0.999588	-6.215149	2.7032623
1493781802306	-2.3888245	-5.1236725	2.8376007
1493781802306	-2.7866364	-5.1673584	2.3316803
1493781802306	-3.0329437	-3.8162537	1.9794464
1493781802306	-2.7924194	-3.3088074	1.0318604
1493781802306	-2.6073914	-2.3683014	0.9721527
1493781802306	-1.7801361	-1.7524872	1.9186859
1493781802307	-0.52108765	-2.4623413	1.7960358
1493781802307	0.028320313	-4.301941	0.72372437
1493781802307	0.9155884	-8.160736	-2.900177
1493781802309	1.5268555	-14.481659	-9.771576
1493781802309	2.0667114	-19.474823	-18.419067
1493781802309	4.884552	-18.73619	-16.525177
1493781802309	0.8824463	-13.298538	-5.2206726
1493781802309	-0.88616943	-3.2892914	-1.3339081
1493781802309	-4.0879517	-2.3955994	-1.7050323
1493781802310	-8.416809	-11.975204	-2.747818
1493781802310	-5.772522	-17.339355	-0.9573364
1493781802310	0.98428345	-11.084152	2.8568878
1493781802310	-2.8184814	-2.4300385	2.7585754
1493781802310	-6.302902	0.104782104	4.1791077
1493781802310	-2.073639	-6.5808563	5.9522247
1493781802310	2.2634125	-14.19722	5.757416
1493781802310	1.4427795	-16.425995	2.4294128
1493781802310	1.2477264	-13.747971	1.8846741
1493781802310	0.5878601	-9.953018	1.9636841
1493781802310	-0.5963135	-9.000244	2.3854828
1493781802310	-1.059433	-10.019836	2.47435
1493781802310	-0.92282104	-10.800659	2.0276337
1493781802310	-0.9157715	-10.446213	1.8010712
1493781802311	-1.4155426	-9.434433	1.793457
1493781802311	-1.6899414	-8.47789	0.8882599
1493781802312	-1.3557129	-7.859436	0.91326904
1493781802312	-0.37831116	-8.106628	0.852478
1493781802312	0.4501648	-8.752579	0.7627716
1493781802312	0.75720215	-9.300156	0.8772888
1493781802312	1.2317352	-9.358963	-0.7312622
1493781802312	2.0358887	-9.628357	-0.41670227
1493781802312	1.4694214	-10.247162	0.3063202
1493781802312	-0.09913635	-11.077408	-0.09802246
1493781802312	-0.35601807	-12.286758	-0.30426025
1493781802312	0.48562622	-12.927139	-1.0618744
1493781802312	0.5504761	-12.813293	-1.8103027
1493781802312	-0.22322083	-12.143478	-2.7015991
1493781802312	0.39501953	-12.0121155	-3.6010437
1493781802312	1.9670868	-12.233322	-3.128296
1493781802312	0.21507263	-14.78717	-4.2507477
1493781802312	-2.5351105	-14.80191	-2.9896088
1493781802313	-6.1061096	-13.751572	-0.8828583
1493781802313	-7.9273834	-12.916214	3.1570587
1493781802313	-7.5448303	-13.160049	5.317505
1493781802313	-4.3509674	-12.464249	1.8656006
1493781802313	-2.0155487	-13.599762	-2.682251
1493781802313	2.054657	-13.422577	-3.2214355
1493781802313	2.974762	-11.019165	0.086883545
1493781802313	0.46121216	-7.597885	1.092865
1493781802313	-1.2142792	-6.384964	2.5083008
1493781802313	-2.0101318	-4.4381256	2.5477448
1493781802313	-3.2543945	-5.211746	2.3405914
1493781802313	-2.7830048	-3.9474182	1.6533356
1493781802313	-2.4546509	-3.902237	0.73010254
1493781802313	-2.089981	-3.6220856	1.8283539
1493781802314	-2.2040558	-3.4183807	2.2309418
1493781802314	-1.5960999	-3.427658	1.7777405
1493781802314	-1.0688782	-3.5446777	0.765625
1493781802314	-1.1437988	-5.0170746	-1.8632507
1493781802314	-0.05404663	-11.094727	-9.059418
1493781802314	0.028427124	-18.334045	-18.324844
1493781802314	0.17250061	-19.474823	-17.017288
1493781802314	0.94247437	-16.281662	-7.640457
1493781802314	0.9680176	-5.384598	-4.3404694
1493781802314	-0.91522217	2.1478577	-1.4922333
1493781802314	-3.9736328	-0.2854004	2.093872
1493781802314	-5.392456	-10.094955	7.353012
1493781802314	-4.629837	-17.898895	0.05102539
1493781802314	-2.639801	-18.430481	-8.1718445
1493781802314	-3.702835	-11.384735	5.7954254
1493781802314	-6.843338	-2.6390228	11.623337
1493781802314	-2.6152496	-5.0782776	5.3899994
1493781802314	4.7920227	-10.841766	6.388504
1493781802314	3.8173523	-13.895996	4.104248
1493781802314	0.5747223	-13.511032	-0.1481781
1493781802314	-0.900589	-11.434738	-1.0416718
1493781802314	-1.6723175	-10.177658	0.4102478
1493781802314	-1.9456329	-9.223358	0.61849976
1493781802314	-1.1498871	-8.482025	0.65953064
1493781802315	-0.60440063	-7.9526367	0.62713623
1493781802315	-0.26727295	-8.122635	0.33174133
1493781802315	0.0640564	-8.698837	-0.06790161
1493781802315	0.2919159	-9.330978	0.41644287
1493781802315	0.010116577	-9.4040985	0.4653015
1493781802315	-0.15962219	-8.902435	0.78453064
1493781802315	-0.58958435	-9.351135	0.45207214
1493781802315	-0.49839783	-10.1180725	-0.16111755
1493781802316	0.7931366	-10.079056	-1.0026855
1493781802316	1.5254364	-10.142944	-0.80392456
1493781802316	0.34274292	-11.152206	-0.530365
1493781802316	-0.74876404	-11.835648	-0.8849182
1493781802316	-0.548172	-11.822601	-2.1152344
1493781802316	0.93833923	-11.138367	-2.8320923
1493781802316	1.9496765	-11.120621	-2.719513
1493781802316	3.346283	-12.2547	-1.2238007
1493781802316	2.8408203	-15.005142	-2.192047
1493781802316	1.3082123	-15.1701355	-3.0996552
1493781802316	-0.4522705	-13.657837	0.95817566
1493781802316	-3.0009155	-11.680634	4.034622
1493781802328	-5.4433746	-12.7803955	5.2713013
1493781802328	-4.9483795	-14.112061	2.8092499
1493781802328	-3.5523682	-15.639069	2.0669403
1493781802328	-2.0846405	-14.235107	-1.5686493
1493781802329	4.3960266	-12.603577	0.50541687
1493781802329	3.8869476	-12.277893	0.4686737
1493781802329	1.0058289	-9.7269745	1.8956604
1493781802329	-1.0327759	-7.834244	3.8035126
1493781802329	-2.5561218	-6.5953217	2.8329468
1493781802329	-3.3936462	-5.2437134	2.2692413
1493781802330	-2.3363342	-5.4527893	2.0861053
1493781802330	-3.3807983	-5.3904114	1.7228699
1493781802330	-4.331711	-5.007141	1.9720612
1493781802330	-4.00914	-3.6255035	2.1156921
1493781802330	-2.225006	-3.193344	1.0184479
1493781802330	-1.8415833	-3.896515	-0.5486603
1493781802331	-1.2996826	-5.6145782	-3.4045715
1493781802331	0.5971832	-9.706894	-7.5579376
1493781802331	1.7758331	-12.934921	-11.594803
1493781802331	3.1327667	-15.224823	-12.270798
1493781802331	4.257141	-14.947174	-8.922195
1493781802331	1.9815063	-11.826614	-5.071228
1493781802332	-0.41130066	-8.788666	-4.1618195
1493781802332	-4.2079163	-9.69928	-4.583481
1493781802332	-7.5316925	-17.39032	-1.5451813
1493781802332	-5.5158234	-15.71489	3.2134094
1493781802332	-8.219131	-7.294693	1.9383545
1493781802332	-5.502823	-3.7409058	8.129105
1493781802333	0.6263275	-7.0249023	10.022003
1493781802333	3.072876	-12.489777	4.8455963
1493781802333	3.9729767	-13.651901	2.162323
1493781802333	3.3710632	-12.8050995	1.9226837
1493781802333	1.6221924	-11.749084	1.7431641
1493781802334	-0.8202362	-10.492126	-0.26956177
1493781802334	-2.9345703	-9.519684	-0.35820007
1493781802334	-2.9099274	-9.092331	0.08328247
1493781802334	-1.7950897	-8.664551	0.72998047
1493781802334	-0.6794586	-8.804382	0.6518707
1493781802334	-0.18011475	-8.115234	0.1068573
1493781802334	-0.060317993	-7.9586945	0.6022186
1493781802335	-0.550766	-8.198135	0.88786316
1493781802335	-0.8860016	-7.950836	0.8651581
1493781802335	-0.563385	-8.328384	1.2292786
1493781802335	-0.3101654	-9.248062	1.5881958
1493781802335	-0.11859131	-9.4887085	0.46673584
1493781802335	0.55010986	-9.12355	-0.78041077
1493781802335	1.1138458	-9.372284	-0.8283539
1493781802336	0.62112427	-10.205521	3.3569336E-4
1493781802336	-0.28068542	-11.3515625	0.06793213
1493781802336	-0.8139038	-12.136154	-0.2106781
1493781802336	0.22636414	-12.615067	-0.828125
1493781802336	1.7247314	-12.531937	-1.9202728
1493781802337	2.8441315	-12.725067	-2.9015503
1493781802337	4.0854645	-14.424973	-1.1470642
1493781802337	2.1630554	-15.437744	-0.45401
1493781802337	-1.1653748	-13.806305	-2.2878265
1493781802337	-4.1110535	-12.801407	-4.6640167
1493781802337	-3.6151886	-9.707703	0.60754395
1493781802338	-5.1282043	-10.297028	4.0282135
1493781802338	-6.7752533	-14.191193	5.3787994
1493781802341	-5.968384	-17.489746	3.3537292
1493781802341	-3.9153137	-15.978851	1.7292175
1493781802341	0.23170471	-16.044754	-2.4854126
1493781802342	2.9756012	-14.621338	-0.9143982
1493781802342	1.3409576	-12.228073	1.4944763
1493781802342	-2.9579468	-9.740585	1.1105804
1493781802342	-2.8110962	-7.481079	3.369461
1493781802342	-0.4302063	-5.4960938	3.131668
1493781802342	0.24555969	-4.4038086	2.5393066
1493781802342	-1.0157166	-3.6418762	2.7808838
1493781802342	-3.1237946	-1.9778748	3.2597046
1493781802342	-4.2830048	-0.68566895	3.2056732
1493781802342	-4.0010223	-0.4535675	2.5600739
1493781802342	-3.5725098	-1.3322449	1.8925323
1493781802342	-3.260025	-2.0796509	1.1343079
1493781802342	-1.132904	-5.905487	-1.5080872
1493781802342	0.9313965	-12.645493	-9.118729
1493781802342	3.7559814	-19.474823	-19.03366
1493781802343	3.737732	-17.839493	-12.080994
1493781802343	2.1217804	-10.522781	-1.45018
1493781802343	-4.7577667	-5.277466	-2.7613525
1493781802343	-10.165192	-13.334061	-2.4150848
1493781802343	-5.128586	-16.591492	1.9294891
1493781802343	2.1245575	-11.901093	3.7745209
1493781802343	3.1838531	-4.06369	8.935471
1493781802343	-3.2998047	-3.9084778	7.136734
1493781802343	-3.7177734	-9.568375	4.370041
1493781802343	1.6281128	-13.634857	1.1507416
1493781802343	6.741745	-13.757446	-2.6647644
1493781802343	4.3309326	-10.611923	4.536148
1493781802343	-5.6391144	-8.003632	5.592285
1493781802343	-5.3657684	-8.158051	-0.8081207
1493781802343	-1.180069	-9.425659	0.22158813
1493781802343	-0.37931824	-9.394257	-0.0078125
1493781802344	-0.28344727	-8.476471	-0.19932556
1493781802344	0.59936523	-8.194244	1.4055634
1493781802344	0.9742584	-8.3263855	0.8887024
1493781802344	0.48638916	-8.45282	0.7857361
1493781802344	0.08779907	-8.807587	0.73313904
1493781802344	0.20201111	-9.100998	1.4634094
1493781802344	-0.024307251	-9.372192	1.4129944
1493781802344	0.062332153	-9.226242	1.2184753
1493781802344	0.30307007	-9.670029	0.7711487
1493781802344	-0.45196533	-10.7968445	0.30160522
1493781802344	-0.2800598	-11.48349	0.28538513
1493781802344	0.9874573	-12.360886	0.8397522
1493781802344	1.1372986	-12.92038	0.19924927
1493781802345	-0.1602478	-12.90654	-1.680191
1493781802345	-0.24913025	-13.551254	-2.5469818
1493781802345	2.1629944	-12.554764	-1.0993347
1493781802345	1.8709412	-13.735733	-2.4316254
1493781802345	1.040268	-12.351044	-2.4707031
1493781802345	-2.6501923	-12.366837	-1.5546112
1493781802345	-3.3693085	-9.547638	2.1257477
1493781802345	-4.847595	-11.407501	3.931549
1493781802345	-5.968994	-14.829437	3.111679
1493781802345	-5.056717	-15.079819	2.511963
1493781802345	-2.8929596	-13.651077	-0.48646545
1493781802345	-0.60894775	-12.261597	-1.1143494
1493781802345	1.8784332	-11.557037	-0.089401245
1493781802345	0.52104187	-9.868271	1.512497
1493781802345	-1.3200073	-9.294983	2.3942413
1493781802345	-2.412796	-8.077774	1.3536377
1493781802345	-2.3793488	-7.7392273	1.5742188
1493781802345	-2.238617	-7.3519287	1.4517517
1493781802346	-2.1881714	-6.120636	1.6320038
1493781802346	-2.211258	-5.056534	2.1990356
1493781802346	-2.1319275	-3.6240845	2.7312317
1493781802346	-2.1198425	-2.3280945	2.0817413
1493781802346	-1.7964478	-1.5752106	1.25354
1493781802346	-1.4880676	-2.3408356	-0.60343933
1493781802346	-0.86395264	-5.285324	-4.235321
1493781802346	-0.41801453	-9.97908	-9.569656
1493781802346	1.1078796	-16.667221	-15.841232
1493781802346	2.7852936	-19.226639	-13.470383
1493781802346	2.05867	-16.080246	-5.3850403
1493781802346	0.4030304	-7.786377	-4.942398
1493781802346	-1.6377411	-2.9093018	-4.357071
1493781802346	-5.6844025	-8.477844	0.53616333
1493781802346	-6.756012	-16.29567	4.00235
1493781802346	-4.440979	-17.239319	-2.0180054
1493781802346	-2.32193	-10.911591	1.4721832
1493781802346	-4.157318	-4.006134	8.606705
1493781802346	-3.8158722	-5.6761627	4.9154816
1493781802346	0.8457031	-9.952148	5.086624
1493781802347	2.4861755	-12.519516	4.792557
1493781802347	2.2324219	-13.479691	2.83786
1493781802347	0.48986816	-12.22789	0.85214233
1493781802347	-1.3031311	-10.145065	1.0031738
1493781802347	-1.8982849	-9.303772	1.6283569
1493781802347	-1.6961975	-9.105118	1.439621
1493781802347	-0.9822235	-8.850952	1.5744171
1493781802347	-0.3439026	-8.846863	0.7280121
1493781802347	-0.030822754	-8.85849	0.40731812
1493781802347	0.256485	-8.712082	0.7144165
1493781802347	0.89279175	-8.963409	0.94273376
1493781802347	1.2848358	-9.464859	0.6900635
1493781802347	1.0667877	-9.919617	0.46018982
1493781802347	0.6262665	-10.0877075	-0.8078766
1493781802347	0.8427887	-10.037155	-1.7991028
1493781802347	1.0264893	-10.697311	-1.2805634
1493781802347	-0.040100098	-11.24382	-0.7221527
1493781802347	-1.1533813	-11.53685	-0.25325012
1493781802347	-0.5322113	-12.069321	0.08869934
1493781802348	-0.5338745	-12.330811	-0.7138672
1493781802348	-1.8891296	-12.033005	-2.7183685
1493781802348	-1.495575	-11.277908	-3.9723816
1493781802348	0.8306885	-11.220703	-2.8932953
1493781802348	1.9873962	-15.425919	-4.4349213
1493781802348	3.43956	-14.042496	-0.43203735
1493781802348	0.5498047	-13.178207	2.2627258
1493781802348	-3.9107819	-12.411697	3.7194824
1493781802348	-8.218674	-12.716293	4.337143
1493781802348	-7.973587	-13.452576	2.2177277
1493781802348	-4.516678	-13.762268	0.558609
1493781802348	1.3410034	-12.517517	-0.22569275
1493781802348	3.913742	-12.306229	-1.451828
1493781802348	1.4683685	-10.3216095	0.2443695
1493781802348	-0.62953186	-8.469635	1.6535797
1493781802348	-1.9566498	-7.29274	2.707718
1493781802348	-3.2072906	-5.959488	1.9553986
1493781802348	-2.846405	-4.6081696	1.2596436
1493781802348	-2.855606	-4.0029755	0.46681213
1493781802349	-2.8291016	-3.844345	1.2306671
1493781802349	-2.925064	-3.0529785	2.2713623
1493781802349	-2.6944427	-2.371811	2.600708
1493781802349	-2.03273	-2.4674683	2.7851868
1493781802349	-1.0314484	-3.8040009	0.64056396
1493781802349	0.195755	-8.208511	-4.616028
1493781802349	0.73075867	-14.573074	-12.924255
1493781802349	-0.5733032	-19.474823	-17.790222
1493781802349	-0.9998932	-17.44751	-11.258499
1493781802349	-0.21331787	-9.626663	-3.6174774
1493781802349	-0.25828552	-1.604187	-2.7715302
1493781802349	-3.0097198	-2.728592	-1.1442719
1493781802349	-6.1451416	-11.982544	4.0661316
1493781802349	-4.500046	-18.043213	1.6768036
1493781802349	-2.5175476	-15.675644	-3.6998749
1493781802349	-2.781372	-6.751953	4.163849
1493781802349	-4.1036377	-1.743042	8.235992
1493781802349	-1.0867462	-6.4140625	4.321884
1493781802349	4.156616	-12.468155	3.8312988
1493781802349	4.1805725	-14.253998	3.5718231
1493781802350	1.745163	-13.025543	2.1504822
1493781802350	-0.9999542	-10.1879425	0.28907776
1493781802350	-2.5765533	-9.132492	0.73950195
1493781802350	-2.478241	-9.517044	1.1287537
1493781802350	-1.9328308	-9.567871	1.2043457
1493781802350	-1.3189697	-9.021866	1.0027924
1493781802350	-0.99713135	-8.560074	0.5756378
1493781802350	-0.274292	-8.485397	0.50289917
1493781802350	0.4389038	-8.712875	0.6825714
1493781802350	0.42552185	-8.597168	0.5422363
1493781802350	0.47050476	-8.480408	0.49136353
1493781802350	0.59239197	-8.954987	0.5177002
1493781802350	0.7318878	-9.525589	0.21588135
1493781802350	1.0347595	-9.7673645	-0.07475281
1493781802350	1.175827	-10.3311	-0.7830353
1493781802350	0.9674225	-11.077667	-0.6390228
1493781802350	-0.4127655	-11.39502	-0.90730286
1493781802350	-0.41471863	-11.584488	-0.38945007
1493781802350	-0.39767456	-11.714569	-0.7667694
1493781802350	-1.8930817	-12.516663	-3.0877075
1493781802351	-0.14848328	-12.861069	-4.0385437
1493781802351	1.3069305	-14.539154	-3.055481
1493781802351	1.7414703	-15.736542	-2.9773102
1493781802351	1.030777	-13.184387	0.12741089
1493781802351	-3.0574646	-11.985062	1.5355377
1493781802351	-5.45726	-11.105728	5.3230133
1493781802351	-6.74057	-13.751556	4.183441
1493781802351	-6.4366455	-15.82988	2.7236786
1493781802351	-1.8712769	-15.435974	-1.4366302
1493781802351	4.8172913	-13.236542	-0.5267334
1493781802352	2.644867	-11.24173	-0.8197632
1493781802352	0.6941223	-9.579498	0.46897888
1493781802352	-0.14094543	-8.127945	2.3518066
1493781802352	-1.5213318	-6.7907257	2.5209808
1493781802352	-2.4607697	-5.4776917	2.2225494
1493781802352	-2.3536835	-4.2571106	1.9839325
1493781802352	-2.678772	-3.839859	1.3614197
1493781802352	-3.2624664	-2.9766846	1.9554443
1493781802352	-3.071045	-2.1213074	2.186493
1493781802352	-2.2954712	-2.005539	1.8680267
1493781802352	-1.2497253	-3.2655487	1.4413757
1493781802352	0.20887756	-5.2590637	-0.011352539
1493781802353	0.75531006	-9.7829895	-4.478058
1493781802353	-0.86120605	-15.403854	-12.275894
1493781802353	-1.0572052	-19.474823	-15.749985
1493781802353	0.51342773	-17.36621	-8.784439
1493781802353	0.69184875	-10.431931	-2.6939392
1493781802353	0.45477295	-2.3181305	-2.7017517
1493781802353	-1.2311249	-0.14422607	-3.8127594
1493781802353	-5.0291595	-8.321838	-3.37883
1493781802353	-5.0542603	-18.488586	0.03501892
1493781802353	0.43902588	-18.868637	-0.99076843
1493781802353	0.73791504	-13.084747	-0.94895935
1493781802353	-6.107544	-3.859192	5.497574
1493781802353	-9.409576	-1.6495514	5.143158
1493781802353	-3.0910034	-5.806534	4.4408417
1493781802353	3.5311127	-10.763275	5.227188
1493781802353	3.701233	-13.462784	5.608658
1493781802353	1.3049774	-13.461319	2.5617065
1493781802353	-0.49482727	-11.834717	-0.6609955
1493781802353	-2.018097	-10.000687	0.9387665
1493781802353	-1.8354034	-9.672775	2.093872
1493781802353	-0.5240631	-9.740189	1.2420197
1493781802353	0.8614807	-9.18512	0.7025604
1493781802353	1.3681946	-8.752762	1.2496643
1493781802354	0.9815216	-8.871857	1.1290131
1493781802354	0.21820068	-9.280472	0.75665283
1493781802354	-0.7029877	-9.203293	0.42733765
1493781802354	-1.5029144	-9.007874	-0.41145325
1493781802354	-1.0992584	-9.026321	-2.345047
1493781802354	0.41726685	-8.999176	-1.7824249
1493781802354	0.8287964	-10.083542	-0.40611267
1493781802354	-0.1539154	-11.46463	-0.32182312
1493781802354	-0.3675232	-12.24733	-1.6708527
1493781802354	-0.6295929	-11.898697	-2.4935455
1493781802354	-0.9214783	-11.69072	-3.0392609
1493781802354	0.06796265	-12.782211	-1.8122101
1493781802354	0.51805115	-13.401093	-2.7393646
1493781802354	0.33433533	-14.090042	-2.594864
1493781802354	-1.2014008	-13.494156	-0.9286041
1493781802354	-2.6449127	-11.870819	0.29481506
1493781802354	-5.5098114	-10.57225	-0.021606445
1493781802354	-6.0997314	-10.1419525	3.689148
1493781802354	-5.2928314	-10.351334	3.349945
1493781802354	-2.725586	-11.916336	1.0384827
1493781802354	-0.16131592	-12.500824	-3.2403717
1493781802354	1.497055	-11.575409	-0.61024475
1493781802355	0.81240845	-9.649017	0.081329346
1493781802355	-0.926178	-8.217438	1.3770905
1493781802355	-2.2298584	-7.512451	1.8404083
1493781802355	-2.6529388	-7.1137695	1.3540192
1493781802355	-2.5825806	-7.071213	0.9746094
1493781802355	-2.5906982	-6.7013855	1.1882782
1493781802355	-2.8328705	-6.1063232	1.5090485
1493781802355	-2.7534027	-5.174362	1.0969696
1493781802355	-2.728424	-4.8444214	0.60946655
1493781802355	-2.1934204	-5.7387238	-0.17687988
1493781802355	-2.3444366	-8.386032	-1.3545532
1493781802355	-1.5801239	-11.362854	-5.1138763
1493781802355	-0.38226318	-14.614243	-10.135391
1493781802355	-0.94421387	-12.833466	-7.501892
1493781802355	-2.1299133	-9.678101	-2.638977
1493781802355	-3.5214844	-9.385071	3.6788635
1493781802355	-4.798477	-9.317978	11.517609
1493781802356	-4.1387177	-10.291351	7.0839386
1493781802356	-0.5831299	-10.892456	0.4070282
1493781802356	3.378067	-11.566406	0.06832886
1493781802356	1.970993	-10.517746	3.5711517
1493781802356	-2.467575	-11.46257	1.141037
1493781802356	-3.1857758	-11.547897	0.5768738
1493781802356	-1.0721588	-11.079758	1.8328094
1493781802356	-0.64086914	-9.8233185	2.2226257
1493781802356	-1.1701202	-8.867767	1.8339844
1493781802356	-1.532135	-8.857529	0.98583984
1493781802356	-1.2057495	-8.929749	0.90493774
1493781802356	-1.7793121	-9.409973	1.2156525
1493781802356	-2.8779907	-10.215088	0.13305664
1493781802356	-2.1538086	-10.77034	-0.23158264
1493781802356	-0.92453	-10.904678	0.69114685
1493781802356	-0.47612	-10.383041	1.9282532
1493781802356	-0.41055298	-9.825806	2.1826935
1493781802356	-0.25128174	-9.728195	1.6055145
1493781802356	0.0053100586	-10.00737	1.5909729
1493781802356	-0.036117554	-10.276657	1.5759277
1493781802356	-0.54859924	-10.358017	1.5480194
1493781802356	-0.29510498	-10.006607	2.1211395
1493781802356	-0.7795868	-9.863052	2.1640015
1493781802356	-0.73765564	-9.768433	2.0816345
1493781802357	-0.41407776	-9.71698	2.2937927
1493781802357	-1.0745697	-10.1063385	2.1711426
1493781802357	-1.5447998	-10.251297	1.7339478
1493781802357	-1.5790558	-10.179459	1.1628876
1493781802357	-0.9566498	-9.897507	0.9559479
1493781802357	-0.8165741	-10.314514	0.60694885
1493781802357	-1.037384	-11.227081	-0.23934937
1493781802357	-0.9194641	-12.082901	-1.3931732
1493781802357	-0.80404663	-11.929169	-1.974823
1493781802357	-1.3381958	-11.500092	-2.0259094
1493781802357	-1.9236145	-11.060211	-2.8580627
1493781802357	-1.4591522	-10.099365	-2.1866913
1493781802357	-3.1589508	-9.5625305	-0.53848267
1493781802357	-5.1586304	-11.625488	-0.9118805
1493781802357	-3.6057892	-13.177292	0.6164551
1493781802357	2.1952972	-11.819778	1.25383
1493781802357	4.1648865	-10.858078	2.1997833
1493781802357	2.3656006	-10.62088	2.2409515
1493781802357	-0.6059418	-10.498901	0.4142151
1493781802357	-3.1175842	-10.861237	-1.1656952
1493781802357	-2.5533142	-11.450943	-2.6000671
1493781802357	-1.8156891	-10.370041	-1.046936
1493781802358	-1.2528687	-8.88736	0.37348938
1493781802358	-1.724472	-7.9525146	0.779541
1493781802358	-2.1356354	-6.972183	1.0341187
1493781802358	-1.5994873	-6.0718384	1.2060242
1493781802358	-1.1171722	-5.2562714	1.2191467
1493781802358	-1.093399	-4.495056	0.9980469
1493781802358	-1.2253723	-4.4378967	0.28834534
1493781802358	-1.465271	-5.7452545	-1.2478485
1493781802358	-1.4468231	-7.709015	-3.3616638
1493781802358	-1.3868713	-9.490295	-5.336151
1493781802358	-1.0168152	-11.988556	-8.495972
1493781802358	0.004348755	-14.579315	-10.832199
1493781802358	0.64894104	-13.893112	-8.560135
1493781802358	0.74160767	-10.769821	-6.0916595
1493781802358	1.0695343	-7.647949	-5.299225
1493781802358	0.77490234	-5.426758	-3.2180328
1493781802359	-0.5704346	-8.17485	-0.7016449
1493781802359	-0.35206604	-14.404907	3.0214539
1493781802359	-1.9620819	-15.423264	-0.2467804
1493781802359	-4.806961	-11.146866	-3.8694916
1493781802359	-8.036819	-5.2462006	1.3654785
1493781802359	-6.8643494	-3.8579254	8.310776
1493781802359	-1.548233	-9.123077	7.0234833
1493781802359	2.2701263	-13.123322	4.6135406
1493781802359	2.170578	-13.109711	4.087311
1493781802359	0.3079071	-11.49971	2.4060059
1493781802359	-0.97961426	-10.1319275	1.9375153
1493781802359	-1.6476746	-10.262619	1.9613342
1493781802359	-2.4714508	-10.600967	1.7063293
1493781802359	-2.2398071	-10.216919	1.1484528
1493781802360	-1.2054291	-9.118256	0.34640503
1493781802360	-0.13017273	-7.988632	0.49482727
1493781802360	0.40689087	-8.042374	0.85769653
1493781802360	0.06222534	-8.604111	1.3006897
1493781802360	-0.58929443	-8.461319	1.7990112
1493781802360	-0.7733612	-8.188629	1.4223785
1493781802360	-0.5521393	-8.776535	0.76246643
1493781802360	-0.15982056	-9.371292	0.87623596
1493781802360	0.26774597	-9.437912	-0.2733307
1493781802360	0.7503052	-9.786987	-1.3293762
1493781802360	0.81455994	-10.8611145	-0.005493164
1493781802360	-0.25157166	-11.91481	-0.45170593
1493781802361	0.114364624	-12.291306	-1.4385681
1493781802361	1.3110504	-12.882584	-1.7898865
1493781802361	1.437149	-12.6249695	-2.0977783
1493781802361	1.9706573	-14.719818	-2.1056366
1493781802361	1.5580292	-14.957291	-0.8188019
1493781802361	0.40934753	-14.008362	-2.823471
1493781802361	-3.3571625	-13.167419	-4.8589935
1493781802361	-4.078064	-11.097229	1.7522278
1493781802361	-5.5729065	-11.390762	5.0480957
1493781802361	-5.9465637	-13.283585	5.9347687
1493781802361	-3.900055	-14.188736	1.1569061
1493781802361	-2.8998413	-14.776047	-3.1740723
1493781802361	-1.3887177	-13.810715	-1.8684692
1493781802361	1.1838989	-12.933212	1.2272034
1493781802361	0.2963562	-9.576279	2.1351776
1493781802361	-1.3484955	-7.466034	1.9052277
1493781802361	-2.8418884	-5.8927765	2.2242126
1493781802361	-3.3255768	-4.7288666	2.0798645
1493781802361	-2.6006012	-4.144684	1.8681946
1493781802361	-2.4515686	-3.6551666	1.6515656
1493781802361	-2.4135742	-2.9473267	1.9793854
1493781802361	-2.163681	-2.0280304	2.241562
1493781802362	-1.261383	-1.8653717	1.9833984
1493781802362	-0.6956482	-2.6280365	1.002243
1493781802362	0.19903564	-5.3018646	-1.7312164
1493781802362	0.80052185	-11.340805	-8.889633
1493781802362	0.7936554	-17.463226	-16.75673
1493781802362	1.0378876	-19.474823	-14.87883
1493781802362	0.006286621	-15.464569	-7.4933167
1493781802362	-1.039978	-6.4322815	-4.0092316
1493781802362	-3.484192	-3.4917297	-3.6221313
1493781802362	-7.1894226	-11.473846	-2.195984
1493781802362	-4.783188	-17.394638	2.5055084
1493781802362	-1.4211731	-13.379135	0.28237915
1493781802362	-1.1942444	-5.8524475	2.2752533
1493781802362	-3.7478638	-2.8250275	5.3870087
1493781802362	-2.4425507	-6.7026825	5.962326
1493781802362	1.569809	-11.490997	4.9630127
1493781802362	3.3312225	-13.683456	2.665268
1493781802362	2.6622162	-12.736069	2.9139557
1493781802362	0.5014801	-10.751892	1.8627319
1493781802362	-0.33169556	-9.9253235	0.536438
1493781802362	-1.5116119	-9.645493	0.94506836
1493781802362	-2.199936	-9.307114	0.47103882
1493781802362	-2.1649933	-9.207092	1.2257843
1493781802362	-1.9255524	-8.834259	0.7594452
1493781802363	-1.4574738	-8.565491	0.90052795
1493781802363	-0.40823364	-8.513168	0.66085815
1493781802363	0.44163513	-8.49321	0.82751465
1493781802363	1.6928864	-9.172104	0.49913025
1493781802363	2.5648193	-10.258209	0.24780273
1493781802363	2.4530945	-10.113922	-0.7991333
1493781802363	1.76297	-9.661911	-1.456955
1493781802363	0.42132568	-10.207886	-0.96640015
1493781802363	-0.38258362	-11.676147	-0.6120453
1493781802363	-0.5591736	-12.151855	-1.2884521
1493781802363	0.124694824	-12.277878	-2.1551971
1493781802363	0.7402649	-12.365723	-2.0273895
1493781802363	-0.15377808	-11.844589	-3.0522766
1493781802363	1.6018829	-13.638809	-3.2811432
1493781802363	2.275711	-16.165558	-3.2174835
1493781802363	1.219635	-14.408585	-2.1798096
1493781802363	-2.8539124	-11.961365	1.3620453
1493781802363	-5.273117	-11.004303	3.0234833
1493781802363	-6.0744324	-13.453033	4.5730743
1493781802363	-6.026535	-16.141327	3.6714478
1493781802363	-3.6915894	-16.652527	1.7115936
1493781802363	2.175644	-14.11142	-0.8385773
1493781802363	1.8513794	-11.58847	-1.8157043
1493781802363	0.27061462	-9.490143	-0.030700684
1493781802364	-1.5544281	-7.434204	1.960144
1493781802364	-1.6093445	-6.438156	2.5555725
1493781802364	-2.269577	-5.2192383	2.2382355
1493781802364	-2.4994965	-4.571167	1.7307129
1493781802364	-2.7120514	-4.2986603	1.450592
1493781802364	-2.9614258	-3.934616	1.310379
1493781802364	-2.7638855	-3.4266815	1.52594
1493781802364	-2.04628	-2.9198303	1.8847504
1493781802364	-1.30513	-2.4257355	1.6873322
1493781802364	-0.9620819	-2.6671143	0.44110107
1493781802364	0.3918152	-5.9798584	-2.9600677
1493781802364	1.1795654	-13.497314	-9.2942505
1493781802364	0.40179443	-18.960754	-16.037048
1493781802364	-0.048294067	-18.686066	-14.466537
1493781802364	-0.45777893	-13.101181	-6.001129
1493781802365	-2.9223022	-7.8783875	-2.759735
1493781802365	-5.5289307	-11.642441	-2.173645
1493781802365	-3.327713	-13.641449	0.036972046
1493781802365	0.14250183	-9.779221	1.7609558
1493781802365	-1.0214386	-7.4257813	1.9822845
1493781802365	-3.3740692	-6.337509	3.7639313
1493781802366	-3.9806213	-6.7546387	4.490677
1493781802366	-0.9408417	-9.597839	3.8668976
1493781802366	3.2104492	-11.606827	3.3713531
1493781802366	4.3338776	-12.019775	3.1321564
1493781802366	2.100891	-11.21492	2.1996307
1493781802366	-0.5198517	-10.061127	1.0535736
1493781802366	-1.8601227	-9.652039	0.5978546
1493781802367	-2.211731	-9.988693	1.1977081
1493781802367	-2.266632	-9.495834	0.22338867
1493781802367	-2.0715637	-8.692017	-0.07295227
1493781802367	-1.2866974	-8.148331	0.3319702
1493781802367	-0.20011902	-7.984192	1.1279297
1493781802367	0.33467102	-8.31778	1.5678711
1493781802367	0.2811737	-9.033188	2.0272827
1493781802367	0.43675232	-9.356522	1.3425293
1493781802367	0.73690796	-9.307663	0.999115
1493781802367	0.6655731	-9.333969	-0.49824524
1493781802367	0.7475891	-9.614105	-1.8734589
1493781802367	0.28715515	-10.583557	-1.5800629
1493781802367	-1.0609741	-11.653091	-0.6992035
1493781802367	-1.2919922	-12.134094	-0.74887085
1493781802367	-0.21737671	-11.9939575	-1.3066559
1493781802367	0.5055084	-11.918259	-1.5969696
1493781802367	0.5814972	-12.312454	-2.6203766
1493781802367	2.4800262	-14.73111	-1.9504242
1493781802367	2.0793304	-16.021057	-2.4978485
1493781802367	1.0849457	-14.083359	-3.533493
1493781802368	-2.180191	-12.224808	0.71110535
1493781802368	-3.0172424	-10.450272	3.344574
1493781802368	-3.4521332	-11.877197	4.772476
1493781802368	-3.6571655	-13.688095	2.113617
1493781802368	-3.4674835	-15.285278	0.6038666
1493781802368	-3.077057	-14.6502075	-0.39100647
1493781802368	-1.3189697	-13.554474	0.935379
1493781802368	2.1189117	-12.35701	0.86557007
1493781802368	-0.19844055	-9.349411	1.8926697
1493781802369	-1.7932434	-7.6835175	3.0746002
1493781802369	-3.392807	-6.6021423	2.4578247
1493781802369	-3.0392303	-5.5354004	1.7283325
1493781802369	-2.2322083	-4.6741486	1.5617828
1493781802369	-2.1517487	-4.3494263	1.477066
1493781802369	-2.6279297	-3.1972046	2.3629456
1493781802369	-2.9501953	-2.13945	2.7400208
1493781802369	-2.3415527	-2.3267975	2.1467438
1493781802369	-1.3346252	-3.960022	0.419693
1493781802369	-0.97865295	-7.194336	-3.183075
1493781802370	-0.8769684	-12.7361145	-10.083252
1493781802370	0.6280365	-18.176773	-15.750717
1493781802370	1.9578857	-17.967804	-11.386917
1493781802370	0.4733429	-13.065369	-5.30632
1493781802370	-0.9864044	-7.2112427	-3.800476
1493781802370	-3.288742	-5.2074127	-4.2063904
1493781802370	-6.0353546	-9.777924	-2.0752258
1493781802370	-4.0278625	-15.065826	2.6186218
1493781802370	-1.388504	-14.756775	0.674469
1493781802370	-1.8000336	-10.116913	2.1825104
1493781802370	-4.8455505	-4.912369	5.133957
1493781802370	-3.5334473	-5.17836	5.1207123
1493781802370	2.0197296	-9.0903015	4.337555
1493781802370	4.3687134	-12.083954	3.0924988
1493781802370	3.1338654	-12.772629	1.9092865
1493781802370	1.0235901	-12.014862	1.007843
1493781802370	-1.019516	-10.378418	0.44563293
1493781802370	-2.3249512	-9.112701	0.7111511
1493781802370	-2.6723633	-9.069794	1.2372589
1493781802370	-2.2347412	-9.181015	0.50601196
1493781802371	-1.343277	-8.972076	0.10987854
1493781802371	-0.59184265	-8.861328	0.59625244
1493781802371	-0.16722107	-8.344543	1.4172516
1493781802371	0.5293579	-8.44339	1.5644073
1493781802371	1.1678467	-9.327835	1.4184875
1493781802371	0.73197937	-10.20401	0.4345703
1493781802371	0.45869446	-10.09375	-0.92463684
1493781802371	0.50135803	-9.402222	-1.3502655
1493781802371	-0.35969543	-10.044922	-0.45355225
1493781802371	-1.8930206	-11.598038	0.843277
1493781802372	-1.7143707	-12.317383	-0.7090759
1493781802372	0.6855774	-12.103455	-1.8300476
1493781802372	2.1696625	-12.189713	-2.73526
1493781802372	2.2713013	-12.333252	-2.9818878
1493781802372	2.7246552	-12.87178	-4.4965515
1493781802372	2.4423065	-13.089737	-3.7962341
1493781802372	1.0964508	-15.527863	-5.076462
1493781802372	0.21766663	-13.063141	-0.34603882
1493781802372	-2.637741	-12.14035	1.3436584
1493781802372	-3.524063	-13.643875	3.313919
1493781802372	-4.502014	-16.828049	3.6968536
1493781802372	-4.722687	-17.569412	2.1337433
1493781802372	-3.5086212	-15.564697	0.42448425
1493781802372	2.0548553	-13.799149	-0.845871
1493781802372	-0.8046417	-12.462265	-0.59529114
1493781802372	-1.0997772	-10.638947	1.0699005
1493781802372	-3.6563568	-8.17157	0.7497864
1493781802372	-5.475403	-4.792221	0.84799194
1493781802372	-4.5205536	-3.6281433	0.98591614
1493781802373	-2.6445923	-3.7361145	0.8218994
1493781802373	-1.6902008	-3.6585693	1.1012726
1493781802373	-2.0511627	-3.5157623	1.3575134
1493781802373	-2.4136505	-3.0554504	1.6457825
1493781802373	-1.9123688	-2.568573	1.1825256
1493781802373	-1.1317444	-2.1691437	-0.0056610107
1493781802373	-0.31700134	-2.5162354	-1.1945343
1493781802373	0.51068115	-4.0013733	-2.945633
1493781802373	0.3919525	-6.4746094	-5.5504
1493781802373	-0.26280212	-10.953308	-8.358459
1493781802373	-0.5845642	-16.26033	-10.098419
1493781802373	-0.17674255	-18.397903	-10.043915
1493781802373	-0.17829895	-15.740814	-7.9031525
1493781802373	-1.8845673	-11.052551	-6.1731415
1493781802373	-6.3422546	-11.080734	-4.1217194
1493781802373	-9.176453	-14.333206	-0.91400146
1493781802373	-5.900131	-14.950989	1.4938507
1493781802373	-2.2815247	-11.812988	2.2962341
1493781802373	-2.1742249	-10.213455	-0.2989807
1493781802373	-0.9878235	-7.939926	1.7140656
1493781802373	1.703064	-6.0292206	2.8923645
1493781802374	1.470932	-6.8140717	3.2046967
1493781802374	0.6828613	-9.111862	3.9908447
1493781802374	1.3383484	-10.88916	4.9959106
1493781802374	2.190567	-12.068817	2.3384247
1493781802374	1.3375244	-10.919464	0.1653595
1493781802374	-1.6862183	-9.490372	0.17675781
1493781802374	-2.008789	-9.814331	0.55682373
1493781802374	-1.7678833	-9.623657	0.31796265
1493781802374	-1.1655884	-8.816788	0.9403534
1493781802374	-0.30329895	-8.386337	0.7112427
1493781802374	0.25497437	-8.547745	0.4212799
1493781802374	0.6154175	-9.034012	0.7766571
1493781802394	0.7438965	-9.075394	0.861557
1493781844333	0.65397644	-9.190765	0.59062195
1493781844333	0.60717773	-9.276566	0.7365265
1493781844333	1.1691589	-9.038071	-1.1270142
1493781844333	2.3602448	-9.469528	-0.9741516
1493781844333	2.0522614	-10.403137	0.14056396
1493781844333	0.26156616	-10.903107	0.029327393
1493781844333	-0.58229065	-11.331482	-1.1535492
1493781844333	0.14955139	-11.739273	-1.7314606
1493781844334	-0.49142456	-11.755951	-2.768631
1493781844334	-1.1033936	-11.8914795	-4.5034637
1493781844334	0.5575409	-13.653183	-4.2435913
1493781844334	0.77401733	-15.610733	-4.3207855
1493781844334	-0.78796387	-14.562775	-2.0287933
1493781844334	-4.776062	-13.168884	1.0457458
1493781844334	-5.9593964	-13.377731	5.1677094
1493781844334	-5.263748	-13.516678	4.174774
1493781844334	-3.5678253	-14.738251	1.48526
1493781844334	-0.3995819	-16.385254	-2.352951
1493781844334	0.9720154	-15.2157135	-0.38723755
1493781844334	0.40704346	-12.050476	-0.19316101
1493781844334	-1.4927368	-8.307724	1.5924225
1493781844334	-2.4240875	-6.4509277	2.804062
1493781844334	-2.5866241	-5.932678	2.2815552
1493781844334	-2.871811	-5.055359	1.7157135
1493781844334	-2.7735138	-4.2868347	1.2691956
1493781844334	-2.36792	-3.4506836	1.2870026
1493781844334	-2.549179	-2.5804443	2.1279602
1493781844334	-2.5522156	-2.3000488	2.3271484
1493781844334	-1.4370117	-2.667282	1.6271973
1493781844335	-0.52485657	-3.3329468	0.23500061
1493781844335	-0.12364197	-5.245514	-3.5417786
1493781844335	0.78292847	-10.640228	-10.478348
1493781844335	0.046691895	-16.902283	-14.051773
1493781844335	-2.1677551	-19.474823	-12.148468
1493781844335	-1.6509857	-16.039948	-8.141708
1493781844335	-0.44734192	-9.20079	-4.48053
1493781844335	-2.1305084	-4.185318	-3.1711884
1493781844335	-6.805542	-5.4622803	-2.671646
1493781844335	-8.044418	-11.152405	1.2936249
1493781844335	-4.2536163	-15.370621	5.9195557
1493781844335	-1.0640564	-15.304962	-0.16679382
1493781844335	0.53356934	-12.8971405	-6.179123
1493781844335	2.3437805	-6.4437866	2.598236
1493781844335	1.1614532	-2.0047913	6.795227
1493781844335	0.56062317	-4.3249664	3.9063263
1493781844335	2.0995636	-10.5208435	2.8862762
1493781844335	2.3012695	-14.353119	3.5331726
1493781844335	0.94343567	-14.102997	1.113739
1493781844335	-1.770935	-9.956009	0.1959076
1493781844335	-2.388153	-8.519379	1.4203949
1493781844335	-1.9263916	-9.039719	1.2179565
1493781844336	-1.5798645	-9.057648	0.4646759
1493781844336	-0.81121826	-8.718002	0.57496643
1493781844336	-0.25935364	-8.906769	0.8005676
1493781844336	-0.055480957	-8.731247	1.1927948
1493781844336	0.27209473	-8.599823	0.9944153
1493781844336	0.2622528	-9.287064	0.7845764
1493781844336	-0.10977173	-9.844757	0.21264648
1493781844336	0.3332672	-9.443451	-0.9122467
1493781844336	1.1666565	-9.282623	-1.1246033
1493781844336	1.1202087	-10.557068	0.30815125
1493781844336	0.14463806	-11.378021	-0.25224304
1493781844336	-0.03526306	-11.623306	-1.6400604
1493781844336	0.76446533	-11.653641	-0.76641846
1493781844336	0.04916382	-11.781616	-0.9129791
1493781844336	-0.53196716	-13.481293	-3.0915222
1493781844336	1.5523682	-14.452713	-2.0979614
1493781844336	1.1296692	-14.353668	-3.1024017
1493781844336	-0.4378662	-13.43483	-3.2817688
1493781844336	-3.1227264	-12.040543	-1.2805176
1493781844336	-3.6151123	-10.280167	2.894867
1493781844336	-4.1720276	-11.930847	5.9579926
1493781844337	-3.50708	-13.788666	2.8912659
1493781844337	-3.512207	-15.49057	-0.4970703
1493781844337	0.7336731	-14.066986	-4.5500793
1493781844337	12.706909	-9.86232	-5.1818695
1493781844337	0.44787598	-10.424088	5.5782013
1493781844337	-0.64927673	-8.8714905	3.0917053
1493781844337	-2.1266632	-7.4990234	2.342865
1493781844337	-3.0675354	-6.406357	2.4297485
1493781844337	-2.8834991	-5.3204193	1.9023438
1493781844337	-2.1647644	-4.5212708	1.3763275
1493781844337	-2.1992035	-4.233368	1.4540253
1493781844337	-2.7754974	-3.0793152	2.0989227
1493781844337	-3.2757568	-1.8560028	2.5158844
1493781844337	-2.5814056	-1.975357	2.2290344
1493781844337	-1.5445251	-3.3491516	0.8921356
1493781844337	-0.1875763	-7.0381775	-2.2969513
1493781844337	0.43084717	-13.95697	-9.383041
1493781844337	-0.32687378	-18.951065	-15.807266
1493781844337	-0.5099182	-17.747208	-11.676392
1493781844337	0.2496643	-11.7846985	-5.1387024
1493781844337	-0.51379395	-6.11174	-3.292511
1493781844337	-3.8937073	-8.198166	-3.1002197
1493781844338	-6.4016876	-16.569046	-1.3256378
1493781844338	-4.3454895	-19.474823	-0.66355896
1493781844338	0.0368042	-13.8862915	-0.25341797
1493781844338	0.35383606	-5.0773773	7.430969
1493781844338	-7.3992157	0.8967743	9.158539
1493781844338	-8.53537	-2.2761536	3.1507416
1493781844338	0.0033111572	-9.958618	3.690033
1493781844338	5.7789307	-16.641525	5.753525
1493781844338	3.4484863	-16.832077	3.180832
1493781844338	-1.0023651	-11.80838	0.9556427
1493781844338	-1.184021	-9.0225525	-0.16311646
1493781844338	-1.6473846	-8.853226	-0.36862183
1493781844338	-2.0151215	-9.309616	0.7872009
1493781844338	-1.4384613	-9.60022	0.81010437
1493781844338	0.82366943	-9.580429	0.94262695
1493781844338	2.5341187	-10.076172	0.29405212
1493781844339	2.2705383	-9.942764	1.4668121
1493781844339	0.6405487	-9.915253	0.76446533
1493781844339	-0.3093109	-10.08815	0.4217987
1493781844339	-0.8818512	-9.753662	0.52249146
1493781844339	-1.2399445	-8.456268	0.9173584
1493781844339	-2.7509308	-8.167877	1.0878601
1493781844339	-3.7325897	-9.175766	2.8039703
1493781844339	-1.2837524	-10.265686	3.140747
1493781844339	2.4734192	-10.517441	2.5965576
1493781844339	3.9210358	-10.0811	1.9662628
1493781844339	2.441162	-9.4704895	0.5796814
1493781844339	1.0027618	-8.416885	0.9161072
1493781844339	0.6212311	-11.842239	-0.8295746
1493781844339	-0.25637817	-16.483704	-1.5074158
1493781844339	-2.153122	-14.256958	-1.8039093
1493781844339	-3.9036865	-9.74086	-1.2599945
1493781844339	-5.5183105	-7.624893	-0.1865387
1493781844339	-5.015793	-7.703583	1.3319702
1493781844339	-4.0951996	-8.601791	1.5106506
1493781844339	-3.450409	-9.467438	0.71125793
1493781844339	-3.0503693	-9.427383	0.333313
1493781844340	-3.1341705	-9.139526	-0.24864197
1493781844340	-3.2830963	-8.494736	0.11405945
1493781844340	-2.638794	-8.466263	0.73887634
1493781844340	-2.5174713	-8.670654	1.2010345
1493781844340	-2.4357452	-9.185165	0.91174316
1493781844340	-1.8897705	-9.624207	0.18077087
1493781844340	-1.4254456	-9.415115	-0.22766113
1493781844340	-1.577652	-9.110474	-0.5866394
1493781844340	-1.0002899	-8.940659	-1.269989
1493781844340	-0.2571106	-8.804596	-1.253128
1493781844340	-0.5700073	-8.753601	-0.88397217
1493781844340	-0.9710388	-8.81218	-1.3565521
1493781844340	-1.0202179	-8.930435	-1.6991882
1493781844340	-1.0248413	-8.944305	-2.0145264
1493781844340	-0.8951416	-8.967224	-2.5079193
1493781844340	-0.5891876	-8.996124	-3.5407257
1493781844340	-0.29673767	-9.118118	-4.3441772
1493781844340	-0.2106018	-9.41745	-4.3829346
1493781844340	-0.43414307	-10.337509	-3.9131012
1493781844340	-0.7403259	-11.801254	-2.3543396
1493781844340	-1.8679047	-12.586746	0.3368988
1493781844340	-4.418518	-10.770569	1.9674835
1493781844340	-6.5574646	-7.80748	2.0937653
1493781844341	-4.610428	-7.7891693	2.5711975
1493781844341	0.12402344	-10.350357	3.4313812
1493781844341	3.7239685	-12.556427	3.8982697
1493781844341	4.7317047	-12.564438	3.6520386
1493781844341	1.9593964	-11.228119	2.9086304
1493781844341	-1.0202637	-10.516815	1.8953705
1493781844341	-0.8018036	-10.696777	1.2344818
1493781844341	-1.2478485	-10.654297	0.31344604
1493781844341	-1.2535248	-10.4748535	0.8403473
1493781844341	-0.6044464	-9.804703	1.8460999
1493781844341	-0.735199	-9.208557	0.91908264
1493781844341	-0.4553833	-9.202332	0.69744873
1493781844341	1.1498413	-9.408554	1.4388733
1493781844341	1.696228	-9.320007	1.774826
1493781844341	1.4598236	-8.97908	0.88134766
1493781844341	1.1678467	-8.795319	0.31381226
1493781844341	0.5245819	-8.90802	0.37823486
1493781844341	-0.1088562	-8.993881	-0.17652893
1493781844341	-0.2001648	-9.501343	-0.8570709
1493781844341	1.2669983	-9.728546	0.18675232
1493781844341	1.1697845	-10.668243	-0.12928772
1493781844341	0.65034485	-11.884415	-1.2110138
1493781844341	0.15751648	-12.793823	-1.7383423
1493781844342	0.10595703	-12.827332	-2.4200745
1493781844342	0.4000244	-13.049393	-2.5779114
1493781844342	1.1300049	-13.770157	-1.9483337
1493781844342	-0.08772278	-13.791763	-1.822937
1493781844342	-1.3240814	-13.164307	-2.3574066
1493781844342	-4.3004913	-13.360382	-3.0596313
1493781844342	-5.339142	-12.679153	0.2129364
1493781844342	-6.233429	-11.735748	4.738205
1493781844342	-5.729309	-11.862076	4.295166
1493781844342	-2.2772675	-12.231705	1.7697601
1493781844342	0.59516907	-12.945862	-2.4094696
1493781844342	1.5133667	-12.635574	-3.1031494
1493781844342	0.4883423	-10.728668	-0.2700348
1493781844342	-0.021224976	-8.897217	1.8764191
1493781844342	-1.5410309	-7.1064453	2.829956
1493781844342	-3.2200317	-5.72789	2.7745972
1493781844343	-4.226822	-5.450241	1.6658173
1493781844343	-4.049652	-5.4241943	0.91526794
1493781844343	-2.964981	-5.2446594	0.31547546
1493781844343	-2.0463562	-4.5937347	0.5422363
1493781844343	-1.8128967	-3.7509918	0.8781738
1493781844343	-0.7889557	-3.2306519	0.7782135
1493781844343	0.040283203	-3.0334015	-0.022659302
1493781844343	0.75102234	-4.740265	-2.7572784
1493781844343	1.5441437	-9.693192	-8.679321
1493781844344	1.4675446	-16.169785	-15.077423
1493781844344	2.531479	-19.474823	-16.17041
1493781844344	2.619629	-15.427841	-11.002533
1493781844344	-0.5440674	-7.1035004	-5.1465607
1493781844344	-5.4724426	-3.8142853	-1.1552582
1493781844344	-9.18335	-10.637451	3.9567108
1493781844344	-6.128372	-16.753098	3.195755
1493781844344	-1.6755524	-16.646103	-2.3689728
1493781844344	-1.7341614	-8.324707	6.6016846
1493781844344	-4.7076416	-2.7086334	9.294968
1493781844344	-1.4580231	-6.253113	5.614334
1493781844351	2.8528748	-11.3971405	3.562317
1493781844351	3.1131897	-13.69252	3.1526947
1493781844351	3.3942719	-14.004669	1.1296844
1493781844351	1.7835846	-11.570404	-0.20988464
1493781844351	-0.9884186	-9.370148	0.0149383545
1493781844351	-2.3491669	-8.778244	0.6773224
1493781844351	-1.1425323	-9.11261	0.37872314
1493781844351	0.23843384	-9.4778595	-0.45178223
1493781844351	-0.23840332	-8.43634	0.059921265
1493781844351	-1.1951294	-8.256302	-0.3117218
1493781844351	-0.96702576	-7.8204346	0.38349915
1493781844351	0.6311493	-8.54924	0.84217834
1493781844351	0.755249	-9.060501	1.2008362
1493781844351	0.44763184	-8.588913	1.3219757
1493781844351	0.4657135	-8.575287	0.0872345
1493781844352	0.047958374	-9.355194	-0.3037262
1493781844352	-2.5608063	-11.751205	-1.2893982
1493781844352	-3.3300934	-13.289963	-2.2159119
1493781844352	-0.60424805	-12.761856	-1.4966888
1493781844352	0.9962158	-12.706802	-0.7779541
1493781844352	1.0840149	-12.033157	-1.6697083
1493781844352	2.0583801	-12.645233	-2.633255
1493781844352	3.7600555	-14.216858	-2.2661133
1493781844352	2.8293304	-15.609436	-2.158966
1493781844352	-0.359787	-14.5911255	-0.72247314
1493781844352	-3.3398438	-12.298828	2.4776917
1493781844352	-4.8572845	-10.488754	4.773651
1493781844352	-5.599182	-12.003403	4.1834717
1493781844352	-2.9779663	-13.350952	2.9037933
1493781844352	-0.40089417	-14.327362	-0.4534607
1493781844352	2.7040558	-13.530075	-0.9047699
1493781844352	3.6983795	-12.769882	0.77731323
1493781844352	2.1253357	-10.616623	2.1697693
1493781844352	-0.13668823	-9.152863	2.827713
1493781844352	-2.585022	-7.6964874	2.6456451
1493781844352	-2.5919647	-6.855316	1.9357758
1493781844353	-2.318985	-5.8047943	1.6201019
1493781844353	-2.0529633	-5.1015015	1.5793457
1493781844353	-2.3682556	-4.3458557	2.0974274
1493781844353	-2.786621	-3.1109772	2.650467
1493781844353	-2.4741974	-2.2408295	2.431549
1493781844353	-1.7612915	-2.6614227	1.1416626
1493781844353	-1.0654602	-4.8440094	-1.715622
1493781844353	-0.7029724	-8.51532	-5.8828278
1493781844353	-0.6615143	-13.448151	-11.0742035
1493781844353	0.93582153	-18.050842	-15.464294
1493781844353	2.526947	-17.825195	-11.045074
1493781844353	1.240509	-12.930038	-4.7668304
1493781844353	-0.2672882	-6.588928	-4.332962
1493781844353	-3.6687012	-6.044739	-5.570221
1493781844353	-7.039795	-13.207382	-0.6973877
1493781844353	-4.998764	-17.048203	2.7199707
1493781844353	-3.9713745	-12.199814	2.171585
1493781844353	-4.0539246	-4.7301483	4.313843
1493781844353	-1.949173	-4.5989532	8.372528
1493781844353	0.9906311	-10.695694	6.235382
1493781844353	2.3828125	-14.0117035	2.4776
1493781844353	2.9628143	-13.791748	2.5650635
1493781844353	2.435318	-13.142578	1.7503967
1493781844354	-0.4237213	-11.38858	-0.1482544
1493781844354	-2.2611694	-10.307022	-0.4124298
1493781844354	-3.004547	-9.489899	0.8687439
1493781844354	-2.119522	-8.610931	0.58496094
1493781844354	-0.49468994	-8.424133	0.58677673
1493781844354	0.6804657	-6.883072	-0.12335205
1493781844354	0.26409912	-7.3954315	0.7268677
1493781844354	-1.2849884	-7.912628	0.0068969727
1493781844354	-1.8031616	-7.9490967	0.6139984
1493781844354	-1.3040771	-7.400223	0.96395874
1493781844354	-0.97506714	-7.6795654	1.1066742
1493781844354	-0.2677765	-9.026703	1.4394073
1493781844354	-0.08328247	-9.918015	1.1382141
1493781844364	-0.61906433	-9.651901	-0.4676361
1493781844364	-0.5914612	-9.948807	-0.8261261
1493781844364	-0.4614563	-11.909973	-0.4244995
1493781844364	-0.30870056	-13.442291	-0.26139832
1493781844366	0.73410034	-13.288818	-0.9355774
1493781844366	2.3911285	-13.141922	-2.807434
1493781844367	4.8598633	-12.370987	-3.1987915
1493781844367	5.9382477	-12.393585	-2.787384
1493781844367	6.086609	-13.438583	-2.3643951
1493781844367	4.2295837	-14.687637	-1.970047
1493781844367	-1.0238953	-14.648727	-2.3084412
1493781844367	-3.7888947	-13.062408	-0.8868866
1493781844368	-5.131653	-11.235672	2.8123474
1493781844369	-6.508774	-11.332642	4.256317
1493781844369	-6.0527496	-14.470169	4.2630005
1493781844369	-4.7322083	-17.223785	2.9272003
1493781844369	-1.6908417	-15.337967	-0.2481842
1493781844369	2.518219	-13.088669	-2.104538
1493781844369	1.2308655	-11.115143	-0.8101349
1493781844369	0.56565857	-9.673737	1.1439667
1493781844369	-2.1521606	-8.138901	1.5421753
1493781844369	-3.0185852	-6.06427	1.0083313
1493781844369	-2.7439423	-5.2086487	1.6681671
1493781844369	-1.489151	-4.772339	2.3609467
1493781844369	-0.78108215	-4.760071	2.3684082
1493781844369	-0.97528076	-4.502182	2.6551666
1493781844369	-1.7521515	-3.631424	3.2878418
1493781844369	-2.2167053	-2.794571	2.9075623
1493781844369	-2.1547089	-2.491333	1.8860779
1493781844369	-1.20047	-3.6087646	0.32469177
1493781844370	-0.14274597	-7.479477	-3.8252258
1493781844370	-0.12644958	-15.006668	-12.077927
1493781844370	0.7393341	-19.474823	-18.435287
1493781844370	1.2205963	-18.682709	-12.601624
1493781844370	-0.31706238	-12.289917	-6.0969696
1493781844370	-1.5955353	-4.6318817	-4.254608
1493781844370	-4.029236	-8.27121	-2.5254364
1493781844370	-2.7432098	-13.279419	3.9375
1493781844370	-2.348404	-11.976486	1.8975983
1493781844370	-2.6198883	-8.048157	2.4541626
1493781844370	-4.0458527	-5.013336	7.8331757
1493781844370	-2.5300598	-8.031891	6.3629913
1493781844370	1.4765778	-11.750381	3.7701569
1493781844370	2.9441833	-12.460434	3.7356262
1493781844370	1.6350403	-11.602936	3.7522278
1493781844370	-0.35331726	-11.179092	1.3042145
1493781844371	-1.2201233	-10.3103485	0.5559082
1493781844371	-1.4261322	-9.670883	1.5276184
1493781844371	-1.3170013	-9.517319	1.3560486
1493781844371	-0.65859985	-9.407913	1.219162
1493781844371	-0.437912	-8.725327	0.5226593
1493781844371	0.028366089	-8.35762	0.5776367
1493781844371	1.0394287	-8.407227	0.20936584
1493781844371	1.3446198	-8.718796	0.09555054
1493781844371	0.97732544	-9.033676	0.23234558
1493781844371	0.7822876	-9.310852	-0.47502136
1493781844371	1.027359	-9.902313	0.0056610107
1493781844371	1.3174744	-9.782486	-0.1293335
1493781844371	0.9049225	-10.135315	-0.036331177
1493781844371	-0.20993042	-11.292206	-0.3935547
1493781844371	-0.37886047	-11.993271	-0.49702454
1493781844371	0.35403442	-12.914429	-1.1505432
1493781844371	0.29145813	-12.6315155	-2.1987152
1493781844372	-0.31552124	-11.960083	-3.8084412
1493781844372	0.5458679	-12.765457	-3.3560944
1493781844372	1.6043701	-14.646881	-3.2962036
1493781844372	1.4274902	-15.010101	-2.7175446
1493781844372	-0.7102661	-12.374924	2.014557
1493781844372	-3.8271332	-11.4384	4.6042175
1493781844372	-5.816452	-13.285736	5.243805
1493781844372	-5.790283	-15.088211	1.8971863
1493781844372	-2.3585358	-16.497818	-0.36943054
1493781844372	2.5531921	-14.951828	-0.83340454
1493781844372	1.7442627	-12.955399	-0.4657135
1493781844372	1.1517639	-10.301743	1.480133
1493781844373	0.10801697	-7.9618683	2.5013428
1493781844373	-1.4993439	-6.163513	2.1338043
1493781844373	-2.5377502	-4.5613403	2.1740112
1493781844373	-2.595993	-4.0833282	2.2396088
1493781844373	-3.120346	-3.7663422	2.3108978
1493781844374	-3.642929	-2.7717285	2.7207184
1493781844374	-3.0031433	-1.7353668	2.8719177
1493781844374	-1.6908875	-1.6925507	2.2716522
1493781844374	-0.9240265	-2.6516876	1.3022766
1493781844374	0.17736816	-5.513489	-1.5240326
1493781844374	0.16313171	-11.601257	-8.824554
1493781844374	0.16259766	-17.542175	-16.468185
1493781844375	2.3262634	-19.474823	-14.881271
1493781844375	2.3404694	-15.9023285	-6.5176086
1493781844375	0.27355957	-8.334747	-3.289154
1493781844375	-1.862854	-3.6578522	-4.8760223
1493781844375	-5.6015472	-8.479401	-3.2689514
1493781844375	-4.6049194	-14.126694	4.867569
1493781844375	-3.807846	-14.741211	1.046524
1493781844375	-1.5820618	-10.5522	1.7274475
1493781844375	-0.92085266	-4.8751526	7.3946075
1493781844375	-1.281601	-5.7111664	5.764038
1493781844375	1.0747375	-10.001022	4.204956
1493781844375	2.0737305	-12.502136	3.6420288
1493781844375	1.7583771	-12.458649	3.2165222
1493781844375	1.5742493	-11.868042	1.3985748
1493781844375	-0.58769226	-10.47879	0.6492615
1493781844376	-1.8296967	-9.446518	1.0190277
1493781844376	-1.691803	-9.169235	1.7736664
1493781844376	-1.544632	-8.860092	0.938324
1493781844376	-0.99453735	-8.752396	0.6532135
1493781844376	-0.63134766	-8.679626	0.8829346
1493781844376	0.30714417	-8.63916	1.0004272
1493781844376	1.032547	-8.645111	0.7250061
1493781844376	1.3126678	-9.10054	0.70773315
1493781844377	0.9687805	-9.696381	0.11164856
1493781844377	0.8591156	-9.95578	-0.3070984
1493781844377	0.81347656	-10.0221405	-2.025528
1493781844377	1.1667023	-10.336197	-1.9375916
1493781844377	0.34576416	-11.100769	-0.7448578
1493781844377	-0.45700073	-11.664154	-0.5710602
1493781844377	0.7195587	-12.5195465	-0.2570343
1493781844377	1.5220337	-12.538116	-0.9734802
1493781844377	0.50704956	-12.770981	-2.9452362
1493781844377	1.0838928	-12.222366	-3.2523804
1493781844377	1.872818	-13.85817	-2.3748474
1493781844377	2.0185394	-15.577667	-3.0358124
1493781844378	1.1599426	-13.562622	-0.8183136
1493781844378	-3.174408	-12.755646	1.7776794
1493781844378	-6.4369507	-12.094223	3.7525787
1493781844378	-7.5128174	-14.389023	4.3855286
1493781844378	-4.45372	-14.23938	1.4049683
1493781844378	-0.101257324	-13.85524	-1.4282837
1493781844378	3.6881409	-12.4826355	-0.60095215
1493781844378	2.4594421	-10.635315	-0.0012359619
1493781844378	0.29164124	-9.183792	2.6785736
1493781844378	-1.5203857	-7.612259	3.330658
1493781844378	-1.6879578	-6.9247284	2.9175262
1493781844378	-2.596054	-5.9456024	2.0510712
1493781844378	-2.359314	-5.026062	1.4238892
1493781844378	-2.1621246	-4.5449524	1.0885925
1493781844378	-2.3214874	-3.8528137	1.5806427
1493781844378	-2.680832	-2.7510529	2.3881073
1493781844378	-2.6077728	-2.0835114	2.170807
1493781844379	-2.2418976	-2.2460938	1.2219086
1493781844379	-1.3800049	-4.5764313	-1.1860809
1493781844379	-0.94244385	-10.182541	-7.3032684
1493781844379	-1.3486481	-16.557388	-15.707184
1493781844379	0.058425903	-19.474823	-15.344986
1493781844379	1.2701721	-14.454803	-7.7984924
1493781844379	0.489151	-3.3259277	-3.8516388
1493781844379	-3.7047882	-0.81993103	-2.0228271
1493781844379	-6.247055	-10.428528	3.2796173
1493781844379	-3.4030151	-17.385132	3.4199982
1493781844379	0.52760315	-16.25241	-2.4275055
1493781844379	0.2303772	-7.6061554	4.212311
1493781844379	-4.9256897	-2.9216614	6.4682007
1493781844379	-2.5982056	-7.353531	4.765991
1493781844379	1.9944916	-11.559067	4.6682434
1493781844379	2.6245728	-12.98555	4.1192017
1493781844380	1.2295532	-12.897385	1.8263245
1493781844380	-0.823761	-10.993637	0.20225525
1493781844380	-2.100357	-9.503311	0.42648315
1493781844380	-2.218216	-9.426743	1.5373535
1493781844380	-1.3607635	-9.16507	0.94270325
1493781844380	-0.79397583	-8.734222	0.23548889
1493781844380	-0.19363403	-8.541855	0.3015442
1493781844380	0.34342957	-8.937866	0.6386566
1493781844380	0.7661896	-8.978088	0.6941681
1493781844380	1.228363	-8.840164	0.4064331
1493781844380	1.0393219	-9.2229	-0.2027893
1493781844380	0.9380646	-9.608459	0.27534485
1493781844380	0.75717163	-9.755753	0.107925415
1493781844380	0.8965149	-9.689346	-1.1798553
1493781844380	1.2323303	-10.208191	-2.0831146
1493781844380	0.718338	-10.869446	-1.9839935
1493781844380	0.7301941	-11.160507	-0.7563782
1493781844381	1.256012	-12.105621	-0.9516907
1493781844381	0.97561646	-12.837936	-2.0967407
1493781844381	0.4313507	-14.652283	-2.8539734
1493781844381	0.5377197	-15.907074	-3.8826904
1493781844381	0.1490326	-14.818924	-2.8407288
1493781844381	-2.6434326	-13.21077	0.75354004
1493781844381	-6.0337524	-12.236328	2.9931946
1493781844381	-7.842758	-13.662399	4.623993
1493781844381	-6.270981	-14.5503235	1.9030914
1493781844381	-2.6476288	-14.510315	-0.68452454
1493781844381	2.9345245	-12.802322	-1.5560303
1493781844381	3.7418823	-11.857544	-1.2051392
1493781844381	1.455368	-10.035492	0.0843811
1493781844381	-0.98835754	-7.599884	1.8826904
1493781844381	-1.9904327	-6.667389	2.4625092
1493781844381	-2.6788483	-5.90036	2.491211
1493781844382	-2.8806763	-5.2068787	1.9732666
1493781844382	-2.4694977	-4.705429	1.1687164
1493781844382	-2.4361877	-4.3069916	0.88397217
1493781844382	-2.653061	-3.759018	1.6777496
1493781844382	-2.384018	-3.131836	2.3559723
1493781844382	-1.4487	-2.9475403	2.008438
1493781844382	-0.80374146	-3.4076996	0.42286682
1493781844382	-0.056137085	-5.5447083	-2.7014313
1493781844382	0.102386475	-10.93103	-9.7760315
1493781844382	-0.90115356	-16.652023	-15.808701
1493781844382	-0.655365	-18.587967	-13.858978
1493781844382	0.48742676	-14.935074	-8.101273
1493781844382	0.5200043	-9.363876	-4.521759
1493781844382	-1.262497	-5.534378	-4.0139313
1493781844382	-5.9664917	-9.20015	-1.7844391
1493781844382	-8.712982	-16.584427	1.6472015
1493781844382	-5.846985	-16.041397	-1.9769592
1493781844383	-1.2362366	-8.944855	2.625183
1493781844383	-1.3785858	-5.705414	6.1101227
1493781844383	-0.56954956	-8.635864	5.9164124
1493781844383	0.67471313	-10.601532	4.045349
1493781844383	0.5648651	-10.505981	2.7634735
1493781844383	0.84947205	-11.544586	3.475418
1493781844383	0.41134644	-12.184067	2.9338684
1493781844383	-0.19772339	-11.824081	1.6517944
1493781844383	-1.3457336	-10.317276	0.86027527
1493781844383	-1.541748	-9.345734	1.037674
1493781844383	-0.57206726	-9.185028	1.3857117
1493781844383	0.33546448	-9.522751	0.7979584
1493781844383	1.2685242	-9.401215	0.6220398
1493781844383	1.6793671	-9.079819	0.7458954
1493781844383	1.22229	-8.805939	0.43495178
1493781844383	0.5792084	-8.754868	1.5700836
1493781844383	0.7159271	-9.430405	1.2135925
1493781844383	0.9045868	-9.878662	0.84931946
1493781844384	-0.009765625	-9.193573	-0.40312195
1493781844384	-1.2116852	-9.377914	0.24510193
1493781844384	0.8779144	-9.992569	1.9083252
1493781844384	1.6720734	-11.318878	0.45965576
1493781844384	1.143158	-11.574051	-0.38598633
1493781844384	0.42756653	-10.591812	0.3804474
1493781844384	0.3262787	-10.11438	0.7865143
1493781844384	1.812973	-10.132065	-0.107940674
1493781844384	2.4048767	-10.776688	-0.338089
1493781844384	-0.8844147	-10.762009	-1.2606964
1493781844384	-3.758789	-11.227631	-0.45948792
1493781844384	-5.8253784	-11.176346	-0.02218628
1493781844384	-7.390686	-10.503723	1.8134003
1493781844384	-7.3743286	-10.460007	4.5716248
1493781844385	-8.582108	-10.871765	3.5513153
1493781844385	-8.699661	-10.788681	2.675354
1493781844386	-7.975815	-10.450348	2.273529
1493781844386	-6.2677917	-10.687012	1.827591
1493781844386	-3.6423492	-10.324371	2.0493317
1493781844386	-1.5991211	-9.517731	2.231491
1493781844387	-1.334549	-8.957825	2.0397644
1493781844387	-2.571762	-7.8217316	2.4854279
1493781844387	-4.0410767	-6.6166077	2.4539185
1493781844387	-4.841385	-6.2405396	2.7602692
1493781844387	-5.055969	-6.385788	2.690216
1493781844387	-4.3875275	-7.2592773	1.4878693
1493781844387	-2.7496796	-7.837158	0.5596161
1493781844387	-1.2562256	-8.666229	0.50878906
1493781844387	-0.06893921	-9.52095	0.7663574
1493781844387	0.55444336	-9.429932	-0.2025299
1493781844387	-0.1224823	-9.07547	-2.35672
1493781844387	-0.2243042	-9.264618	-3.4320831
1493781844387	0.9075928	-9.252792	-1.9728699
1493781844387	1.4451141	-8.931595	-1.4026337
1493781844387	0.61268616	-8.6515045	-2.4248352
1493781844387	-0.65444946	-8.634399	-3.2774353
1493781844387	-1.0582428	-9.010925	-2.937271
1493781844388	-0.70573425	-9.2721405	-1.0474396
1493781844388	-0.774765	-10.273804	1.006012
1493781844388	-1.9888	-11.629105	1.8675385
1493781844388	-3.0666962	-11.775299	1.8253479
1493781844388	-3.5780792	-11.618164	1.4038696
1493781844388	-3.1806946	-11.460342	0.61839294
1493781844388	-2.2292175	-9.447861	1.1966705
1493781844388	-1.2920074	-7.560028	3.8476715
1493781844388	0.6496582	-8.913193	5.0420685
1493781844388	4.0253143	-11.807587	4.0345154
1493781844388	5.7918243	-12.873718	2.6166687
1493781844388	4.410965	-12.038483	2.0621796
1493781844388	1.5434723	-10.908386	2.069992
1493781844388	0.16967773	-10.858231	1.5561829
1493781844388	-0.39089966	-11.0759735	0.93211365
1493781844388	-0.15074158	-10.713852	-0.28970337
1493781844388	-0.45213318	-9.681549	-0.28399658
1493781844388	0.2159729	-9.724808	-0.47225952
1493781844389	0.5869293	-9.638382	0.36784363
1493781844389	0.5310364	-8.9049225	1.8227081
1493781844389	0.29278564	-8.682144	2.0783691
1493781844389	0.06852722	-8.652237	2.0862885
1493781844389	-0.5789032	-8.628586	1.4026642
1493781844389	0.3954773	-8.967148	1.1661377
1493781844389	-0.49487305	-9.109253	-0.07853699
1493781844389	-0.7179413	-9.061539	0.25672913
1493781844389	-0.55937195	-9.675568	0.5901642
1493781844389	-0.7362976	-11.062988	0.6278839
1493781844389	-0.42974854	-12.236053	0.11546326
1493781844389	0.415802	-12.233337	-0.059020996
1493781844389	0.6228485	-11.322891	-0.5614319
1493781844389	-0.39660645	-11.154785	-1.3452759
1493781844389	-0.73065186	-11.696625	-2.273468
1493781844389	0.7881775	-12.854141	-2.7154999
1493781844389	1.6485443	-13.773041	-1.6761932
1493781844390	0.10684204	-13.884064	-2.5470428
1493781844390	-1.1627197	-12.737457	-2.147583
1493781844390	-3.4475403	-11.944458	-0.015090942
1493781844390	-4.7000732	-11.176956	3.6427002
1493781844390	-6.207138	-11.879395	5.7039337
1493781844390	-5.241394	-13.022751	3.9731903
1493781844390	-1.8631439	-13.770172	0.58232117
1493781844390	0.0736084	-13.658813	-2.6355438
1493781844390	1.2557068	-12.928772	-1.8359375
1493781844390	0.54681396	-11.364014	0.0056915283
1493781844390	0.19755554	-9.15741	1.5594025
1493781844390	-1.0528717	-7.539688	2.0835724
1493781844390	-2.803238	-6.3560486	1.3355255
1493781844390	-3.2443085	-5.5355835	0.4697113
1493781844390	-2.772293	-4.4815826	0.16563416
1493781844390	-2.404419	-3.508728	0.7836609
1493781844394	-2.5169373	-2.8804321	2.0161896
1493781844394	-1.825882	-3.062622	2.9241943
1493781844394	-0.8223572	-3.377243	2.6578522
1493781844394	-0.34500122	-3.4358826	0.71899414
1493781844394	0.69789124	-5.4843597	-3.4303436
1493781844394	1.8492584	-9.920746	-8.978714
1493781844394	2.8210144	-14.882538	-13.995743
1493781844394	3.9102783	-18.41919	-14.761063
1493781844394	2.0373993	-17.39215	-9.962357
1493781844395	-0.65641785	-11.817169	-7.4053802
1493781844395	-2.2527008	-5.0593414	-5.0572968
1493781844395	-5.685547	-5.493393	-1.4683075
1493781844395	-6.2206726	-12.2901	1.8570404
1493781844395	-3.052887	-15.531967	3.1289673
1493781844395	-1.0457764	-14.212387	-5.753174
1493781844395	-2.4679565	-5.908737	2.9337158
1493781844395	-7.2035065	-1.3509979	6.6427155
1493781844395	-3.9408264	-6.664398	4.8677216
1493781844395	2.4792633	-12.963211	3.9144287
1493781844395	4.34079	-14.005615	3.8573914
1493781844395	2.5090027	-12.229828	2.1908417
1493781844395	0.8063202	-10.507477	0.5300293
1493781844395	-0.8204498	-9.5338745	1.1774292
1493781844395	-2.2487488	-10.144028	0.79512024
1493781844395	-1.8945923	-10.167587	0.19215393
1493781844395	-0.95669556	-9.877335	0.11895752
1493781844395	-1.0293121	-9.106033	0.20968628
1493781844395	-0.79678345	-8.281128	0.60891724
1493781844395	-0.1879425	-8.0863495	1.1882782
1493781844395	0.48231506	-8.874222	1.6753082
1493781844395	0.9980011	-9.562561	0.37783813
1493781844395	1.6775665	-9.284592	0.99261475
1493781844395	0.9823761	-8.628662	0.6338043
1493781844395	0.63301086	-8.231873	-1.600769
1493781844395	1.8112183	-9.138412	-0.26342773
1493781844395	0.95318604	-11.159851	1.1325684
1493781844395	-0.035720825	-12.199005	-0.044708252
1493781844395	-0.37957764	-11.97435	-1.6418304
1493781844395	-0.0206604	-11.8350525	-1.7519379
1493781844395	-0.6297455	-11.836319	-2.6439514
1493781844395	-0.33236694	-12.870071	-4.512024
1493781844395	1.5119781	-15.362457	-3.952011
1493781844395	2.1664124	-15.450653	-4.0755463
1493781844395	1.8511505	-12.2500305	-0.10357666
1493781844395	-1.2222748	-11.897858	3.2843018
1493781844396	-2.6015015	-13.375076	5.391617
1493781844396	-2.7213593	-16.405212	3.0602722
1493781844396	-1.082901	-17.865112	0.9524994
1493781844396	0.037124634	-17.13443	-1.1825409
1493781844396	-0.12124634	-14.828491	-0.3098755
1493781844396	-0.42214966	-11.261581	1.8412018
1493781844396	-1.8421173	-8.789825	3.6688538
1493781844396	-2.5501556	-6.787552	3.2479553
1493781844396	-3.7012787	-4.8348846	1.9962921
1493781844396	-3.8118134	-3.6042023	1.5151367
1493781844396	-2.9386902	-3.5145874	1.3617859
1493781844396	-3.340454	-3.3212585	1.9311218
1493781844396	-3.803772	-2.4485474	2.7809906
1493781844396	-3.6120148	-2.1960602	2.7575989
1493781844396	-3.6181946	-2.4468079	2.1516876
1493781844396	-2.3160095	-3.6678772	0.5079956
1493781844396	0.952652	-7.752411	-3.7833405
1493781844396	3.9058685	-15.377289	-12.330643
1493781844396	3.6354523	-19.474823	-16.192642
1493781844396	0.87950134	-16.764023	-11.883209
1493781844396	-0.35253906	-11.313141	-6.1002197
1493781844396	-0.52371216	-6.6799774	-3.6440277
1493781844396	-3.547943	-8.372696	-3.681656
1493781844396	-4.429474	-13.651993	-0.8508606
1493781844396	-3.5029755	-10.905594	2.951767
1493781844396	-5.6062775	-6.375305	-2.0671692
1493781844396	-1.9319	-6.9994354	0.4099579
1493781844396	2.3530273	-10.351212	8.11528
1493781844396	0.69802856	-12.594849	4.913864
1493781844396	0.6857605	-11.343277	2.254593
1493781844396	2.3958282	-9.382935	3.7353668
1493781844396	2.3373108	-10.511749	2.0434723
1493781844396	1.5373993	-11.878189	2.2613525
1493781844396	-0.57421875	-11.32811	1.3402557
1493781844396	-2.7009583	-9.869064	0.8503876
1493781844396	-3.0699615	-8.915009	0.052200317
1493781844396	-2.9560852	-8.662018	0.29608154
1493781844396	-1.2348022	-8.312134	0.3949585
1493781844396	-0.08795166	-8.056625	0.37445068
1493781844396	0.22764587	-8.667252	1.5910187
1493781844396	0.66845703	-8.849701	1.1053314
1493781844397	0.8425293	-9.685486	0.56599426
1493781844397	1.0592651	-10.053055	0.15301514
1493781844397	1.4911652	-10.043243	-1.3567352
1493781844397	2.309723	-9.395218	-2.034607
1493781844397	2.6919556	-9.866486	-0.8287201
1493781844397	0.6486206	-11.7146	0.51179504
1493781844397	-0.60717773	-12.313522	-0.4573059
1493781844397	0.09083557	-12.331268	-1.2680664
1493781844397	0.049987793	-11.915634	-2.0170593
1493781844397	-0.92303467	-12.06131	-3.2713318
1493781844397	-0.5218353	-12.649933	-4.395172
1493781844397	2.1278229	-14.783997	-3.3466187
1493781844397	2.5109253	-15.971771	-3.4066467
1493781844397	1.460968	-12.973282	0.7172241
1493781844397	-1.4375	-12.016617	3.3495026
1493781844397	-3.2055817	-12.646347	5.116806
1493781844397	-4.209381	-14.45433	3.0999298
1493781844397	-3.590622	-15.897842	0.513443
1493781844397	-0.86756897	-16.037262	-1.013977
1493781844397	3.2606506	-13.899307	0.018295288
1493781844397	1.5100403	-11.054657	1.2033691
1493781844397	-0.13644409	-8.435745	2.8512726
1493781844397	-1.0747833	-7.5161285	3.9623718
1493781844397	-2.0469818	-6.1085815	2.931778
1493781844397	-2.1613922	-5.1272736	2.6232758
1493781844397	-2.4083862	-4.3406982	2.1577759
1493781844397	-2.8246307	-3.632309	2.209259
1493781844397	-3.2652283	-2.3246155	2.9250488
1493781844398	-3.0191956	-1.4616852	2.9614716
1493781844398	-2.1127777	-1.9187012	2.2189178
1493781844398	-1.0306702	-4.266739	0.04612732
1493781844398	-0.57095337	-8.235031	-4.0125427
1493781844398	-1.9916229	-14.945648	-12.7269745
1493781844398	-0.32963562	-19.297653	-19.035767
1493781844398	2.1564941	-17.939636	-10.380615
1493781844398	1.2466278	-10.247726	-2.570572
1493781844398	-0.5153961	-1.9722748	-3.379425
1493781844398	-5.5605774	-5.199295	-4.120697
1493781844398	-7.3338165	-14.223267	1.2635498
1493781844398	-3.4653778	-17.926025	0.5307617
1493781844398	1.8458557	-12.704071	3.902069
1493781844398	-1.305893	-4.9998474	5.814026
1493781844398	-3.280182	-3.8761444	4.9719696
1493781844398	0.35054016	-8.363068	4.369812
1493781844398	3.0790253	-11.914139	2.538208
1493781844398	3.6177673	-13.249344	2.3163757
1493781844398	2.040619	-12.655258	0.7462311
1493781844398	-1.2378693	-9.915588	0.21871948
1493781844398	-2.631424	-8.775345	0.5836792
1493781844398	-2.5718842	-8.714401	-0.3162079
1493781844398	-2.2305603	-8.7174225	0.48510742
1493781844398	-0.901001	-8.63356	0.47764587
1493781844398	-0.2347107	-8.825531	0.50242615
1493781844398	-0.38183594	-8.800003	0.5015869
1493781844398	-0.19387817	-8.920303	0.90971375
1493781844398	0.24243164	-9.596756	1.1364594
1493781844398	0.7110596	-10.456055	-0.10139465
1493781844398	1.6711731	-10.493927	-1.929779
1493781844398	2.028839	-10.335876	-2.659439
1493781844398	0.46627808	-11.476776	-1.8583069
1493781844398	-1.3587341	-11.519775	-0.4859314
1493781844399	-0.7046814	-11.390839	-1.4035339
1493781844399	1.3612518	-11.482269	-2.100937
1493781844399	1.5117493	-11.730148	-2.9792786
1493781844399	1.1716614	-13.21489	-2.7039185
1493781844399	0.48875427	-14.118835	-2.749466
1493781844399	0.16627502	-13.106415	-2.2662506
1493781844399	-1.6405029	-12.59668	-0.5884094
1493781844399	-2.8968658	-12.506195	3.9541168
1493781844399	-4.9889526	-13.613327	5.5209656
1493781844399	-6.7894745	-14.895859	-0.045333862
1493781844399	-3.792389	-15.679535	-1.7048645
1493781844399	2.2263794	-14.706177	-1.0152588
1493781844399	2.8062286	-12.413269	-1.2913513
1493781844399	0.12336731	-9.199173	0.43772888
1493781844399	-0.3718567	-6.7353516	1.0748138
1493781844399	-1.8223114	-5.4546356	2.193634
1493781844399	-3.6795654	-4.305008	2.6187592
1493781844399	-4.111252	-3.0641632	2.4100647
1493781844399	-3.7659302	-2.6005402	1.78125
1493781844399	-3.2271423	-2.6710205	1.7125854
1493781844399	-3.1109467	-2.8208008	2.1811829
1493781844399	-2.5725098	-3.7640991	2.0112
1493781844399	-0.88835144	-6.19368	0.2677765
1493781844399	1.7590942	-10.6147	-4.9591217
1493781844399	2.0182953	-16.269608	-13.8289795
1493781844399	-1.2403564	-18.757019	-17.664566
1493781844399	-2.0393524	-14.719116	-10.293884
1493781844399	-1.1909485	-8.250183	-3.387146
1493781844399	-2.825714	-5.9978333	1.0471344
1493781844399	-4.4471283	-9.766312	2.0672913
1493781844399	-4.113083	-12.779449	-3.0175018
1493781844399	1.0957947	-11.990921	-1.8272858
1493781844399	3.129303	-9.058014	5.8368073
1493781844400	-2.7527008	-8.467712	2.8346863
1493781844400	-3.980667	-9.234985	1.5225525
1493781844400	-0.13780212	-9.890213	3.2085876
1493781844400	1.0151672	-11.237305	2.7678833
1493781844400	0.54060364	-11.706665	2.1031494
1493781844400	-0.45692444	-11.337845	1.345398
1493781844400	-0.89904785	-10.61145	1.1747131
1493781844400	-0.8648224	-9.873398	0.87506104
1493781844400	-0.4671631	-9.221649	0.6814728
1493781844400	0.45391846	-8.930893	0.24601746
1493781844400	0.9325409	-9.035034	0.38963318
1493781844400	0.44856262	-9.394943	0.20085144
1493781844401	-0.04676819	-8.754074	0.008544922
1493781844401	-0.4318695	-8.550873	-0.40641785
1493781844401	-0.7167511	-8.781296	-0.2524109
1493781844401	-0.7576599	-8.94696	0.028274536
1493781844401	-0.25428772	-9.031631	0.5460968
1493781844401	-0.31892395	-9.404663	0.5746765
1493781844401	0.29548645	-10.271912	0.45469666
1493781844401	0.9333191	-11.360489	-0.39437866
1493781844401	1.0217133	-12.468552	-1.4085236
1493781844401	1.0279388	-12.654312	-2.0683746
1493781844401	1.9985046	-12.245087	-3.4721527
1493781844401	3.3582458	-12.249634	-4.6769257
1493781844401	4.719696	-13.562378	-4.109482
1493781844401	3.5928955	-14.739822	-3.1876526
1493781844401	-1.3631287	-13.702255	-1.5538788
1493781844401	-5.21167	-12.608246	-1.2334137
1493781844401	-5.2293396	-12.887009	1.3135529
1493781844401	-6.285797	-16.248322	2.3207703
1493781844401	-6.705841	-17.143951	4.4388123
1493781844401	-5.9306335	-14.51265	4.6510468
1493781844401	-1.0876007	-12.833649	-3.6199646
1493781844401	3.2491302	-11.895035	-4.3898926
1493781844401	-0.5068054	-10.672073	0.6777954
1493781844401	-4.339096	-7.397415	2.4644928
1493781844401	-3.260788	-6.70047	0.6036377
1493781844401	-1.5656586	-6.7026215	0.087249756
1493781844401	0.09373474	-5.980057	1.0070496
1493781844401	0.36590576	-5.499176	1.3868408
1493781844401	-0.97940063	-5.0278625	1.3704987
1493781844401	-2.9556274	-4.1183167	1.688736
1493781844401	-3.6988678	-3.4734192	2.0551758
1493781844401	-2.8431244	-3.027008	2.2393646
1493781844401	-1.3570862	-2.6674957	1.5928192
1493781844401	-1.2417603	-2.5827332	0.25743103
1493781844401	-1.046875	-3.440918	-2.364746
1493781844401	-0.19169617	-7.277954	-7.134552
1493781844401	-0.1582489	-14.61734	-13.505707
1493781844401	-0.06829834	-19.474823	-16.927078
1493781844401	0.45262146	-17.909744	-12.375092
1493781844402	0.81300354	-9.564392	-5.7781982
1493781844402	-0.57958984	-0.69950867	-3.6306458
1493781844402	-3.4661713	-5.10347	0.33241272
1493781844402	-4.0026245	-13.514938	8.208939
1493781844402	-3.068756	-16.371231	-1.1430817
1493781844402	1.0307617	-12.12616	-1.4284058
1493781844402	-2.0753784	-5.2084656	7.406357
1493781844402	-4.493164	-4.792145	6.1075287
1493781844402	0.43592834	-9.14061	3.9974518
1493781844402	3.521576	-11.94371	4.379181
1493781844402	2.4942474	-12.785645	2.9331055
1493781844402	1.3242798	-12.490082	0.99871826
1493781844402	-0.49084473	-10.875351	0.27183533
1493781844402	-1.6457367	-9.177765	0.8152466
1493781844402	-1.1595459	-8.785492	1.8776093
1493781844402	0.05366516	-8.566025	1.4103088
1493781844402	0.5688629	-8.488617	1.0244904
1493781844402	-0.21757507	-8.62735	1.3265991
1493781844402	0.17218018	-8.718079	0.8071289
1493781844402	0.8326416	-8.814972	0.38459778
1493781844402	1.2164612	-9.305084	0.21205139
1493781844402	0.7610626	-9.832367	0.25097656
1493781844402	0.7839203	-10.19986	-1.3436584
1493781844402	1.8990173	-10.134445	-1.2817993
1493781844402	1.3919678	-10.648544	-0.46221924
1493781844402	-0.0030212402	-11.186615	-0.40983582
1493781844402	0.7355499	-11.975723	0.008972168
1493781844413	1.1575623	-12.526123	-0.93107605
1493781844413	0.07167053	-12.552277	-2.4086914
1493781844413	-0.94047546	-12.595032	-3.744339
1493781844413	0.59757996	-12.877487	-1.7557831
1493781844413	0.4340515	-14.59108	-4.080719
1493781844413	0.4962616	-13.589325	-2.8173218
1493781844413	-3.1649017	-12.674469	0.7423096
1493781844413	-5.0092316	-12.770126	3.85878
1493781844413	-5.863327	-13.981094	5.529312
1493781844413	-5.5188293	-14.651642	1.7714539
1493781844413	-3.7739716	-15.394882	-0.5361328
1493781844414	1.6195679	-13.257004	-1.2888336
1493781844414	3.6022186	-12.383087	-1.4320374
1493781844414	1.3845367	-9.163559	0.5106659
1493781844414	0.12413025	-6.582016	2.1324768
1493781844414	-1.306366	-5.6112213	3.49263
1493781844414	-2.6803284	-4.949539	3.1083832
1493781844414	-2.9842682	-4.1576233	1.8712463
1493781844414	-2.6320496	-3.5270386	1.5539703
1493781844414	-2.4446564	-3.250473	1.5477448
1493781844414	-2.7589264	-2.8104095	2.0873108
1493781844414	-2.1027222	-2.776886	2.2555542
1493781844414	-1.0295715	-3.1582642	1.5117035
1493781844414	-1.0487518	-4.0792236	-0.3891449
1493781844414	-0.3673706	-8.661377	-7.3302155
1493781844414	0.7411804	-15.99382	-15.979187
1493781844414	0.19581604	-19.474823	-16.505157
1493781844414	-0.37625122	-16.551712	-10.782196
1493781844414	-0.2216034	-8.886093	-5.0961456
1493781844414	-3.4645538	-7.5174713	-3.0160217
1493781844414	-7.0626984	-14.239365	-0.043060303
1493781844414	-3.9342804	-15.1584015	1.9892273
1493781844414	0.13070679	-10.43866	0.31443787
1493781844414	-1.1195679	-4.4976044	4.9414825
1493781844414	-7.1616516	-3.2128754	6.708008
1493781844414	-5.041046	-7.8399506	4.34433
1493781844414	1.908783	-12.213181	4.478241
1493781844414	4.0009766	-13.458954	3.756836
1493781844414	1.9770508	-12.622726	2.7613068
1493781844414	-0.24476624	-10.735352	1.5793457
1493781844414	-0.8917999	-9.638107	0.49960327
1493781844414	-1.3995514	-9.512497	0.2885437
1493781844415	-1.3404846	-9.300705	0.5134735
1493781844415	-0.37150574	-9.226761	0.6519165
1493781844415	0.57884216	-9.040573	0.54100037
1493781844415	1.0000916	-9.075226	0.8366089
1493781844415	0.9872284	-8.992111	0.97647095
1493781844415	0.8785553	-8.911224	1.0909729
1493781844415	0.8585968	-9.451752	0.8387604
1493781844415	0.6324158	-9.777634	0.27383423
1493781844415	0.19216919	-9.284241	-1.2066956
1493781844415	-1.084137	-8.791229	0.41419983
1493781844415	-1.195694	-9.317047	0.5244751
1493781844415	-0.23262024	-9.871231	0.77090454
1493781844415	1.3735352	-10.464981	0.5038452
1493781844415	2.5195618	-10.3089905	0.5306854
1493781844415	2.3517456	-9.317322	0.6072235
1493781844415	2.3186188	-9.603653	0.24365234
1493781844415	0.2915802	-10.673508	-0.5005493
1493781844415	-4.0054016	-10.9522705	1.1863098
1493781844415	-6.847275	-11.0737	0.39205933
1493781844415	-7.7826385	-11.495392	2.1471405
1493781844415	-5.6242523	-12.1202545	5.045532
1493781844415	-4.7139893	-11.247192	5.152832
1493781844415	-5.461792	-10.358673	3.7574768
1493781844415	-6.3708496	-9.705902	2.902481
1493781844415	-6.3116913	-9.502228	3.0754395
1493781844415	-4.961975	-9.254364	3.5198364
1493781844415	-4.410614	-8.630905	3.6958313
1493781844415	-5.083832	-8.388168	3.4186707
1493781844415	-6.2687683	-8.45874	2.7614594
1493781844415	-5.7081757	-8.613739	3.1527557
1493781844415	-4.3067474	-8.53743	3.4868774
1493781844415	-3.7988129	-8.32782	3.5412292
1493781844415	-3.4478302	-8.422424	3.301712
1493781844415	-3.2379456	-8.78656	2.3457947
1493781844415	-3.9223633	-9.006226	1.989151
1493781844415	-3.9944458	-9.395493	1.0541077
1493781844415	-3.1536255	-9.72702	0.7507019
1493781844418	-3.3573456	-9.51622	1.2710571
1493781844418	-3.850937	-9.123611	1.0882263
1493781844418	-3.3694763	-8.774155	0.3816223
1493781844421	-3.1970825	-8.792786	-0.115600586
1493781844421	-2.6723022	-8.529083	-0.061798096
1493781844421	-2.520111	-8.211472	-0.20265198
1493781844421	-1.8577728	-7.987137	-0.6524811
1493781844421	-1.077652	-8.052261	-1.5756073
1493781844421	-0.47865295	-8.218231	-2.2539825
1493781844421	-1.3413239	-8.433182	-2.9479523
1493781844421	-2.399063	-8.327652	-3.1417694
1493781844421	-2.505844	-7.956421	-3.213974
1493781844421	-1.9554443	-7.9129944	-3.7640686
1493781844421	-0.4759674	-7.9831696	-3.8861694
1493781844421	0.04121399	-8.166092	-4.4440002
1493781844421	-0.6628723	-7.6917114	-4.7440643
1493781844421	-2.1524506	-7.71579	-5.3339233
1493781844421	-3.1688995	-7.9873505	-5.90065
1493781844421	-3.4784088	-7.171936	-5.7559967
1493781844421	-3.6165771	-6.076172	-4.4762115
1493781844421	-3.282257	-6.658142	-1.9132385
1493781844421	-4.7608643	-13.342789	-2.0046692
1493781844421	-3.2126007	-18.492111	-4.6075134
1493781844421	-1.9839172	-16.097855	-4.508957
1493781844421	-2.360138	-6.570648	3.9144135
1493781844421	-6.702194	-0.7073517	2.9885406
1493781844421	-4.1818695	-2.9802399	0.26568604
1493781844421	1.9037933	-9.858276	4.420761
1493781844421	4.063446	-15.583282	3.448944
1493781844421	3.6468353	-15.222534	1.0908508
1493781844422	1.9764099	-11.139679	0.046051025
1493781844422	-0.3733673	-8.339935	0.41784668
1493781844422	-1.2023315	-8.076004	1.4334717
1493781844422	0.7762451	-9.965912	1.2654572
1493781844422	0.3787079	-10.774338	1.4034576
1493781844422	-0.247818	-10.08461	0.74256897
1493781844422	-1.0392609	-9.697983	-0.026657104
1493781844422	-1.1669617	-9.70697	0.44476318
1493781844422	-0.5460663	-9.70166	-0.29260254
1493781844422	-0.016403198	-10.097488	0.5838165
1493781844422	0.59280396	-10.134842	1.8736877
1493781844422	1.4208069	-10.257004	1.45961
1493781844422	1.335556	-10.5499115	0.9577637
1493781844422	1.2510223	-10.666122	0.533371
1493781844422	0.9773865	-10.48378	0.60258484
1493781844422	0.4397583	-10.580109	-1.0933838
1493781844422	0.5481415	-11.013062	-1.4448853
1493781844422	0.5962219	-11.767914	-0.9606476
1493781844422	-0.077194214	-12.407028	-0.9434662
1493781844422	-0.47322083	-12.403366	-1.4418945
1493781844422	-0.2947235	-11.895004	-2.032608
1493781844422	-0.12806702	-11.424545	-2.6837463
1493781844422	0.34124756	-11.046158	-3.048584
1493781844422	0.7742615	-12.077072	-2.6300812
1493781844422	0.6494751	-13.969086	-2.3944092
1493781844422	0.3470459	-13.772827	-0.7873688
1493781844422	-1.9750671	-12.298752	3.0800781
1493781844422	-5.4211273	-11.554718	5.9327087
1493781844422	-5.8344727	-12.035355	4.761627
1493781844422	-4.1703796	-12.665039	1.6449738
1493781844422	-1.9861298	-13.368668	-1.4193115
1493781844422	1.2987518	-12.996735	-2.3007813
1493781844422	2.6176147	-11.524963	-0.967865
1493781844423	2.1233215	-9.139145	0.9984131
1493781844423	0.8694	-7.8964996	1.6331024
1493781844423	-0.8247986	-6.595749	1.431488
1493781844423	-2.2110443	-5.565796	1.6437378
1493781844423	-2.5307007	-5.207901	1.5015717
1493781844423	-2.4726868	-4.56485	1.3666382
1493781844423	-2.5321045	-3.4862518	1.4706726
1493781844423	-1.7588959	-2.9302826	1.4759216
1493781844423	-0.64749146	-2.8450317	1.267395
1493781844423	-0.20191956	-3.1033478	0.378479
1493781844423	0.020935059	-5.2155	-2.632965
1493781844423	0.2545166	-10.186691	-8.19928
1493781844423	0.04689026	-16.648788	-13.193481
1493781844423	0.5171356	-19.25557	-15.5043335
1493781844423	0.86631775	-17.047028	-9.422943
1493781844423	0.43130493	-10.463379	-5.131531
1493781844423	-0.3695526	-4.8247986	-5.3626404
1493781844423	-6.1270905	-10.544144	-4.28389
1493781844423	-6.378647	-17.386993	3.0296326
1493781844423	-1.0328827	-13.733322	1.3724518
1493781844423	-4.787674	-6.6893005	2.6292267
1493781844423	-8.977905	-1.0327911	2.3054504
1493781844423	-0.41174316	-3.7034912	9.483551
1493781844423	5.6068573	-11.735687	6.3952026
1493781844423	5.659561	-15.081665	2.596939
1493781844423	3.7229156	-14.558762	1.3760834
1493781844423	2.205536	-11.494354	1.0042267
1493781844423	-0.20155334	-9.284622	0.44726563
1493781844423	-2.6589355	-8.96405	0.36231995
1493781844424	-3.3923492	-9.499039	0.043426514
1493781844424	-2.125061	-9.716782	0.45336914
1493781844424	-1.1318512	-8.950439	-0.39360046
1493781844424	-0.690155	-8.213882	-0.18971252
1493781844424	-0.65145874	-7.9621735	-0.65644836
1493781844424	-0.07928467	-7.6595154	0.072402954
1493781844424	0.56010437	-8.292435	1.3831635
1493781844424	0.30026245	-8.810272	1.6725464
1493781844424	0.52565	-8.501617	0.7030029
1493781844424	1.1193848	-8.670654	-1.4857788
1493781844424	1.9376068	-9.224686	-1.7534027
1493781844424	1.0829468	-10.615784	-0.95510864
1493781844424	-1.5651093	-12.353073	-0.6353607
1493781844424	-2.5062256	-12.87999	-2.7747345
1493781844424	0.3897705	-13.110184	-3.1877747
1493781844424	2.892807	-13.702988	-3.6005554
1493781844424	3.6897888	-14.466919	-3.5834198
1493781844424	3.6569214	-15.641449	-3.196869
1493781844424	2.894867	-15.907333	-2.3708038
1493781844424	0.44425964	-14.139999	0.87042236
1493781844424	-3.4117126	-12.531342	4.2455597
1493781844424	-6.1844177	-12.385101	4.3809967
1493781844424	-6.2993927	-14.539856	2.2999115
1493781844424	-4.778763	-16.260178	0.13423157
1493781844424	-0.14172363	-16.39537	-1.7410431
1493781844424	5.2303467	-14.877274	-0.2012024
1493781844424	3.8570557	-11.291763	1.3973083
1493781844424	1.3726501	-8.331314	2.7132416
1493781844425	-0.6329346	-7.0317535	3.0001068
1493781844425	-2.2609253	-5.9847717	2.7057343
1493781844425	-2.3815002	-5.1109467	2.3352509
1493781844425	-2.348114	-4.8669586	2.3919678
1493781844425	-2.8333588	-3.8742218	2.7092285
1493781844425	-3.3307037	-2.3501282	2.5408783
1493781844425	-2.7476196	-1.487381	1.7610474
1493781844425	-2.0753326	-1.5091248	1.2187042
1493781844425	-0.75904846	-3.2805328	-0.5337219
1493781844425	-0.076690674	-6.2462463	-3.7751312
1493781844425	-0.3918152	-10.50473	-9.388092
1493781844425	0.020614624	-15.99939	-13.456223
1493781844425	0.73498535	-18.918427	-10.549988
1493781844425	0.19255066	-14.874985	-6.868866
1493781844425	-1.3494568	-9.090942	-5.2565765
1493781844425	-3.0711823	-4.98497	-5.0862274
1493781844425	-6.729477	-6.82251	-4.1427
1493781844425	-8.3918915	-15.077789	1.5684814
1493781844425	-2.737381	-18.321625	2.8137207
1493781844425	1.7138062	-15.122452	-2.4100647
1493781844425	0.68273926	-7.651535	5.59848
1493781844425	-1.3715515	-5.4297333	7.6873474
1493781844425	0.48458862	-6.9262238	2.7665253
1493781844425	2.3071442	-9.105469	3.9607239
1493781844425	2.0778046	-11.925278	4.327133
1493781844425	1.2060547	-13.616272	1.3533936
1493781844425	-0.35598755	-12.120422	-0.21150208
1493781844425	-2.559311	-9.729797	1.0077972
1493781844425	-3.5036316	-8.445145	1.6538849
1493781844425	-2.2267303	-8.892029	-0.286026
1493781844425	-0.23554993	-9.439133	-0.39230347
1493781844425	0.6559601	-8.645004	0.27340698
1493781844425	0.04019165	-8.410934	-0.22216797
1493781844425	-0.07421875	-8.889145	0.63108826
1493781844426	0.46995544	-8.588089	1.4451599
1493781844426	0.25820923	-8.732468	0.8406067
1493781844426	-0.019638062	-9.536987	0.0018310547
1493781844426	0.381485	-10.553421	-0.5359802
1493781844426	0.835907	-10.7986145	-0.5251465
1493781844426	1.0706787	-10.778671	-1.5597229
1493781844426	0.9256897	-11.801132	-2.0159302
1493781844426	0.1800232	-12.345749	-1.7567902
1493781844426	0.7195587	-12.016144	-1.8009186
1493781844426	2.2705688	-12.0828705	-2.5102386
1493781844426	2.803009	-12.663055	-2.9949646
1493781844426	1.8127899	-14.723541	-2.6928253
1493781844426	-0.077056885	-15.894348	-2.5971222
1493781844426	-2.100174	-13.916687	-0.6930542
1493781844426	-5.4176636	-12.071442	2.1316528
1493781844426	-7.4101563	-11.061157	3.6516418
1493781844426	-7.1542816	-13.040451	3.7444458
1493781844426	-5.3085327	-14.843857	1.1539307
1493781844426	-1.2235107	-15.3558655	-1.7616882
1493781844426	3.1803284	-13.995926	-1.5136108
1493781844426	2.0527496	-11.051834	-0.5776062
1493781844426	0.37722778	-8.097488	1.0770569
1493781844426	-0.7507782	-6.0829773	2.5579376
1493781844426	-1.975296	-5.182663	2.5855408
1493781844426	-2.729538	-4.637314	2.070221
1493781844426	-2.843979	-3.9120483	1.601181
1493781844426	-2.6925507	-3.3002777	1.1855316
1493781844426	-2.5805664	-2.9253082	1.5304718
1493781844426	-2.3142395	-2.4273376	2.2188873
1493781844426	-1.6529083	-2.516449	2.183014
1493781844426	-1.5542908	-3.013092	1.1768799
1493781844426	-0.6085968	-5.4624786	-2.0957336
1493781844426	1.7518158	-11.959656	-9.94516
1493781844426	2.215454	-17.87918	-17.552444
1493781844426	-0.05239868	-19.474823	-16.06485
1493781844426	0.22679138	-13.3493805	-8.870071
1493781844426	-0.16319275	-5.6032715	-4.017166
1493781844426	-5.8892365	-6.134735	-0.28871155
1493781844426	-6.8720245	-13.192368	4.0598907
1493781844426	-0.85450745	-16.50801	3.640686
1493781844427	-0.29434204	-12.390976	-4.918915
1493781844427	-3.548767	-2.908905	3.4099731
1493781844427	-6.855896	0.33312988	5.4686737
1493781844427	0.18714905	-8.416733	7.101761
1493781844427	4.495056	-14.9767	3.673111
1493781844427	4.154709	-14.886383	2.541397
1493781844427	2.0381317	-10.923096	1.9238434
1493781844427	-0.15151978	-8.677933	-0.024642944
1493781844427	-0.08433533	-9.375275	0.6408539
1493781844427	-0.092422485	-10.200806	1.3070831
1493781844427	-0.40100098	-9.861771	1.114975
1493781844427	-1.6348877	-9.315491	1.4120026
1493781844427	-2.3883667	-8.812103	-0.16503906
1493781844427	-1.2584229	-8.8363495	0.5992584
1493781844427	0.23794556	-8.866486	0.7319031
1493781844428	0.70848083	-8.91333	0.44410706
1493781844428	1.4265594	-8.992569	0.87457275
1493781844428	1.3506317	-9.319595	0.25598145
1493781844428	1.6160736	-10.053635	-0.3763733
1493781844428	2.0669403	-10.213058	-1.8403168
1493781844429	1.7825775	-10.745911	-1.9352112
1493781844429	0.29219055	-11.134155	-1.0930481
1493781844429	-0.0015563965	-11.375137	-1.4059448
1493781844429	0.8544922	-11.847687	-1.6544342
1493781844429	0.8058624	-12.662521	-2.749588
1493781844429	1.1535492	-13.937759	-3.0152588
1493781844429	1.2458344	-15.117752	-2.6014252
1493781844429	-0.1538086	-15.065613	-1.7702026
1493781844429	-3.751007	-13.564957	0.09068298
1493781844429	-5.801773	-12.258911	3.300064
1493781844429	-5.845932	-12.865173	5.3137054
1493781844429	-5.2932434	-14.207336	1.8266602
1493781844429	-4.100998	-15.300812	-1.77005
1493781844429	-0.021148682	-14.628265	-3.0081787
1493781844429	3.224228	-12.575623	0.1025238
1493781844429	1.2489624	-9.6137085	1.4160156
1493781844429	0.36228943	-7.2909546	1.7076111
1493781844429	-1.4967651	-6.02684	2.6166077
1493781844429	-2.7494965	-5.518051	2.5554047
1493781844429	-3.0674438	-4.7547913	1.956543
1493781844429	-2.453415	-3.7036743	1.4317627
1493781844429	-1.7066956	-2.9318848	1.4849243
1493781844429	-1.6073303	-2.2226868	1.9824219
1493781844429	-1.4436951	-1.8553162	1.9651642
1493781844429	-0.57891846	-2.3603058	1.2052917
1493781844429	-0.28234863	-4.008377	-0.89927673
1493781844429	-0.09892273	-9.355652	-8.199142
1493781844429	-0.127594	-16.70346	-16.212036
1493781844429	-0.030654907	-19.474823	-16.738632
1493781844429	0.35379028	-15.582901	-9.989929
1493781844429	-0.19664001	-6.306381	-3.8634186
1493781844429	-2.1404877	-0.38482666	-2.8816986
1493781844429	-7.4284363	-6.1942596	0.68330383
1493781844429	-7.999237	-14.436371	5.4469757
1493781844429	-5.6235046	-18.681656	-4.997772
1493781844429	1.5866089	-12.581924	3.6164398
1493781844429	1.6052551	-5.0401154	9.3871765
1493781844429	-0.2140503	-4.4934845	2.3248596
1493781844429	2.7960358	-8.275604	3.6119843
1493781844429	3.0629272	-11.70517	3.0465393
1493781844429	4.3613434	-13.582611	1.555954
1493781844429	1.6380615	-12.454025	0.5630188
1493781844429	-1.1500549	-10.18425	0.08026123
1493781844430	-2.4609985	-8.816864	0.5152283
1493781844430	-2.120926	-9.202637	0.93995667
1493781844430	-1.6969604	-8.761032	1.1104889
1493781844430	-0.48937988	-8.612961	0.029785156
1493781844430	0.16551208	-8.649261	0.11027527
1493781844430	0.018615723	-8.976532	0.094818115
1493781844430	-0.65563965	-9.090729	0.011077881
1493781844430	-0.0024719238	-8.603729	0.7095642
1493781844430	0.64468384	-9.260193	0.90419006
1493781844430	1.1106262	-10.577866	-0.49746704
1493781844430	2.2359924	-10.481018	-1.1059113
1493781844430	1.759079	-10.37648	-2.0832672
1493781844430	-0.25231934	-11.066818	-1.7444763
1493781844430	-0.9337311	-11.278198	-1.354248
1493781844430	0.93377686	-11.870071	-1.2388
1493781844430	2.1989746	-12.4309845	-1.8741608
1493781844430	1.491806	-12.497955	-3.4801483
1493781844430	1.779602	-13.754059	-2.3099213
1493781844430	1.7232819	-15.844223	-2.6348724
1493781844430	1.5718536	-14.469315	-0.6109619
1493781844430	-1.9754486	-12.562088	1.5370331
1493781844430	-5.1696167	-11.6826935	2.416916
1493781844430	-6.1948395	-13.253021	3.3243256
1493781844430	-5.900528	-14.994507	2.2151031
1493781844430	-3.6364594	-15.585709	0.27288818
1493781844430	1.779541	-13.866577	-0.667099
1493781844430	2.6754303	-11.512192	0.25891113
1493781844430	0.82759094	-9.641678	1.9582062
1493781844430	-1.0879669	-7.7324677	2.015503
1493781844430	-1.525528	-6.6114655	2.5233765
1493781844430	-2.0984955	-5.4650574	2.696289
1493781844430	-2.229309	-4.216568	2.4976501
1493781844430	-2.2606964	-3.5742645	2.0980988
1493781844430	-2.7642517	-2.864853	2.0879211
1493781844430	-3.2849731	-1.8284912	2.4165344
1493781844430	-2.3590546	-1.5877686	2.1377869
1493781844430	-1.10495	-2.5074463	1.1607208
1493781844430	-0.49983215	-5.469696	-2.0637665
1493781844430	-0.5091553	-12.253143	-11.259537
1493781844430	0.10110474	-18.052277	-17.537262
1493781844430	1.5445251	-19.474823	-13.550598
1493781844431	1.3229523	-13.987335	-6.408783
1493781844431	-0.02798462	-4.846176	-3.7992249
1493781844431	-3.0316467	-2.4711456	-4.2595673
1493781844431	-7.819763	-10.811737	-0.95199585
1493781844431	-5.3016815	-17.431732	3.7344666
1493781844431	-1.4671173	-16.458511	-2.9430084
1493781844431	-1.0413055	-8.077087	3.69841
1493781844431	-3.7764435	-2.6894836	7.5125732
1493781844431	-0.8288727	-6.408951	5.614914
1493781844431	3.3869476	-11.080612	4.8517456
1493781844431	4.8285522	-13.412018	3.7002869
1493781844431	3.5668945	-13.271835	3.1182556
1493781844431	0.744812	-11.602066	1.05159
1493781844431	-2.4667206	-9.465775	0.6180725
1493781844431	-2.8478546	-8.754227	0.6433716
1493781844431	-2.1628113	-9.326828	1.3884735
1493781844431	-1.265213	-9.24881	1.1625061
1493781844431	-0.577301	-8.707199	0.5542755
1493781844431	0.054870605	-8.762955	0.42781067
1493781844431	0.58976746	-8.515884	1.2077484
1493781844431	1.3847504	-8.480438	0.69999695
1493781844431	2.142868	-9.3315735	1.0469513
1493781844431	2.0950775	-10.10582	0.12611389
1493781844431	1.4633179	-10.191162	-1.6314545
1493781844431	1.1051941	-9.847961	-2.166504
1493781844431	0.43006897	-10.441223	-1.3195496
1493781844431	-0.2210846	-11.052963	-0.9685669
1493781844431	0.17227173	-11.313049	-0.94377136
1493781844431	1.2077484	-11.894516	-1.193222
1493781844431	1.6048584	-11.631454	-1.127945
1493781844431	0.59365845	-11.629913	-1.8252411
1493781844431	0.93995667	-13.228729	-2.4524689
1493781844431	1.557663	-14.196396	-3.1651764
1493781844432	1.0970764	-13.159592	-2.8881226
1493781844432	-1.4106445	-12.6540985	-1.2484436
1493781844432	-4.246994	-11.983154	1.7125397
1493781844432	-5.704895	-12.986694	5.8583984
1493781844432	-6.9065094	-13.915131	4.2940216
1493781844432	-5.670944	-13.992416	0.7583313
1493781844432	-1.544281	-13.440109	-1.8799286
1493781844432	2.9767609	-12.210236	-1.2763824
1493781844432	2.3894348	-10.3242035	-0.1820221
1493781844432	0.37138367	-8.549133	1.0794067
1493781844432	-0.86621094	-7.412964	2.2415314
1493781844432	-1.4654236	-7.187393	2.1014557
1493781844432	-2.0079346	-6.461746	2.05307
1493781844432	-2.3922272	-5.875992	1.8250275
1493781844432	-2.7328644	-4.9382324	1.6158295
1493781844432	-3.2286987	-3.8160095	1.862442
1493781844432	-3.6957855	-3.0535126	2.1408234
1493781844432	-3.0959167	-3.3092804	1.6632385
1493781844432	-2.0207062	-4.236328	0.8510742
1493781844432	-0.56755066	-6.5957794	-1.2684479
1493781844432	0.9738922	-12.20401	-7.7218475
1493781844432	0.23841858	-17.680618	-12.710632
1493781844432	-1.1272278	-17.730316	-11.790863
1493781844432	-0.5549774	-12.089142	-5.970169
1493781844432	-0.33229065	-7.7418823	-2.6560516
1493781844432	-3.3866882	-10.106308	-3.2170715
1493781844432	-5.3589325	-15.982605	-3.035843
1493781844432	-2.8709564	-18.980484	-3.3302765
1493781844432	1.2551117	-13.124695	-1.1984711
1493781844432	-0.82559204	-4.389572	7.6987305
1493781844432	-6.9674225	-2.299652	7.121292
1493781844432	-5.302109	-7.2084045	0.7667389
1493781844432	0.9685364	-10.941696	2.434616
1493781844433	3.3089905	-12.653809	4.586975
1493781844433	3.1053925	-13.110306	2.9723663
1493781844433	1.0300446	-11.994705	1.3360596
1493781844433	-1.8355103	-9.759491	1.008667
1493781844433	-2.8121185	-9.383041	1.074585
1493781844433	-2.6987152	-10.160736	1.5568695
1493781844433	-1.5797577	-10.354431	1.6218872
1493781844433	0.165802	-10.413544	1.3253174
1493781844433	1.1363525	-10.337814	0.6781769
1493781844433	1.6898499	-9.727615	1.8125153
1493781844433	1.2886353	-9.751175	1.2691956
1493781844433	0.65582275	-9.6232605	0.75379944
1493781844433	0.21130371	-9.4313965	-0.26985168
1493781844433	0.39860535	-9.038818	-0.25502014
1493781844433	-0.6877899	-8.5742035	0.5744324
1493781844433	-1.9653778	-9.664734	1.1904755
1493781844433	-1.1227722	-10.321976	2.6357422
1493781844433	1.8953857	-10.386551	3.3083801
1493781844433	4.7915344	-11.400162	2.664154
1493781844433	3.590622	-11.329254	0.8644562
1493781844433	-1.2379913	-9.669144	0.25099182
1493781844433	-3.6217499	-8.473145	0.57458496
1493781844433	-3.6927185	-8.582428	0.90242004
1493781844433	-4.4191284	-9.868057	1.7620239
1493781844433	-4.924759	-10.326965	2.712677
1493781844433	-4.1624756	-10.834488	3.667282
1493781844433	-2.7154694	-11.309647	3.2085114
1493781844433	0.012939453	-12.249863	2.391693
1493781844433	1.0457153	-10.574112	0.4443817
1493781844433	1.5452728	-8.388138	0.09883118
1493781844433	2.1937408	-7.368576	0.6131134
1493781844433	1.7369995	-7.580307	-0.027160645
1493781844433	0.98391724	-8.14447	-0.7514343
1493781844434	0.031585693	-8.574081	-0.49778748
1493781844434	-0.981781	-8.976776	-0.4242401
1493781844434	-2.097046	-9.491791	-1.1988373
1493781844434	-2.6050262	-10.189224	-0.839798
1493781844434	-1.5643463	-10.690384	-0.033294678
1493781844434	0.18891907	-10.990723	-0.3531494
1493781844434	0.8506317	-10.825531	-1.4197235
1493781844434	1.3547211	-10.462387	-2.2722473
1493781844434	2.0398712	-10.119476	-2.671814
1493781844434	1.6579437	-9.4622345	-2.5175629
1493781844434	1.0668488	-8.84053	-2.3929138
1493781844434	0.40937805	-8.79953	-1.9634094
1493781844434	-0.4915924	-9.23053	-1.421814
1493781844434	-0.8348999	-9.645569	-1.2394562
1493781844434	-0.65802	-10.40535	-1.3630829
1493781844434	-1.141861	-12.213623	-1.8947601
1493781844434	-1.3624573	-12.906326	-1.6518097
1493781844434	-1.0940857	-10.080017	-0.9117584
1493781844434	-1.361618	-7.1982117	-0.49693298
1493781844434	-1.8521118	-7.6202393	0.2223053
1493781844434	-1.3244629	-10.7695465	1.1654816
1493781844434	1.1389923	-12.510101	4.2821503
1493781844434	2.1578827	-11.780151	5.5693207
1493781844434	1.7214508	-10.950317	3.0886536
1493781844434	0.2995758	-10.926361	2.2331696
1493781844434	-1.0534515	-10.652359	1.8153229
1493781844434	-1.8018036	-10.006485	1.2787018
1493781844434	-1.2736053	-9.633057	1.6326904
1493781844434	-0.9810486	-9.165924	1.9350739
1493781844434	-0.68510437	-8.845367	1.880539
1493781844434	0.05088806	-9.048325	1.2135773
1493781844434	0.5946808	-9.286606	0.6788635
1493781844434	0.51919556	-9.501892	0.15408325
1493781844434	0.6502991	-9.502045	-0.20767212
1493781844434	0.76875305	-9.583328	0.6313629
1493781844434	0.01763916	-9.958939	0.68769836
1493781844434	-0.21121216	-10.169037	0.94929504
1493781844434	-0.5317688	-10.799774	0.7896881
1493781844434	-1.2470093	-11.593796	-0.35247803
1493781844434	-0.9907837	-12.1657715	-1.2796326
1493781844434	-0.26028442	-12.52565	-1.6394196
1493781844435	0.4434204	-12.7256775	-2.3194733
1493781844435	1.0476379	-12.160904	-3.1237946
1493781844435	2.3970795	-12.625519	-2.7436218
1493781844435	2.4884796	-13.51828	-1.2691956
1493781844435	0.73931885	-13.261871	-1.7168884
1493781844435	-1.6978455	-13.012085	-3.0245514
1493781844435	-4.2568207	-11.689392	0.7460022
1493781844435	-6.303055	-10.055008	4.697571
1493781844435	-6.599121	-11.709	4.9561157
1493781844435	-3.8171082	-13.587158	2.7352753
1493781844435	-1.6264801	-15.051773	-1.8520508
1493781844435	0.8312988	-14.225403	-1.8594666
1493781844435	2.5734253	-13.321152	-0.092453
1493781844435	0.9633179	-10.7925415	-0.35133362
1493781844435	-0.5094757	-8.902267	0.97454834
1493781844435	-1.8502197	-7.2746124	1.1266937
1493781844435	-2.221695	-6.0001984	0.6966095
1493781844435	-1.8299713	-4.813217	0.49487305
1493781844435	-0.8842926	-3.9441986	0.8674164
1493781844435	-0.96347046	-3.2817383	1.973526
1493781844435	-1.822586	-2.5555725	2.2246704
1493781844435	-1.4519348	-2.4588318	1.9272614
1493781844435	-0.51171875	-2.6737976	0.834671
1493781844435	0.14154053	-3.7095032	-1.478775
1493781844435	1.1336212	-6.661667	-5.7595367
1493781844435	1.125885	-11.315094	-11.081314
1493781844435	0.34965515	-16.901352	-15.027115
1493781844435	-0.2955475	-19.474823	-12.830856
1493781844435	-1.0808716	-15.225525	-8.938049
1493781844435	-2.3473053	-7.432205	-5.724533
1493781844435	-6.042633	-6.951355	-3.1519318
1493781844435	-6.2946014	-13.236237	0.6239624
1493781844435	0.7726593	-16.217926	1.7918854
1493781844435	2.5524445	-11.761414	0.33662415
1493781844435	-4.6433563	-4.218979	2.4432373
1493781844435	-5.7848206	-2.2938995	5.2427216
1493781844435	-0.056503296	-9.082321	4.563278
1493781844435	3.1072235	-12.935684	3.7098083
1493781844435	2.9421844	-12.151703	2.4476624
1493781844435	1.5660248	-10.600052	2.149475
1493781844435	0.4842224	-9.760849	1.2887726
1493781844435	0.20732117	-9.099182	0.68685913
1493781844436	0.07904053	-9.596161	1.0908966
1493781844436	-0.5411835	-9.298172	0.29190063
1493781844436	-1.5089417	-8.895615	0.45224
1493781844436	-1.7020416	-8.659927	-0.013702393
1493781844436	-1.3430176	-9.177368	-0.16574097
1493781844436	-0.6378021	-8.690353	1.0793762
1493781844436	0.17939758	-8.922714	1.9312286
1493781844436	0.048919678	-9.336075	1.8217163
1493781844436	-0.6306	-9.462524	1.1600189
1493781844436	-0.716156	-10.302582	-0.28581238
1493781844436	0.13105774	-10.798004	-1.0071869
1493781844436	1.0901184	-11.078705	-0.83052063
1493781844436	0.51008606	-11.943954	-0.5904541
1493781844436	-0.6308136	-11.964645	-0.72216797
1493781844436	1.1311798	-12.086319	-0.80010986
1493781844436	2.416275	-12.304855	-0.8245239
1493781844436	2.0618134	-12.885773	-2.4635925
1493781844436	2.197586	-13.459503	-2.1993408
1493781844436	1.344101	-13.956512	-1.9412537
1493781844436	0.08786011	-13.88031	-1.877243
1493781844436	-3.6934967	-12.103104	-0.5243988
1493781844436	-5.740402	-10.964401	0.75897217
1493781844436	-5.8064575	-11.48848	5.8145294
1493781844436	-5.1744843	-13.21637	4.887802
1493781844436	-4.3407135	-14.296768	-1.3058624
1493781844436	-1.7255402	-14.021027	-3.5823822
1493781844436	1.6108093	-12.964325	-0.75590515
1493781844436	1.7310638	-11.326553	0.17622375
1493781844436	0.56889343	-8.493393	1.553009
1493781844436	-1.5413055	-6.685623	2.0755463
1493781844436	-2.8699036	-6.0122223	2.231079
1493781844436	-3.28331	-5.1223297	2.1121216
1493781844436	-3.019516	-4.0756683	1.5585785
1493781844436	-2.4266205	-3.4047089	1.211792
1493781844436	-1.8278961	-2.9118805	1.4346008
1493781844436	-1.7654877	-2.3505096	1.9579163
1493781844436	-1.1301422	-2.2575073	1.8179321
1493781844437	-0.54844666	-2.9382935	0.37672424
1493781844437	0.40847778	-6.170105	-3.29628
1493781844437	1.3325348	-12.792007	-11.126129
1493781844437	0.86065674	-18.439606	-18.45372
1493781844437	-0.09416199	-19.474823	-13.732239
1493781844437	7.7819824E-4	-13.449799	-7.009842
1493781844437	-0.52149963	-4.078171	-4.2509155
1493781844437	-3.7288818	-0.69081116	-2.410797
1493781844437	-7.765045	-7.376297	2.8090057
1493781844437	-5.2040253	-15.616455	5.2128906
1493781844437	-0.043151855	-18.960815	-5.648712
1493781844437	2.1532593	-12.111038	1.516449
1493781844437	-3.8954315	-4.052307	7.4990387
1493781844437	-3.8437653	-3.4274445	5.212784
1493781844437	2.0236816	-8.332748	4.9257965
1493781844437	3.915268	-12.237946	4.662262
1493781844437	2.7837982	-13.522186	3.5567017
1493781844437	0.91722107	-12.500458	0.9373169
1493781844437	-0.8480377	-10.301315	0.88235474
1493781844437	-2.570221	-9.238113	0.71450806
1493781844437	-1.8130646	-9.034241	0.8229675
1493781844437	-0.31887817	-8.696487	1.3447418
1493781844437	-0.15045166	-8.76265	0.8483124
1493781844437	0.19664001	-9.286484	0.48080444
1493781844437	0.46948242	-8.939804	0.9608307
1493781844437	1.1948547	-8.873062	1.1649323
1493781844437	1.4075317	-9.07869	0.98646545
1493781844437	1.1391296	-9.565369	0.32669067
1493781844437	0.40257263	-10.118561	-0.27311707
1493781844437	0.62739563	-10.1983185	-1.1059418
1493781844437	1.5292816	-9.782288	-1.7500153
1493781844437	2.102066	-10.677368	-0.8434601
1493781844437	0.6025238	-11.834244	-0.628479
1493781844437	0.42643738	-11.95668	-1.0179291
1493781844437	1.8288269	-11.925766	-1.1113129
1493781844437	1.1025543	-12.54953	-2.4755096
1493781844440	0.32722473	-13.53186	-3.733551
1493781844440	1.4545441	-14.226013	-2.0131073
1493781844440	1.3946991	-14.594467	-3.0521393
1493781844440	-0.5873108	-13.010193	-2.6658936
1493781844440	-4.4597015	-11.594681	1.7786713
1493781844440	-5.798538	-11.296066	5.670044
1493781844440	-4.8004	-13.530136	3.7711945
1493781844440	-3.852066	-15.114899	-0.27326965
1493781844440	-3.166626	-15.571854	-1.9882507
1493781844440	1.0297699	-13.913437	-0.40620422
1493781844440	2.4431458	-11.885742	0.29162598
1493781844440	1.3137207	-9.327667	1.418869
1493781844440	-1.406662	-7.0868683	2.0956268
1493781844440	-2.7394714	-5.987381	2.6660004
1493781844440	-2.7769318	-5.5937195	2.2486267
1493781844440	-2.6317291	-4.485916	1.9488525
1493781844440	-2.325714	-3.8726044	1.8374329
1493781844440	-2.3962402	-2.9045258	2.3460388
1493781844440	-2.2015991	-1.8256378	2.595932
1493781844440	-1.209732	-1.4143524	2.2783203
1493781844440	-1.073822	-1.8686371	1.3757477
1493781844440	-0.6150055	-4.6924286	-2.206543
1493781844440	0.46652222	-12.250504	-12.524261
1493781844440	-0.015960693	-18.370224	-18.931198
1493781844441	-0.3232422	-19.474823	-13.728424
1493781844441	-0.16920471	-13.032654	-6.899109
1493781844441	-1.3518677	-3.071167	-3.5473328
1493781844441	-5.5552673	-2.7073364	-2.961914
1493781844441	-6.796936	-10.345779	0.38139343
1493781844441	-0.7877655	-14.420914	3.705307
1493781844441	1.0145111	-14.291321	-1.153122
1493781844441	-2.883194	-8.649902	1.2192383
1493781844441	-5.120468	-4.7313385	6.101059
1493781844441	-0.9010925	-7.5762177	4.3992615
1493781844441	3.3493195	-10.744797	4.1676636
1493781844441	4.468216	-12.33696	3.319336
1493781844441	3.0588226	-12.495346	2.454834
1493781844441	0.34477234	-11.883316	0.92074585
1493781844441	-2.1261444	-9.469727	0.29066467
1493781844441	-2.7630157	-8.641678	0.68821716
1493781844441	-2.7113495	-8.889236	0.32621765
