accelerometer_timestamp	accelerometer_x_data	accelerometer_y_data	accelerometer_z_data
1493794230392	-0.32496643	4.9585266	8.172348
1493794230415	-0.2655487	4.94899	7.990799
1493794230432	-0.1940918	4.979553	8.361725
1493794230451	-0.114227295	4.8622894	9.068527
1493794230471	-0.2768097	4.771637	8.817444
1493794230490	-0.3511505	4.76033	8.277542
1493794230510	-0.2214508	4.759308	8.145172
1493794230530	-0.18888855	4.7084656	7.797333
1493794230550	-0.150177	4.629135	7.323395
1493794230569	0.24180603	4.5769196	7.3975525
1493794230589	0.60466003	4.042206	7.301346
1493794230609	0.58317566	3.0461578	6.6275024
1493794230631	0.97302246	2.508255	5.793991
1493794230648	2.1012726	2.3121338	4.3362274
1493794230668	4.273941	2.0496216	3.6785278
1493794230688	5.806366	1.8059845	3.9979248
1493794230708	5.3971405	1.0630035	3.8748932
1493794230727	4.2754517	-0.635376	4.1157837
1493794230747	4.63179	-0.3602295	5.2321625
1493794230767	3.960556	0.007293701	6.2910614
1493794230787	4.180008	-0.38301086	5.058075
1493794230806	5.3027344	-0.23014832	5.2352753
1493794230826	6.171707	-0.19911194	6.697571
1493794230846	7.0149384	-0.33810425	7.855957
1493794230867	7.935364	-0.21986389	8.218109
1493794230886	7.44783	-1.8149109	8.8688965
1493794230906	11.03212	1.0410767	10.000168
1493794230925	12.985199	2.589508	9.247009
1493794230945	12.350723	1.5312195	9.438934
1493794230965	12.644836	2.2839355	10.319565
1493794230985	12.046829	2.4197845	10.660034
1493794231005	10.76091	1.9651337	10.46199
1493794231025	9.617447	1.5345306	10.412247
1493794231045	8.99559	1.4217224	10.974121
1493794231064	7.687607	0.89212036	10.253967
1493794231084	7.1575623	0.64479065	8.831772
1493794231104	6.9231567	0.5072632	7.4207306
1493794231123	6.196533	0.14100647	5.8282013
1493794231163	6.43161	0.21025085	5.654114
1493794231182	6.4138184	-0.7951813	6.576004
1493794231202	5.0585175	-1.150238	6.7382813
1493794231222	5.052307	-1.4335632	5.55249
1493794231242	4.2568665	-1.521347	4.8476105
1493794231262	-0.7302551	-5.501358	5.184204
1493794231281	9.494385	2.478302	3.3968048
1493794231301	1.9998627	-4.699936	3.6680756
1493794231322	8.772858	0.017547607	0.97535706
1493794231341	9.160858	-2.2850494	2.045105
1493794231361	11.914307	-1.7800751	5.7020416
1493794231381	12.308899	-2.2136688	8.444199
1493794231400	14.048386	-2.238037	7.337906
1493794231420	16.070862	-2.155075	3.2731628
1493794231440	16.220276	-1.8800354	0.11331177
1493794231460	13.4253845	-3.1444855	1.2151794
1493794231479	14.360565	-2.983551	1.7487946
1493794231499	14.553848	-3.5381165	1.6540222
1493794231519	14.923492	-2.7780914	-0.5155182
1493794231539	13.388092	-2.7009735	2.2906342
1493794231558	9.047104	-3.4441986	0.9068756
1493794231578	1.6090088	-4.6325836	-1.0422363
1493794231598	3.6346436	-4.473175	-1.4521332
1493794231618	6.121704	-3.005478	-0.43725586
1493794231638	4.6340637	-2.1207733	-2.6085358
1493794231657	4.3939514	-1.9840851	-3.3293152
1493794231677	5.01503	-2.0982208	-1.1500092
1493794231697	4.9433594	-3.3874054	-0.9902191
1493794231717	4.4924316	-4.6259613	-0.582901
1493794231736	7.3174286	-4.230194	-1.0127411
1493794231756	8.556183	-4.478668	-2.5706482
1493794231776	6.5440216	-6.4170837	-1.6604004
1493794231796	6.5950775	-7.503372	0.11480713
1493794231816	5.7108154	-6.733246	-1.3410034
1493794231836	8.243149	-9.504639	-2.7000732
1493794231855	9.038162	-10.69989	-1.6075897
1493794231875	5.5953217	-10.309097	-1.2897949
1493794231895	5.1089478	-10.861237	-1.3898621
1493794231915	4.105438	-10.275131	-1.1436462
1493794231935	2.8451233	-9.1188965	-0.84935
1493794231954	2.234253	-8.204254	-0.27708435
1493794231974	1.9856873	-7.426071	-0.13201904
1493794231994	2.817978	-7.2343903	-0.41067505
1493794232014	1.4298096	-6.4129486	-1.1719513
1493794232033	2.2355957	-6.5704346	-0.34957886
1493794232053	4.052948	-8.695694	-0.6094818
1493794232073	4.583908	-11.036407	0.46255493
1493794232093	5.6589813	-10.031754	0.6479645
1493794232112	0.36064148	-11.321579	-1.2577515
1493794232133	-0.22219849	-13.488968	-0.89875793
1493794232152	2.9520874	-10.687897	0.3144226
1493794232172	2.2126465	-10.496948	0.57458496
1493794232192	1.1050415	-10.856995	1.1546173
1493794232211	1.2133026	-9.574478	-0.5769501
1493794232231	1.0673828	-9.5316925	-0.026016235
1493794232251	1.6598969	-9.491806	0.17102051
1493794232291	1.1818542	-9.555359	-0.029266357
1493794232310	0.93852234	-9.264145	0.25682068
1493794232332	1.5660095	-7.3215027	6.591797
1493794232350	1.6286926	-7.8437653	-0.31869507
1493794232370	2.3335114	-4.173767	0.7154846
1493794232389	1.0121307	-5.243347	0.9660797
1493794232409	5.7260284	2.8447266	-0.12319946
1493794232429	1.767746	-3.8277893	0.9525299
1493794232449	1.911789	-17.168335	0.4082489
1493794232469	2.7496185	-16.21399	0.53874207
1493794232489	2.7217255	-12.806595	0.94963074
1493794232509	3.3783264	-10.412506	0.66342163
1493794232528	3.1580048	-9.708221	0.7239075
1493794232548	3.2652435	-9.452347	0.7071991
1493794232568	2.865982	-9.734711	1.0589447
1493794232587	1.9435272	-9.382202	0.59846497
1493794232607	0.29585266	-8.903183	0.6166229
1493794232627	-0.59599304	-8.756363	1.7681427
1493794232647	0.018707275	-10.480423	2.0434265
1493794232667	0.97554016	-10.803879	1.1663971
1493794232686	1.6138	-8.615601	1.764801
1493794232706	0.45314026	-11.694138	2.223465
1493794232726	0.8500061	-15.336472	1.8726501
1493794232746	3.0462341	-13.019409	1.3285217
1493794232765	3.3526	-11.472549	1.8318024
1493794232785	1.8499298	-10.472321	0.91093445
1493794232805	-0.074279785	-10.398605	0.40344238
1493794232825	-0.8861847	-9.893692	0.51304626
1493794232845	-0.9406128	-9.54747	0.93481445
1493794232864	-0.5183716	-9.359436	1.4109955
1493794232884	-0.59472656	-9.473862	1.4659576
1493794232904	0.0796814	-9.658051	1.2769165
1493794232924	0.87823486	-9.80394	0.98791504
1493794232944	0.84269714	-9.922653	0.90205383
1493794232963	0.770401	-10.306824	0.71102905
1493794232983	0.8804474	-10.6528015	0.6885071
1493794233003	1.1917877	-10.798309	0.78125
1493794233023	1.8352966	-10.97493	0.74191284
1493794233042	2.3916626	-10.99324	0.6974335
1493794233062	2.4614868	-11.053604	0.7650604
1493794233082	2.4018097	-11.414978	0.74365234
1493794233102	2.3824768	-11.723358	0.8972168
1493794233122	2.1646576	-11.401016	0.7252655
1493794233141	2.2560272	-10.692184	0.3305359
1493794233161	2.069931	-10.431976	-0.08544922
1493794233181	1.3842468	-10.312241	-0.99250793
1493794233201	0.48284912	-9.82048	-0.8874359
1493794233221	-0.47323608	-10.344208	-1.1018829
1493794233240	-1.5864105	-10.633575	-2.0402832
1493794233260	-3.1212616	-11.8941345	-0.6026459
1493794233280	-4.7052	-12.886398	0.9541626
1493794233300	-4.5966644	-12.41864	1.1792603
1493794233321	-4.3183594	-12.078842	2.3049011
1493794233340	-2.0044403	-11.039047	2.433548
1493794233360	3.3718414	-10.963303	-1.1139221
1493794233399	5.585266	-10.95491	-1.7808075
1493794233419	3.2355957	-10.593094	-0.91789246
1493794233438	0.9953308	-10.852432	-0.29457092
1493794233458	-0.94377136	-9.16832	0.5614929
1493794233478	-1.6004028	-8.141281	0.44909668
1493794233497	-2.0513	-7.2728424	0.27082825
1493794233517	-2.2418213	-6.505417	0.20225525
1493794233537	-2.3270874	-5.8161316	0.111190796
1493794233557	-2.402542	-5.253357	-0.116363525
1493794233577	-2.1753693	-4.881714	-0.56365967
1493794233597	-1.3171997	-5.3407745	-1.4895782
1493794233617	-0.6331482	-6.051758	-3.1580505
1493794233638	0.17849731	-7.4284363	-4.6467743
1493794233657	0.81832886	-9.239792	-6.1253967
1493794233676	2.185608	-11.475662	-7.6887054
1493794233695	2.8962097	-12.861206	-8.59137
1493794233716	1.9552002	-12.652176	-8.530045
1493794233736	1.3165588	-11.461838	-6.776108
1493794233756	0.70648193	-9.924286	-5.278137
1493794233775	-0.7127838	-7.3451233	-5.128235
1493794233795	-2.0391998	-5.560196	-5.1009216
1493794233815	-3.5845795	-7.6031036	-4.972122
1493794233834	-5.421356	-12.8368225	-4.1128387
1493794233854	-4.2279816	-15.607895	-2.9750214
1493794233874	-1.4889679	-13.162003	-0.73791504
1493794233893	-1.6689911	-8.294861	2.923767
1493794233913	-3.3186188	-5.688019	5.1112366
1493794233933	-3.3799896	-6.772064	4.9434967
1493794233953	-1.70578	-9.4888	3.9776459
1493794233973	2.442566	-12.655457	2.2196808
1493794233992	5.241501	-13.716812	1.2807007
1493794234013	4.7872314	-12.242172	0.69288635
1493794234032	2.624878	-10.437546	-0.5002289
1493794234052	0.38175964	-9.45816	-0.4616394
1493794234072	-1.1434021	-9.096466	-0.039031982
1493794234092	-2.2154083	-9.064163	-0.14988708
1493794234111	-2.6336975	-9.106918	-0.5055237
1493794234131	-1.811554	-9.051651	-0.8484955
1493794234151	-1.0138245	-9.130203	-0.5392914
1493794234171	0.21777344	-9.430969	-0.011947632
1493794234190	1.3657074	-9.774551	-0.60865784
1493794234211	1.665863	-9.795319	-0.7458496
1493794234230	0.8951721	-9.454117	-0.38191223
1493794234250	0.1607666	-9.204727	0.41804504
1493794234270	0.16940308	-9.36409	0.060562134
1493794234290	0.6394501	-9.65509	-0.22671509
1493794234309	1.1720886	-9.945129	-0.45381165
1493794234330	1.5592804	-10.022125	-0.9993744
1493794234349	1.7383118	-10.190231	-1.2780304
1493794234369	1.6817474	-10.28421	-1.2501221
1493794234389	1.9833832	-10.266083	-0.70581055
1493794234408	2.3414612	-10.436203	0.11457825
1493794234428	1.9240417	-10.82695	-0.87042236
1493794234447	1.2085876	-11.329147	-1.260376
1493794234467	1.713562	-11.953262	-1.0797272
1493794234487	3.3074646	-12.64119	-0.25143433
1493794234527	3.659607	-12.978149	-0.8750305
1493794234546	-0.2654724	-12.561096	-0.8169861
1493794234566	-6.1176453	-12.87001	-3.4027405
1493794234586	-8.529037	-13.2947235	0.8587189
1493794234606	-7.3285065	-13.810898	3.8141632
1493794234626	-4.60701	-12.681702	5.418167
1493794234645	-0.5580902	-11.200729	2.8711548
1493794234665	1.1245728	-10.017487	-0.4567871
1493794234685	0.8902283	-10.364853	-0.5270386
1493794234706	-1.0865326	-9.390869	0.44093323
1493794234725	-3.022522	-8.850693	0.09194946
1493794234744	-3.5684662	-7.6948547	0.27236938
1493794234764	-2.682541	-6.9406586	0.60598755
1493794234784	-1.4427032	-6.4372406	0.78149414
1493794234803	-0.31652832	-6.637863	0.85121155
1493794234824	-0.16654968	-7.4967194	0.061309814
1493794234843	-0.9032898	-8.371262	-0.9317169
1493794234863	-1.3492737	-9.219421	-1.5171356
1493794234883	-1.2803497	-9.86496	-2.473526
1493794234903	-1.6934662	-10.574432	-3.6919556
1493794234924	-1.5359192	-10.885635	-4.1741486
1493794234943	-1.0003967	-10.78418	-3.941452
1493794234963	-0.78930664	-10.298904	-3.5764008
1493794234989	-0.7788391	-9.584976	-2.707611
1493794235004	-2.285675	-8.660095	-0.8061218
1493794235027	-3.3881836	-7.7702026	1.2300873
1493794235046	-3.4306183	-7.469452	1.8473816
1493794235065	-2.9735565	-7.7809906	1.7058563
1493794235084	-3.0746155	-8.540878	1.4960327
1493794235105	-3.4953613	-9.613647	1.0419617
1493794235124	-4.121567	-10.309982	0.32258606
1493794235145	-4.786331	-10.197311	-0.15058899
1493794235164	-4.9757385	-9.994873	-0.053604126
1493794235185	-4.0635223	-10.256134	0.4728241
1493794235204	-2.5734863	-10.622757	1.1258087
1493794235225	-1.121582	-10.475616	0.82637024
1493794235244	-0.5810852	-10.032303	0.066101074
1493794235262	-0.6378479	-9.731506	-0.40948486
1493794235284	-0.6321564	-9.699951	-0.30711365
1493794235303	-0.5148468	-9.776764	0.37083435
1493794235326	-0.19839478	-9.961227	0.9147339
1493794235350	-0.015701294	-10.18396	0.59007263
1493794235362	0.24856567	-10.317566	-0.26301575
1493794235380	0.41809082	-10.515366	-0.8271637
1493794235400	0.37239075	-10.616501	-1.0474396
1493794235421	-0.06715393	-10.519867	-0.7462158
1493794235440	-0.53912354	-10.099686	-0.18978882
1493794235460	-1.2288055	-9.898468	0.4972992
1493794235482	-1.5161285	-8.805954	0.8738861
1493794235500	-1.859024	-9.542664	0.1783905
1493794235521	-1.3776703	-9.822464	0.039276123
1493794235542	-1.8142242	-9.604492	-0.06385803
1493794235560	-1.3538666	-9.42308	-0.42338562
1493794235580	-0.54455566	-9.697525	-0.6116333
1493794235600	0.24031067	-10.0345	-0.7745056
1493794235618	0.6594391	-10.233475	-0.66915894
1493794235639	0.8092804	-10.155106	-0.5387726
1493794235661	0.667984	-9.8888855	-0.45726013
1493794235699	0.33499146	-9.907425	-0.42538452
1493794235718	0.14031982	-9.882797	-0.42962646
1493794235742	0.030288696	-9.912949	-0.45117188
1493794235756	-0.16079712	-10.088882	-0.157547
1493794235777	-0.38900757	-10.157028	0.06465149
1493794235796	-0.6651764	-10.051468	0.028060913
1493794235818	-0.7159424	-9.97757	0.09289551
1493794235850	-0.66929626	-9.906616	-0.03375244
1493794235856	-0.7702484	-9.691086	-0.14579773
1493794235874	-0.92544556	-9.660309	-0.23027039
1493794235894	-1.0963287	-9.866623	-0.1368103
1493794235913	-1.2059021	-9.96756	-0.0065460205
1493794235934	-1.3317566	-9.952499	-0.042755127
1493794235954	-1.1910248	-10.048492	-0.24049377
1493794235975	-0.8558502	-10.189301	-0.19725037
1493794235995	-0.716095	-10.11319	-0.30952454
1493794236013	-0.9040222	-9.871246	-0.39845276
1493794236036	-1.0868225	-9.717041	-0.4309082
1493794236057	-1.2463074	-9.594696	-0.4776001
1493794236077	-1.4398956	-9.502197	-0.77194214
1493794236092	-1.4273834	-9.454514	-1.0699005
1493794236115	-1.1593018	-9.426834	-1.3585663
1493794236135	-0.94898987	-9.59198	-1.620697
1493794236156	-1.0574646	-9.821121	-1.7871552
1493794236172	-1.3170319	-9.792023	-1.825058
1493794236192	-1.5759583	-9.722183	-1.7633057
1493794236212	-1.7764435	-9.713058	-1.5993195
1493794236234	-1.9754791	-9.507019	-1.5590668
1493794236251	-1.9307251	-9.316879	-1.5733948
1493794236274	-1.5877228	-9.390625	-1.6009979
1493794236292	-1.3110046	-9.402405	-1.6507721
1493794236312	-1.1712341	-9.323303	-1.8005066
1493794236331	-1.0476532	-9.381653	-2.1402435
1493794236352	-0.87345886	-9.50177	-2.5363312
1493794236374	-0.7227783	-9.539993	-2.7336426
1493794236390	-0.54875183	-9.520035	-2.7580566
1493794236409	-0.54248047	-9.500763	-2.706543
1493794236429	-0.88835144	-9.397202	-2.6053314
1493794236452	-1.2213135	-9.364487	-2.6533813
1493794236471	-1.3451385	-9.492844	-2.8886108
1493794236490	-1.2796631	-9.65184	-3.1708221
1493794236511	-0.73083496	-9.892044	-3.275879
1493794236529	-0.14915466	-10.006439	-3.618805
1493794236548	0.1386261	-9.994858	-3.676468
1493794236572	0.35769653	-10.104355	-4.025955
1493794236589	0.8213196	-10.344421	-4.3484497
1493794236607	0.841629	-10.385895	-4.4179077
1493794236628	0.61808777	-10.245499	-4.2324524
1493794236649	-0.15475464	-9.310089	-4.220642
1493794236667	-1.0308685	-8.65448	-3.4179382
1493794236692	-1.223877	-8.396744	-3.69664
1493794236707	-1.2291107	-8.53157	-3.355774
1493794236727	-0.73435974	-8.588425	-1.7720032
1493794236746	0.06034851	-8.433014	-1.1303253
1493794236790	0.20672607	-8.436584	-1.5571747
1493794236805	-0.92845154	-8.3858185	-2.552246
1493794236824	-2.163681	-8.141251	-3.0956879
1493794236851	-2.718811	-8.268936	-3.2498627
1493794236863	-2.643158	-8.254364	-3.5548859
1493794236884	-2.4747314	-8.328888	-3.9469757
1493794236903	-2.2089233	-8.5277405	-4.63266
1493794236923	-1.8173218	-8.772659	-5.348404
1493794236943	-1.9333954	-8.036789	-6.019394
1493794236965	-1.8134308	-7.3273315	-6.021927
1493794236984	-1.5104218	-6.8748016	-5.520035
1493794237006	-1.6020966	-6.2591248	-3.8559875
1493794237023	-2.1216736	-6.325058	-1.8559113
1493794237042	-4.5770416	-10.525909	-2.4375305
1493794237064	-5.335724	-18.546875	-5.125763
1493794237084	2.4831848	-16.424927	-4.292038
1493794237102	4.579544	-7.388687	2.0727234
1493794237125	-0.17956543	-5.2747498	3.2361298
1493794237142	-3.858368	-8.743515	1.8438568
1493794237163	-4.1026306	-11.351898	1.0127106
1493794237183	-1.1157379	-11.367157	-0.113861084
1493794237201	1.0459595	-9.880081	0.75213623
1493794237221	1.5429535	-9.198212	1.7499847
1493794237241	1.4115753	-9.995651	0.91215515
1493794237260	1.1516113	-10.667755	0.114227295
1493794237281	1.2227173	-10.227737	0.532074
1493794237301	1.1572571	-9.670959	0.6881256
1493794237318	-0.14152527	-9.529388	0.14439392
1493794237350	-1.7721558	-9.632507	-0.39707947
1493794237359	-2.4072876	-9.474655	-0.26016235
1493794237379	-1.904541	-9.351654	0.29641724
1493794237397	-0.9108734	-9.607147	0.32824707
1493794237417	0.22080994	-9.886093	1.0129547
1493794237437	1.1276093	-9.872787	1.6383362
1493794237458	1.438324	-9.738892	1.6013641
1493794237479	1.026825	-9.602005	0.7346802
1493794237498	0.7619324	-9.535812	0.44499207
1493794237516	0.17008972	-9.70105	0.6843567
1493794237537	-0.49523926	-9.907242	0.5277252
1493794237556	-0.43278503	-10.081482	0.06712341
1493794237579	0.025238037	-10.139465	0.37355042
1493794237598	0.42637634	-9.8936	1.4175262
1493794237617	0.7583313	-9.848694	1.5656891
1493794237639	0.59259033	-9.842941	1.2118073
1493794237659	0.097854614	-10.13797	1.1508942
1493794237674	-0.050613403	-10.83757	1.9918976
1493794237696	0.9303894	-11.462799	1.1101074
1493794237716	1.490921	-11.359726	0.46565247
1493794237737	1.7365265	-10.799438	1.1930695
1493794237756	1.4098816	-10.537537	0.4187317
1493794237777	2.2282562	-10.530319	-0.28448486
1493794237793	3.4832	-10.978317	0.48532104
1493794237816	1.773468	-10.923828	0.5862427
1493794237834	3.1846008	-11.40715	0.57466125
1493794237854	1.4993591	-11.588654	-0.60147095
1493794237893	-1.9352112	-10.981293	-2.3590393
1493794237912	-4.350296	-10.74382	-2.697281
1493794237932	-5.4356384	-11.678558	-0.5861969
1493794237955	-7.0245667	-13.9340515	0.88282776
1493794237972	-8.297058	-15.235855	1.7052612
1493794237993	-6.4835815	-13.400726	0.50631714
1493794238012	-5.1983643	-12.735397	-1.0943756
1493794238032	-3.2508087	-11.284775	-0.49349976
1493794238052	-0.21697998	-10.630157	0.86442566
1493794238072	2.8831024	-9.920944	-0.50979614
1493794238093	3.3542328	-8.291977	-0.54141235
1493794238112	1.0745392	-8.472977	0.41223145
1493794238129	-0.6854248	-7.505783	0.9277649
1493794238154	-2.0202484	-6.2480164	0.57310486
1493794238171	-2.4743195	-5.1372833	0.1580658
1493794238192	-2.66922	-4.3794403	0.24739075
1493794238211	-2.7618408	-4.1755066	0.0046539307
1493794238229	-2.3632202	-4.093277	-0.5135956
1493794238254	-1.6707153	-4.683441	-1.3319092
1493794238269	-1.0233154	-5.9527893	-2.967453
1493794238288	-0.23762512	-7.98938	-5.6186676
1493794238308	0.46224976	-10.142166	-7.506836
1493794238334	1.0171814	-11.364929	-7.7066803
1493794238348	0.6721649	-10.981583	-7.7019196
1493794238371	-0.31936646	-9.666779	-7.5261383
1493794238386	-1.3048859	-9.60965	-8.301041
1493794238407	-1.5594025	-10.631882	-7.9185333
1493794238426	-1.1047974	-10.606735	-6.7085266
1493794238447	-1.0475159	-8.338348	-6.329941
1493794238466	-2.2010803	-5.8103943	-6.3669434
1493794238485	-4.3791046	-5.0838013	-6.305664
1493794238507	-7.4808044	-7.1508484	-5.3084564
1493794238525	-9.83786	-12.938736	-4.941345
1493794238547	-8.156601	-18.099564	-4.52388
1493794238567	-1.4956207	-14.977051	-2.7429352
1493794238588	2.2571564	-7.305023	3.6556244
1493794238605	0.5885925	-2.1169128	7.234955
1493794238623	-2.3509216	-3.7351837	4.8314514
1493794238642	-3.0230408	-9.438538	2.8571625
1493794238662	-0.44158936	-13.8364105	1.9077606
1493794238681	2.782959	-15.378235	1.3024597
1493794238701	3.34346	-13.379562	0.3349762
1493794238721	2.9814148	-10.484222	0.37077332
1493794238741	2.363449	-10.207077	0.83444214
1493794238760	0.894577	-8.37793	2.0253143
1493794238779	-0.5551758	-8.291916	0.05531311
1493794238800	-1.590744	-8.855301	-0.5167694
1493794238820	-1.8704987	-9.498779	-1.0050964
1493794238840	-1.8367615	-10.018173	0.3735199
1493794238859	-2.1493988	-9.799179	0.24591064
1493794238880	-1.3046722	-9.173782	0.6598053
1493794238899	-0.21929932	-9.135498	0.92526245
1493794238920	2.0245972	-9.206299	2.5076141
1493794238939	3.0150452	-9.158844	0.57458496
1493794238977	2.9140015	-9.253784	-0.6897278
1493794238998	1.489685	-9.31517	-0.7188721
1493794239018	-0.16404724	-9.516846	-0.105392456
1493794239037	-1.1034241	-9.763031	0.9144287
1493794239057	-1.0210571	-9.841751	1.704483
1493794239077	0.2695465	-10.393448	2.156067
1493794239097	2.1511993	-11.353592	2.309082
1493794239116	3.154068	-12.110382	1.2209167
1493794239136	2.0764313	-12.060898	-0.041152954
1493794239156	1.5529785	-12.224106	-1.0973053
1493794239176	3.6040802	-12.5903015	0.12989807
1493794239196	4.7527466	-13.400055	-1.1631165
1493794239215	4.2583313	-12.198105	-2.4311523
1493794239234	1.384552	-10.915695	-2.6656647
1493794239255	-2.6478577	-9.970825	-2.675064
1493794239275	-3.7762299	-10.820328	-0.046401978
1493794239295	-4.443161	-12.843552	1.8401642
1493794239314	-5.9674225	-16.913239	1.9002533
1493794239334	-6.0269165	-18.110092	0.70635986
1493794239354	-3.8453064	-14.459518	-1.4949493
1493794239374	-3.1248016	-11.743607	-1.0069733
1493794239394	-3.3300323	-11.734116	0.06404114
1493794239413	-2.5986633	-11.316208	0.6764984
1493794239434	-0.40908813	-10.53302	0.52793884
1493794239453	1.4001617	-9.536163	-0.9337921
1493794239473	1.6616516	-8.252121	-1.2298584
1493794239492	1.1800232	-6.9273834	0.5626831
1493794239512	0.15063477	-5.3905487	1.5445251
1493794239531	-1.354065	-3.7058563	1.7899323
1493794239552	-2.4926758	-2.8402557	1.3357849
1493794239572	-2.711319	-2.860962	0.6785736
1493794239591	-2.5538635	-3.241043	0.09124756
1493794239611	-2.0977936	-4.075409	-1.0321045
1493794239631	-1.4216003	-5.431549	-2.7921295
1493794239651	-0.22566223	-7.425949	-5.560791
1493794239671	1.8485413	-10.249817	-7.3682404
1493794239690	1.8662109	-12.358704	-7.9120483
1493794239710	0.054336548	-11.651901	-8.916214
1493794239730	-0.763443	-10.165894	-9.721252
1493794239750	-0.022888184	-10.467834	-9.013351
1493794239769	1.759018	-11.139618	-8.012375
1493794239789	1.3823853	-8.789978	-7.157364
1493794239809	-1.3522186	-6.1338043	-7.6797333
1493794239829	-6.7348175	-9.560989	-7.0361176
1493794239849	-11.475632	-17.511642	-5.191925
1493794239868	-7.75914	-17.675186	-1.0354004
1493794239888	-1.6477509	-9.395279	1.0217133
1493794239908	-0.22875977	-4.7239532	6.6057434
1493794239928	-3.1076355	-4.070511	7.785263
1493794239948	-3.4884949	-8.637848	6.321747
1493794239967	0.08934021	-12.879272	3.300888
1493794239988	2.5995483	-15.247589	0.08679199
1493794240007	2.4664917	-13.973511	-0.8855438
1493794240027	2.4718628	-11.224411	-0.26733398
1493794240046	1.3024445	-9.844162	1.0943298
1493794240067	0.103897095	-8.75528	0.71788025
1493794240106	-0.8885803	-7.722183	-0.04008484
1493794240126	-1.2217407	-8.010498	0.052246094
1493794240145	-1.2651367	-8.93956	-0.86569214
1493794240165	-0.70544434	-9.557129	-0.65782166
1493794240185	-0.26374817	-9.273926	-0.70910645
1493794240205	-0.018920898	-8.5177765	-0.9107361
1493794240224	-0.055862427	-8.566681	0.07511902
1493794240244	0.5268707	-8.525558	0.8004303
1493794240265	0.7644043	-8.853043	0.14277649
1493794240284	0.66726685	-10.020676	-0.1628418
1493794240304	0.8592682	-11.182571	-0.09516907
1493794240324	1.2835236	-11.74025	-0.25820923
1493794240342	0.92881775	-8.975021	2.1092072
1493794240363	-0.00642395	-9.761551	1.2616425
1493794240383	-1.1895447	-10.503311	1.9996643
1493794240403	-1.0478363	-11.403412	1.760376
1493794240422	0.761261	-12.25058	1.5826569
1493794240442	1.1907196	-12.494644	1.062149
1493794240462	0.7418976	-12.168167	-0.47364807
1493794240482	2.332367	-12.125534	-1.0491333
1493794240501	4.77948	-12.225067	-0.82077026
1493794240521	5.553955	-12.093002	-1.513031
1493794240542	4.355194	-11.677704	-2.7709045
1493794240561	0.96473694	-10.943527	-2.7367096
1493794240581	-2.203659	-10.52858	-0.66249084
1493794240600	-3.3543396	-12.08252	2.029419
1493794240620	-5.4382935	-14.939224	3.901886
1493794240639	-6.981735	-17.355194	2.2562408
1493794240660	-6.122452	-16.50084	-0.66326904
1493794240679	-4.660324	-14.100037	-1.8440247
1493794240699	-4.260071	-12.857605	-1.1538086
1493794240719	-4.1911774	-11.983383	-0.034820557
1493794240739	-1.1792297	-10.447876	1.6459198
1493794240759	2.5653229	-8.958435	-0.29966736
1493794240778	3.908615	-8.018677	-0.41496277
1493794240798	2.5172424	-7.2446136	2.1488037
1493794240818	-0.26480103	-5.7073517	3.2956848
1493794240838	-2.7626038	-3.8460236	3.007309
1493794240858	-3.9942627	-2.5920715	2.7790375
1493794240878	-4.0767365	-2.3000336	2.236084
1493794240897	-3.5094604	-2.7375946	1.1551971
1493794240917	-2.9412537	-3.7035065	-0.34828186
1493794240936	-2.139618	-6.1868286	-3.6809692
1493794240957	-0.92715454	-10.387192	-7.4025116
1493794240977	-0.22306824	-14.108826	-7.2634277
1493794240996	-2.0862885	-13.336075	-9.210434
1493794241016	-3.9648743	-10.211319	-9.574768
1493794241036	-2.8232574	-9.443756	-7.9397736
1493794241055	-0.29171753	-10.120514	-6.3199463
1493794241075	0.039154053	-9.067627	-5.8459015
1493794241096	-1.1575928	-6.080246	-5.157501
1493794241115	-2.4399414	-3.3618164	-5.10849
1493794241135	-5.4363556	-5.762192	-7.193802
1493794241154	-9.332489	-14.818878	-9.54335
1493794241174	-7.9907227	-19.454208	-8.724976
1493794241214	-0.070007324	-11.527557	-0.5158844
1493794241234	-1.7476501	-1.7896118	4.6214447
1493794241253	-4.5031433	-1.4741211	2.5482788
1493794241273	-2.870636	-5.3443604	8.216354
1493794241293	-4.584549	-11.978149	3.8590698
1493794241313	-1.21315	-16.271881	1.9351501
1493794241333	4.807831	-16.84665	2.8344727
1493794241352	4.223694	-14.726181	0.83636475
1493794241372	2.4962463	-12.285599	-0.22250366
1493794241392	0.8390198	-10.989853	-0.57299805
1493794241412	-0.39030457	-10.465759	0.23745728
1493794241432	-1.9085083	-8.763428	1.682373
1493794241450	-2.5307922	-9.188965	-0.14227295
1493794241471	-1.5480499	-9.083389	-0.7988739
1493794241491	-1.026413	-9.513718	-0.40893555
1493794241510	-0.7339783	-9.435547	-0.6007843
1493794241530	-0.66841125	-8.3823395	-0.104263306
1493794241549	-0.24055481	-7.8401184	-0.22158813
1493794241570	0.057495117	-7.8468475	-0.04940796
1493794241590	0.6536102	-8.068237	0.5594635
1493794241609	1.1182556	-8.217087	0.462677
1493794241629	1.3446808	-8.344711	0.26278687
1493794241648	1.0872803	-8.753616	0.98023987
1493794241669	0.82522583	-9.813416	1.1119843
1493794241688	0.4674225	-11.504166	0.03692627
1493794241708	-0.54733276	-12.365082	0.27000427
1493794241728	-0.37225342	-12.431046	0.30889893
1493794241747	1.6858368	-12.222977	0.5778656
1493794241768	2.5158386	-12.227371	0.6757355
1493794241787	1.9314575	-11.973785	-0.21084595
1493794241807	2.5991974	-11.783264	-0.9712677
1493794241827	3.6155243	-12.249222	-1.1628418
1493794241846	3.7536469	-12.645172	-1.7048187
1493794241867	2.6989288	-12.21138	-2.404663
1493794241886	0.104599	-11.484039	-2.2370453
1493794241906	-2.5651703	-10.977631	-0.90919495
1493794241926	-4.6608276	-12.365112	1.3586731
1493794241946	-7.253723	-15.471252	3.116806
1493794241965	-8.155197	-17.251572	1.9159393
1493794241985	-6.174698	-15.976654	-1.0886688
1493794242005	-4.3999786	-13.794296	-1.9401093
1493794242025	-2.7695007	-12.359024	-0.5030823
1493794242045	0.6572418	-11.7148285	3.0123596
1493794242064	5.1393585	-10.374451	0.21772766
1493794242084	3.9969025	-8.804626	-0.8559265
1493794242104	2.0195313	-7.26651	1.7723236
1493794242124	-0.7896271	-5.519348	3.3654785
1493794242144	-2.697754	-3.9348602	3.2089233
1493794242163	-3.3235474	-2.9002228	3.334259
1493794242183	-3.5978546	-2.2759705	3.6411896
1493794242202	-3.557251	-1.9906769	2.6161194
1493794242223	-3.0113983	-2.3433533	0.8497162
1493794242242	-2.635666	-3.672699	-1.7729034
1493794242262	-2.872467	-6.638092	-7.4424896
1493794242282	-2.0049744	-13.056442	-8.353516
1493794242323	-1.1259155	-16.869995	-10.900757
1493794242341	-0.97839355	-14.766327	-12.012299
1493794242361	-2.4472961	-10.265991	-9.279053
1493794242381	-1.6213226	-8.597061	-6.5217896
1493794242401	-1.9252014	-8.0850525	-6.6970367
1493794242421	-5.0656433	-8.056335	-8.34494
1493794242441	-8.920425	-13.863281	-8.797836
1493794242460	-5.2441406	-15.87764	-4.816101
1493794242480	-1.2321167	-9.633972	2.5108185
1493794242500	-2.6599274	-3.5295105	5.7338867
1493794242520	-5.047821	-4.50148	5.7164917
1493794242539	-4.589157	-8.242859	5.343109
1493794242558	-1.2775574	-12.295883	5.23761
1493794242579	2.5075073	-14.676498	2.7255707
1493794242599	4.6022186	-13.849365	1.6539154
1493794242618	2.8117676	-12.501099	0.1676178
1493794242638	2.3118286	-11.296295	0.19485474
1493794242657	1.0278015	-10.34996	0.5611267
1493794242678	-0.6893616	-8.176712	1.7214661
1493794242697	-1.8834534	-8.362732	-0.2527008
1493794242717	-2.3715057	-8.682053	-0.76449585
1493794242737	-2.445816	-9.193115	-0.6160126
1493794242757	-2.5354462	-9.340256	-1.1359558
1493794242777	-1.8354645	-9.046509	-0.09686279
1493794242796	-0.51942444	-8.953964	0.4102478
1493794242816	0.8892975	-9.19162	0.1921997
1493794242836	1.0273438	-9.172562	0.4629364
1493794242855	0.560379	-8.786484	0.58654785
1493794242876	0.30020142	-9.057144	0.5893707
1493794242895	0.43754578	-9.755157	0.28938293
1493794242915	0.65245056	-10.397278	-0.15055847
1493794242935	0.20440674	-11.36142	0.040893555
1493794242955	-0.10058594	-12.098633	0.13197327
1493794242975	0.5457306	-11.699234	-0.05014038
1493794242994	2.3202515	-11.237976	1.018753
1493794243014	3.0641174	-11.656769	1.5857697
1493794243034	1.8292999	-12.067505	-0.124938965
1493794243054	2.0052338	-12.557617	-0.4689331
1493794243074	3.1845856	-12.976929	-0.7298584
1493794243093	4.0829163	-12.886047	-1.9823456
1493794243113	1.8281555	-12.217392	-2.7779846
1493794243133	-2.188324	-10.718048	-2.8968506
1493794243153	-4.1030426	-11.209793	0.035308838
1493794243172	-5.646515	-13.568497	2.4896545
1493794243192	-7.6701965	-16.858566	2.8235931
1493794243212	-7.650467	-17.265488	0.86753845
1493794243232	-5.7955017	-14.529938	-1.489502
1493794243251	-4.4241486	-11.230713	-1.2167816
1493794243271	-3.9895935	-11.041641	-0.13938904
1493794243291	1.0604248	-10.4841	2.5653076
1493794243310	4.0253754	-9.69841	-0.27075195
1493794243331	4.38678	-8.702789	0.21273804
1493794243350	1.9830475	-7.6623993	2.0786285
1493794243370	-1.218338	-5.640259	3.5079498
1493794243390	-3.6697693	-4.1766357	3.0039215
1493794243409	-4.14859	-2.8261871	3.3993225
1493794243450	-4.0044556	-1.9397583	3.110672
1493794243468	-3.3096008	-1.6818695	1.9346008
1493794243489	-2.8695984	-2.6792297	0.04194641
1493794243508	-2.3630981	-4.3314056	-3.065277
1493794243529	-2.9463959	-8.494446	-8.4109955
1493794243548	-2.3406525	-13.954834	-6.646759
1493794243568	-2.412613	-15.956406	-12.287186
1493794243588	-3.6591187	-12.931641	-11.671326
1493794243607	-3.4907837	-10.154846	-8.231247
1493794243628	-1.6961823	-9.041031	-5.334076
1493794243647	-2.7775116	-8.337463	-6.240402
1493794243666	-6.70697	-9.942459	-8.874268
1493794243687	-7.7219086	-15.619415	-8.658005
1493794243706	-4.4756927	-14.927444	-1.3960876
1493794243726	-1.025711	-7.737488	5.889282
1493794243746	-1.9527893	-2.676773	9.15654
1493794243765	-5.185013	-5.83403	6.8562317
1493794243786	-2.642517	-8.8582	6.660034
1493794243806	-0.048919678	-13.162521	3.633957
1493794243825	2.6285706	-15.584961	1.1747589
1493794243845	4.5451355	-13.818085	1.3996582
1493794243865	2.497757	-12.237381	0.4963379
1493794243885	0.49745178	-9.333359	0.77033997
1493794243904	-1.4098969	-7.967148	0.89707947
1493794243924	-2.835617	-8.219238	-0.6056061
1493794243944	-3.0810394	-8.786331	-0.9990082
1493794243963	-2.368103	-9.380035	-0.33180237
1493794243983	-0.9220123	-9.49559	0.30715942
1493794244003	0.39587402	-9.370956	0.15144348
1493794244023	1.0807037	-9.361755	-0.047042847
1493794244043	1.1435547	-9.246292	-0.14379883
1493794244062	0.6280823	-9.0638275	-0.12159729
1493794244082	-0.012054443	-8.968048	0.07896423
1493794244102	0.039093018	-8.937454	0.50561523
1493794244122	0.95080566	-8.527008	0.626709
1493794244142	0.84262085	-9.38237	-0.057769775
1493794244161	0.62138367	-10.905762	-0.854599
1493794244181	0.4633789	-11.639252	-0.4083557
1493794244201	0.49189758	-11.653076	-0.028961182
1493794244221	1.0710907	-11.439285	0.40013123
1493794244241	1.1520386	-11.203217	1.1178131
1493794244260	0.17633057	-11.076523	-0.3929901
1493794244280	-0.18916321	-10.749847	-1.9727325
1493794244300	1.2497559	-11.403824	-1.6938782
1493794244320	3.211609	-12.192734	-1.8567963
1493794244345	4.806793	-12.135757	-1.7735596
1493794244360	3.0533295	-11.61174	-1.0605621
1493794244379	-2.4330902	-10.691971	-1.6765137
1493794244399	-6.6358337	-12.5907135	0.31632996
1493794244418	-8.438782	-15.828583	3.2252045
1493794244439	-8.660797	-17.124893	2.4853363
1493794244459	-6.1111603	-14.847702	0.3526764
1493794244479	-4.3702545	-12.742432	-1.7990112
1493794244500	-2.699524	-11.478546	-2.3495789
1493794244520	2.4924164	-10.999451	3.3650055
1493794244540	4.447998	-10.860275	0.85920715
1493794244582	1.8475647	-9.454254	-0.9081726
1493794244601	0.003768921	-7.986206	0.48364258
1493794244620	-1.680191	-6.5625305	2.4256287
1493794244644	-2.616806	-4.781479	2.735611
1493794244644	-3.1082916	-3.704132	2.961609
1493794244678	-3.4774017	-2.9842072	2.9095764
1493794244699	-3.5773773	-2.894455	2.4214935
1493794244720	-3.3951416	-2.9545288	1.243103
1493794244739	-2.813034	-3.4131317	-0.0847168
1493794244758	-3.2363281	-5.4614563	-2.7320404
1493794244779	-3.1476898	-9.420181	-7.0561066
1493794244798	-1.2167206	-14.892563	-10.591415
1493794244818	-0.2544403	-17.220764	-11.902252
1493794244837	-0.8072357	-13.475464	-11.283203
1493794244865	-1.5223999	-10.22612	-7.620453
1493794244875	-1.649704	-8.722244	-6.0820923
1493794244896	-2.8729248	-7.1980133	-6.4040375
1493794244915	-4.4841156	-7.22554	-6.243759
1493794244935	-6.0201416	-11.630295	-6.932083
1493794244955	-5.2924347	-15.095215	-4.308441
1493794244976	-3.0068207	-12.26651	0.5960388
1493794244996	-3.120163	-6.3150024	3.387741
1493794245017	-4.251068	-4.429245	4.617584
1493794245042	-4.362793	-5.9581146	5.312042
1493794245055	-2.3185425	-9.6510315	6.5091705
1493794245073	0.9498596	-14.389023	3.6421661
1493794245097	4.086838	-15.61525	0.95118713
1493794245115	3.7069397	-13.674118	-0.38780212
1493794245136	1.5197754	-10.213394	0.45567322
1493794245155	-0.34725952	-8.3211975	1.2028656
1493794245173	-2.219223	-8.096313	0.23802185
1493794245195	-3.1374664	-8.047516	-0.071777344
1493794245214	-2.9565735	-8.732864	0.11608887
1493794245235	-2.5922852	-9.2825165	-1.1169434
1493794245255	-1.525589	-9.217255	-0.51490784
1493794245271	0.04650879	-9.36142	0.7236023
1493794245292	1.0261078	-9.785812	-0.03845215
1493794245314	1.096405	-9.785095	-0.5372925
1493794245334	0.2731018	-9.391342	0.17193604
1493794245364	-0.3815155	-9.229019	0.4149933
1493794245371	-0.479599	-9.1679535	0.43391418
1493794245392	-0.38764954	-9.534088	0.22712708
1493794245410	-0.7348175	-10.336121	0.3934021
1493794245430	0.1487732	-11.50766	0.12614441
1493794245451	0.4242401	-12.017212	-0.65722656
1493794245471	1.0983124	-11.659637	-0.49658203
1493794245489	1.3369598	-11.480194	0.74739075
1493794245512	1.0156097	-11.733597	0.6453247
1493794245530	0.23075867	-11.366348	-0.89901733
1493794245550	0.019439697	-10.957825	-1.0839386
1493794245571	1.7166595	-12.502136	-0.18522644
1493794245590	2.94635	-12.751175	-1.6271667
1493794245611	3.8588562	-11.960739	-1.9251251
1493794245631	-0.30249023	-10.556305	-1.8190002
1493794245670	-4.830139	-9.786591	-2.425644
1493794245688	-6.751068	-12.258636	1.2960815
1493794245707	-8.423798	-15.707748	3.114151
1493794245728	-8.964615	-17.180405	2.29039
1493794245747	-5.999527	-14.747009	-0.7045593
1493794245768	-4.7424316	-12.495224	-1.8477783
1493794245788	-1.7850037	-11.028152	-0.5559082
1493794245807	1.4993591	-10.931473	2.2650757
1493794245828	3.5905304	-10.492172	0.7568817
1493794245845	1.3056946	-8.744064	0.6776123
1493794245865	-0.14823914	-7.2164	2.0428772
1493794245884	-1.7814636	-5.693619	3.2547455
1493794245905	-3.0049438	-4.411667	2.5630798
1493794245924	-3.3849792	-3.3854065	2.8814087
1493794245944	-3.4956512	-2.6641693	2.7995758
1493794245964	-3.2648315	-2.4141235	1.6282043
1493794245983	-2.7765656	-2.6266785	0.11378479
1493794246003	-2.4905548	-3.9704285	-1.85849
1493794246023	-2.5791168	-7.0565643	-6.0818024
1493794246045	-2.7133179	-12.611374	-11.353928
1493794246064	-2.2537537	-16.83905	-12.522919
1493794246083	-2.2065277	-14.947266	-12.839966
1493794246104	-2.320755	-10.065277	-8.748703
1493794246122	-2.5771637	-7.560196	-5.855011
1493794246145	-3.694992	-6.403946	-5.819748
1493794246164	-6.823715	-9.561188	-7.401169
1493794246185	-8.023941	-16.50293	-7.6872864
1493794246204	-5.19516	-16.301483	-2.9819183
1493794246222	-1.7292786	-7.7196503	4.751541
1493794246244	-2.0112305	-3.3372955	6.6733704
1493794246263	-3.1007233	-4.694824	6.4605713
1493794246281	-1.9172211	-9.172562	6.2882843
1493794246301	-0.10494995	-14.49411	3.3216095
1493794246320	2.448227	-16.257858	0.9608917
1493794246340	2.509079	-14.484528	-0.1186676
1493794246361	1.491272	-11.411011	0.8657074
1493794246377	0.18588257	-9.254059	1.5741882
1493794246397	-1.415451	-8.433456	0.9346771
1493794246416	-3.2094116	-8.156464	-0.31304932
1493794246436	-3.923584	-8.320129	-0.9560394
1493794246456	-2.5718384	-9.075226	-0.21568298
1493794246477	-1.4859314	-9.25798	0.34025574
1493794246499	-0.38046265	-9.155869	0.38667297
1493794246519	0.3683777	-9.277054	-0.027267456
1493794246537	0.77815247	-9.434616	-0.2429657
1493794246557	0.6170807	-9.428589	-0.17500305
1493794246576	0.15335083	-9.179993	0.13838196
1493794246596	0.1758728	-9.03511	-0.010253906
1493794246618	0.23544312	-9.614746	-0.5039673
1493794246634	0.43011475	-9.800903	-0.7662506
1493794246662	0.05722046	-10.880371	-0.40760803
1493794246678	-0.88301086	-11.6788025	-0.47869873
1493794246696	-0.94273376	-10.994263	0.70199585
1493794246718	1.3993683	-11.159256	1.0687408
1493794246734	1.8937988	-11.759125	0.7225647
1493794246776	0.5441437	-11.167099	-1.0749207
1493794246795	0.4557953	-11.920074	-1.7689514
1493794246818	2.0149689	-13.526779	-1.9720612
1493794246834	3.5473633	-13.127991	-2.006897
1493794246860	1.504837	-11.324921	-1.655304
1493794246873	-3.7401276	-10.991043	-3.130478
1493794246894	-6.0893707	-12.232819	0.28094482
1493794246913	-8.138107	-15.21199	2.5622559
1493794246933	-9.174683	-17.13649	2.5508575
1493794246952	-7.2753296	-15.8685	-0.057235718
1493794246974	-5.336899	-13.584839	-1.5230255
1493794246992	-3.1168213	-11.402542	-1.3393402
1493794247014	-0.087142944	-10.789398	0.86357117
1493794247035	3.8209686	-10.443008	1.3526459
1493794247052	2.8042755	-9.111832	0.24546814
1493794247074	0.8287811	-7.4107056	1.376297
1493794247093	-1.3086395	-5.580551	2.8502502
1493794247114	-2.4861755	-3.8096619	2.989975
1493794247131	-3.1045685	-3.1184998	2.7882538
1493794247155	-3.0677338	-2.5615997	2.7627563
1493794247170	-3.0226288	-2.5881805	2.0522614
1493794247190	-2.6819763	-3.1109161	0.57862854
1493794247214	-2.3730469	-4.493744	-1.348465
1493794247233	-2.2088318	-7.428482	-4.5986786
1493794247251	-2.1797333	-12.28389	-8.584015
1493794247271	-2.5469208	-16.297867	-11.816498
1493794247292	-3.0782928	-14.988388	-12.35788
1493794247312	-3.1438599	-10.947113	-9.395157
1493794247331	-2.3688202	-8.933105	-5.8385773
1493794247351	-1.9530792	-7.611557	-4.8095856
1493794247371	-2.5210876	-5.5891113	-5.216629
1493794247390	-4.830612	-6.9773865	-5.8173676
1493794247408	-7.2804565	-12.784836	-5.5402374
1493794247427	-5.9736786	-15.54129	-2.1324005
1493794247447	-2.689804	-12.422546	1.0721893
1493794247468	-2.7175598	-8.054749	3.66568
1493794247488	-4.5932617	-5.341034	5.4592133
1493794247512	-3.7640076	-6.287842	6.6349945
1493794247529	-2.8695526	-11.738205	4.9168396
1493794247550	1.4329529	-14.6549835	2.164093
1493794247567	3.800171	-14.997269	0.6081085
1493794247586	3.0243378	-13.178711	0.905426
1493794247609	0.7701111	-9.908051	0.19868469
1493794247628	-0.99186707	-8.529022	0.3083191
1493794247648	-2.792801	-7.9561768	-0.026290894
1493794247667	-3.67865	-8.007278	-0.35717773
1493794247687	-3.7039795	-8.536453	-0.8462677
1493794247704	-2.2651062	-9.174667	-0.8837738
1493794247727	-1.2226563	-9.482193	-0.6546173
1493794247750	0.20666504	-9.572205	-0.2695465
1493794247764	0.9046631	-9.764374	-1.084732
1493794247786	0.5797119	-9.748016	-0.6919403
1493794247803	-0.5675659	-9.561249	0.59059143
1493794247826	-1.2170715	-9.2308655	1.3544159
1493794247852	-0.8848572	-8.732956	0.95648193
1493794247883	-0.09680176	-9.319229	-0.46543884
1493794247902	0.62960815	-9.971405	-1.6734772
1493794247922	0.23254395	-11.053116	-0.85517883
1493794247941	-0.55181885	-11.665558	-0.09866333
1493794247962	-0.49394226	-11.127182	-0.052520752
1493794247984	-0.24809265	-10.590805	0.8929596
1493794248002	-0.0015106201	-10.922226	0.7257385
1493794248023	0.116256714	-11.095886	0.5871124
1493794248042	0.53352356	-11.43663	-1.1285706
1493794248061	1.4201202	-12.797577	-1.0992737
1493794248082	3.0372314	-13.436157	-0.7580261
1493794248101	2.845169	-12.644745	-2.0989838
1493794248123	-0.65364075	-10.698929	-2.7747192
1493794248142	-4.505615	-9.534149	-1.9329376
1493794248162	-6.6652374	-10.358322	-0.4013977
1493794248182	-6.9529114	-12.077972	1.6524658
1493794248202	-6.7129364	-13.734955	2.5096893
1493794248219	-5.0554047	-13.965179	1.2640076
1493794248242	-3.714203	-13.1757965	-0.45004272
1493794248261	-2.690277	-12.026703	-0.80792236
1493794248280	-0.27944946	-10.834671	1.053299
1493794248301	1.266983	-10.032074	1.4741516
1493794248321	1.0475769	-9.250839	0.5940857
1493794248337	0.2490387	-8.225311	0.7312927
1493794248358	-0.4224701	-7.2418365	1.3118134
1493794248377	-1.2345734	-6.4817505	1.5861511
1493794248396	-2.1100006	-5.61644	1.8806305
1493794248417	-2.480896	-4.811981	1.9014893
1493794248436	-2.3991394	-4.238312	1.2830658
1493794248456	-2.3322449	-4.594635	-0.093811035
1493794248475	-2.1737976	-6.139084	-1.8559265
1493794248497	-2.336441	-9.07251	-6.111435
1493794248519	-2.5134735	-13.210953	-7.71373
1493794248541	-2.7244873	-14.310059	-7.850418
1493794248556	-3.3865814	-12.392456	-7.0017242
1493794248576	-3.835205	-9.407166	-4.14386
1493794248596	-4.372101	-7.277939	-3.0604553
1493794248615	-5.0835266	-7.0856934	-3.6425781
1493794248638	-5.2060394	-7.757599	-2.0905457
1493794248654	-4.158203	-7.0866394	2.752365
1493794248675	-3.9541626	-7.710373	4.2081604
1493794248695	-4.837387	-9.292389	3.3276367
1493794248714	-5.6410522	-11.8983	1.6602783
1493794248736	-3.0763702	-16.3266	0.46220398
1493794248753	1.3847351	-18.76271	-0.5786438
1493794248772	5.8034973	-14.569977	-0.49971008
1493794248792	5.508911	-10.755875	1.4192505
1493794248812	2.826645	-9.190384	3.1408997
1493794248833	-0.44311523	-8.742355	2.8199158
1493794248856	-3.1921844	-8.445297	1.8566895
1493794248882	-3.583374	-8.0768585	0.78222656
1493794248891	-2.707962	-7.893814	0.15159607
1493794248910	-2.2443085	-8.264542	-0.6417999
1493794248947	-2.2855682	-8.796997	-1.5892334
1493794248968	-1.1801758	-9.294647	-0.91044617
1493794248989	-0.36296082	-9.779938	-0.34942627
1493794249007	-0.54248047	-10.194962	-0.034973145
1493794249029	-1.5703888	-10.430435	0.30815125
1493794249048	-2.7760773	-10.580566	-0.04522705
1493794249069	-2.9605865	-10.686279	-0.010269165
1493794249087	-2.429184	-10.591293	0.45059204
1493794249107	-2.28714	-10.383102	0.35102844
1493794249130	-2.0712585	-10.022217	-0.25082397
1493794249146	-1.3002777	-9.833862	-0.23965454
1493794249168	-0.3100586	-9.81987	0.078201294
1493794249187	0.2372284	-9.729385	0.6658478
1493794249205	-0.027832031	-9.513077	1.2180176
1493794249227	-0.27087402	-9.355881	1.5142365
1493794249245	-0.105895996	-9.516556	1.5248566
1493794249265	0.62210083	-9.795395	1.1623993
1493794249287	1.3787079	-10.076935	0.875885
1493794249306	1.736206	-10.640121	0.8328247
1493794249327	1.1810913	-11.619583	0.76364136
1493794249346	-1.0358276	-12.830643	0.09750366
1493794249366	-3.5442352	-12.815887	-1.525116
1493794249387	-3.4421692	-10.790039	-2.7929077
1493794249406	-2.235672	-10.019577	-3.1889648
1493794249425	-1.4769592	-10.021576	-2.69339
1493794249445	-1.8005981	-10.099411	-1.8157959
1493794249464	-2.7756195	-11.285736	-1.1831512
1493794249485	-2.9656372	-12.671692	-0.8164978
1493794249505	-1.5292511	-12.209152	-1.3208466
1493794249525	-0.04914856	-10.769775	-1.6301422
1493794249544	1.2507324	-9.797089	-0.4850464
1493794249566	2.1437378	-9.478943	1.7649384
1493794249583	1.3600922	-9.474487	3.7732086
1493794249605	-0.09391785	-9.603546	4.123459
1493794249623	-0.5473633	-10.064957	2.486969
1493794249643	-1.0588379	-10.041779	-0.40089417
1493794249665	-2.4308014	-10.405975	-2.3720856
1493794249682	-3.1029205	-10.058609	-1.5622711
1493794249704	-3.6894531	-9.503494	-0.2637787
1493794249723	-3.9136047	-9.226593	0.40925598
1493794249742	-3.5496368	-9.110672	-0.111953735
1493794249763	-3.1277924	-8.5724945	-0.73095703
1493794249782	-2.8054657	-7.7192535	-1.287857
1493794249803	-2.8011017	-6.9583893	-1.4679108
1493794249822	-2.9235077	-6.6095734	-1.6800232
1493794249841	-2.9531403	-6.6367645	-2.0093231
1493794249862	-2.6542969	-6.9032135	-2.6189728
1493794249882	-2.3652954	-7.273178	-3.0997925
1493794249902	-2.4343414	-8.054855	-3.6036987
1493794249920	-3.2501373	-9.193787	-4.549408
1493794249939	-3.8470154	-10.354019	-6.5460205
1493794249958	-3.8268127	-10.47023	-6.5829773
1493794249980	-3.5985413	-9.486694	-5.966507
1493794249998	-3.6458588	-8.527298	-5.765732
1493794250020	-2.8233948	-8.015717	-5.048004
1493794250058	-2.8909302	-7.5798035	-5.2491913
1493794250080	-3.4109955	-7.006592	-5.642441
1493794250099	-5.212799	-7.1285095	-6.943512
1493794250116	-8.704208	-10.7968445	-6.402237
1493794250138	-7.940613	-14.908493	-5.146286
1493794250159	-4.514618	-12.39415	-1.2428436
1493794250182	-2.7278137	-7.826767	1.0978546
1493794250198	-1.7654877	-5.3034973	3.7509308
1493794250217	-1.8134918	-5.5178375	5.1638184
1493794250239	-1.8202972	-7.8632965	6.662567
1493794250258	-1.8938141	-10.666473	4.4332123
1493794250279	-0.57069397	-13.128632	1.7779236
1493794250298	0.76168823	-13.74852	0.9741821
1493794250314	1.6627808	-12.808441	0.1778717
1493794250340	0.8428955	-10.435928	-0.08390808
1493794250355	-0.76927185	-8.285492	0.31581116
1493794250376	-2.1646118	-7.9206543	0.88453674
1493794250398	-2.2792969	-8.761383	0.5069275
1493794250413	-2.0537567	-9.287003	-0.55296326
1493794250434	-1.7494049	-9.360153	-0.13667297
1493794250454	-0.42108154	-9.213898	0.8962555
1493794250473	0.72029114	-9.071091	0.43351746
1493794250496	0.8554077	-9.329178	0.13613892
1493794250512	0.2906952	-9.829086	0.5660553
1493794250532	-0.33303833	-9.937546	1.0427856
1493794250554	-0.9749603	-9.528152	0.64016724
1493794250573	-1.7709045	-10.046814	-0.075164795
1493794250596	-2.225586	-11.158951	-0.5965576
1493794250613	-1.5414429	-11.734222	-1.0250702
1493794250632	-0.30717468	-11.760712	-1.0924377
1493794250654	0.94740295	-11.639908	-0.28814697
1493794250674	1.95961	-11.901962	0.8041687
1493794250692	1.8903046	-12.234512	0.30751038
1493794250712	1.1982727	-11.923019	-1.4330444
1493794250732	1.4908447	-11.667572	-2.1815796
1493794250752	3.0374146	-12.269333	-2.6255798
1493794250773	4.2799683	-12.027618	-1.4921722
1493794250791	1.7660675	-11.305801	-1.4482269
1493794250811	-2.0556946	-11.331665	-0.81152344
1493794250832	-4.9453583	-12.674103	2.1154327
1493794250852	-7.807373	-15.347824	4.6325226
1493794250872	-9.489731	-17.018188	3.9116974
1493794250892	-8.530563	-15.757721	0.76242065
1493794250909	-6.6980286	-13.094452	-2.018097
1493794250930	-4.466263	-11.428833	-2.0672302
1493794250946	-0.5486603	-10.88295	0.978775
1493794250965	4.02771	-10.247925	-0.57302856
1493794250985	2.3766022	-9.088287	-0.05937195
1493794251006	1.5175018	-7.4506226	2.8315887
1493794251029	-0.38452148	-5.576309	4.1834106
1493794251045	-2.5845337	-3.900467	3.990097
1493794251064	-4.1354523	-2.953186	3.81456
1493794251084	-4.6125793	-2.0370483	3.2289581
1493794251105	-3.9285278	-1.693573	2.0852203
1493794251145	-3.0092468	-2.2155457	-0.14221191
1493794251164	-2.3771973	-4.1602173	-3.4208832
1493794251184	-2.5680542	-8.585907	-10.169815
1493794251204	-2.4681702	-13.222733	-7.20665
1493794251224	-4.4624023	-14.725174	-11.400177
1493794251248	-6.1414185	-10.912399	-9.236877
1493794251264	-4.9804688	-7.9833527	-7.1312866
1493794251284	-3.0560455	-7.779663	-5.3072968
1493794251306	-4.764557	-7.3591766	-7.1921387
1493794251326	-8.78804	-9.409714	-9.921921
1493794251347	-9.648239	-16.359589	-7.2787933
1493794251366	-4.6365356	-15.657608	-0.4928589
1493794251390	-0.20123291	-7.970749	5.4129486
1493794251403	-2.7378387	-3.6289215	7.1140747
1493794251422	-4.9170074	-4.5861053	6.256241
1493794251442	-2.377533	-9.430786	6.7093353
1493794251463	1.1568604	-13.873917	3.8871918
1493794251482	2.687912	-16.153732	1.0757446
1493794251504	2.3618774	-14.50972	-0.009689331
1493794251524	1.1729431	-11.377335	0.6435089
1493794251544	-0.11450195	-8.857483	1.3700562
1493794251562	-2.2088013	-8.247635	1.0642395
1493794251584	-3.4090118	-7.9900665	0.63931274
1493794251602	-3.434784	-8.426361	-0.10105896
1493794251624	-2.5850983	-9.146439	-0.91064453
1493794251643	-2.2454681	-9.606079	-0.9117584
1493794251661	-0.69281006	-9.608002	0.038848877
1493794251684	0.19985962	-9.309021	-0.47132874
1493794251701	-0.11190796	-8.762756	-0.4511261
1493794251723	-0.527298	-8.424072	0.5220947
1493794251742	-0.63275146	-8.719406	0.9926605
1493794251761	0.0594635	-9.8186035	0.25871277
1493794251784	0.68562317	-10.458313	0.15150452
1493794251799	0.95248413	-11.03479	0.08381653
1493794251821	0.37132263	-11.948273	-0.5177002
1493794251843	-0.84625244	-12.2148285	-0.82522583
1493794251860	-0.8852997	-11.884064	-0.089523315
1493794251879	0.8684845	-11.812027	1.281662
1493794251899	2.1415253	-11.902939	0.84757996
1493794251917	1.7841339	-12.284302	-0.4583435
1493794251937	1.1828461	-13.235001	-0.7090149
1493794251957	0.91477966	-12.844894	-2.0419617
1493794251976	1.3595123	-12.1727295	-4.8046875
1493794251996	-0.5182953	-10.164291	-4.2530365
1493794252018	-1.9788055	-10.554779	-1.9347687
1493794252037	-3.3688965	-11.00705	2.4517365
1493794252057	-6.2056885	-13.63295	3.8899841
1493794252076	-8.554382	-16.339203	2.756424
1493794252095	-7.706909	-16.195175	-0.2813263
1493794252116	-6.406479	-14.069412	-2.0715332
1493794252138	-5.5157776	-12.509735	-1.0944672
1493794252158	-4.1769104	-11.211563	0.0211792
1493794252176	2.0897064	-9.993042	1.9564362
1493794252195	4.229355	-9.709656	-0.6180725
1493794252216	2.6804657	-9.055618	1.5027771
1493794252257	0.58943176	-7.777466	3.087677
1493794252276	-2.3831482	-5.21846	3.072525
1493794252296	-4.4773407	-3.1329346	3.6556396
1493794252313	-4.2832184	-2.288559	3.855957
1493794252333	-3.6818848	-1.5704498	2.6857758
1493794252355	-2.8497314	-1.6869354	0.9884186
1493794252373	-2.5963745	-2.9526672	-0.89038086
1493794252393	-2.3514252	-5.8927917	-4.770645
1493794252412	-2.7164307	-10.886673	-9.785294
1493794252429	-4.49588	-14.9249115	-11.273392
1493794252449	-5.3135986	-14.339081	-11.010757
1493794252469	-4.469223	-10.936111	-8.626953
1493794252489	-2.9931183	-9.228058	-6.1944427
1493794252508	-3.7100525	-7.5211334	-6.749588
1493794252527	-5.910736	-6.2762604	-7.09079
1493794252550	-8.65509	-9.910828	-5.817917
1493794252568	-7.728058	-14.883499	-3.5924377
1493794252591	-3.6594238	-14.693512	0.10197449
1493794252611	-0.358963	-8.952194	5.075302
1493794252627	-1.5324554	-5.6736298	8.196701
1493794252649	-2.2367706	-6.7373047	8.103836
1493794252670	-1.6422882	-10.026321	5.831848
1493794252690	-1.0413666	-13.441132	2.1498108
1493794252711	-0.2998047	-14.316757	0.024261475
1493794252733	1.2647705	-12.5872345	0.42822266
1493794252751	1.2558746	-10.572662	1.1993713
1493794252770	-0.2393341	-8.611633	1.0837402
1493794252789	-1.9646149	-7.923523	-0.19558716
1493794252811	-2.5257416	-7.714905	-0.80867004
1493794252831	-2.3092346	-8.867386	-0.9397583
1493794252847	-1.9047241	-10.111633	-1.1372528
1493794252869	-0.37503052	-10.193237	-0.5415039
1493794252891	1.0673218	-9.668488	-0.6930237
1493794252906	1.4241943	-9.080643	-0.7623596
1493794252926	0.43167114	-8.854919	-0.266922
1493794252944	-0.6294708	-9.039169	0.49339294
1493794252963	-1.0606384	-9.42981	0.5262451
1493794252983	-0.9037018	-9.450073	0.22802734
1493794253004	-0.37542725	-10.111877	-0.18106079
1493794253024	-0.6214142	-10.858795	-0.095840454
1493794253044	-0.4290161	-11.162018	0.15777588
1493794253065	0.32707214	-11.52533	0.530777
1493794253084	1.7498932	-12.428955	1.5823059
1493794253103	1.5322723	-13.158569	1.3834991
1493794253122	-1.256012	-12.541595	-1.7128296
1493794253148	-0.8531494	-11.948105	-2.6694794
1493794253164	2.0254822	-13.066696	-2.7518616
1493794253182	4.289749	-12.820633	-3.3234406
1493794253206	2.8271027	-11.409134	-2.824707
1493794253225	-0.8896179	-10.490906	-1.9317017
1493794253244	-3.6893158	-10.461212	0.597702
1493794253267	-5.9588623	-13.722321	4.2786255
1493794253282	-8.597336	-16.56453	4.7506104
1493794253305	-8.302719	-16.813477	1.3383331
1493794253324	-5.832672	-14.587677	-2.0645752
1493794253365	-4.3523254	-12.219116	-2.771988
1493794253394	-2.3583832	-10.916519	-0.36105347
1493794253403	4.4825897	-10.279846	2.4828186
1493794253422	3.5073395	-9.209518	-1.6201019
1493794253441	1.9975128	-7.6964874	1.0536041
1493794253460	-0.921402	-5.8349457	3.9196167
1493794253480	-2.3656464	-3.8733673	4.559616
1493794253502	-4.3417053	-3.348648	3.8026733
1493794253521	-4.5785065	-3.0748749	3.6516724
1493794253542	-4.4276276	-3.1039581	2.6727295
1493794253559	-3.9320984	-3.3237457	0.70095825
1493794253580	-3.2121124	-4.343796	-1.6491699
1493794253602	-3.0323029	-6.741745	-4.539322
1493794253620	-3.0214386	-10.116211	-7.234436
1493794253639	-3.1699677	-12.682556	-8.577972
1493794253663	-3.8618774	-12.799988	-11.770386
1493794253678	-4.0985413	-11.277252	-10.917984
1493794253697	-2.7247314	-11.082733	-8.0448
1493794253720	-1.6517181	-10.246002	-6.2620697
1493794253737	-3.3083496	-6.600067	-6.462097
1493794253760	-6.169281	-5.290222	-5.5214386
1493794253782	-8.774689	-9.874573	-3.630127
1493794253803	-8.028854	-14.65889	-2.0345764
1493794253816	-4.371353	-14.578201	0.029373169
1493794253837	-1.09021	-9.815369	3.9152985
1493794253858	-1.8892059	-6.331833	6.9476166
1493794253876	-2.378708	-6.4588013	6.565216
1493794253897	-1.6667328	-9.619995	4.605789
1493794253916	0.45288086	-12.553253	2.7328033
1493794253932	2.2823944	-13.762283	1.4090424
1493794253952	2.6242218	-13.224899	0.94343567
1493794253972	1.2697906	-10.554443	0.63127136
1493794253994	-1.0939484	-8.819183	0.0345459
1493794254013	-3.1351776	-8.183807	-0.5046387
1493794254032	-3.7122955	-7.9041443	0.10437012
1493794254052	-3.2340546	-8.543549	-0.5819092
1493794254074	-2.882492	-9.220032	-0.50227356
1493794254093	-0.8898773	-9.834152	0.49594116
1493794254112	1.493454	-9.623444	-0.12898254
1493794254132	2.1079254	-9.018188	-0.45664978
1493794254152	1.696518	-8.544891	-0.037872314
1493794254175	0.63087463	-9.155624	-0.21144104
1493794254194	-0.12289429	-9.685898	-0.22624207
1493794254212	-0.09780884	-9.216644	-0.48446655
1493794254234	0.11520386	-10.66037	-0.88186646
1493794254253	-0.3325653	-10.908218	-0.7691345
1493794254275	-0.95596313	-10.948502	-0.5588074
1493794254292	0.08796692	-11.695847	0.17320251
1493794254311	1.2124481	-12.402466	1.6727142
1493794254333	1.3014221	-12.513168	1.0031891
1493794254352	0.5860138	-11.790283	-1.5912476
1493794254376	0.122161865	-12.140411	-2.7417755
1493794254389	1.732193	-13.581268	-3.7310333
1493794254410	4.5931396	-13.081833	-2.425644
1493794254449	3.0948029	-11.505875	-1.2434692
1493794254469	-1.7858734	-12.004578	-1.0856934
1493794254488	-6.321533	-12.603806	2.14003
1493794254509	-8.68721	-15.583405	4.2166595
1493794254528	-9.784454	-17.019043	3.0441437
1493794254545	-7.336975	-14.742767	-0.34635925
1493794254567	-5.0273285	-12.364761	-1.4902649
1493794254586	-3.0796814	-11.159439	-0.41705322
1493794254608	0.9504852	-10.665421	1.603302
1493794254626	5.6414795	-10.564667	0.3474121
1493794254645	2.8878632	-9.270889	-0.52093506
1493794254666	0.45907593	-6.908722	2.5297852
1493794254684	-1.9709473	-4.9541473	3.6079407
1493794254708	-3.0375519	-3.404007	3.4985657
1493794254725	-3.9133759	-2.672882	3.7894897
1493794254743	-4.114731	-2.3162994	3.158142
1493794254765	-3.5782776	-2.598114	2.0028687
1493794254784	-3.1691284	-3.179779	-0.03741455
1493794254804	-2.9473114	-4.575119	-2.3734589
1493794254824	-3.1361542	-7.648773	-5.2440033
1493794254843	-3.4865723	-12.073517	-8.567276
1493794254864	-3.8514404	-15.289444	-11.037216
1493794254882	-4.259918	-14.476685	-11.7894745
1493794254906	-3.7086945	-11.796249	-9.322586
1493794254923	-2.0748596	-10.404022	-6.48291
1493794254942	-2.8593597	-7.794815	-6.3096924
1493794254963	-5.913849	-7.2977905	-8.15831
1493794254983	-8.140472	-12.276825	-6.9570007
1493794255006	-6.1733093	-14.239822	-0.52993774
1493794255024	-3.2772217	-10.314713	3.912201
1493794255042	-2.97258	-6.5338135	5.835495
1493794255065	-4.2533264	-6.080307	6.3653564
1493794255084	-3.0061798	-7.6243896	6.8862
1493794255106	-1.5870361	-11.531525	4.8905334
1493794255126	0.3078766	-13.924149	2.200058
1493794255142	2.1131744	-14.209579	0.8214874
1493794255164	2.8585663	-12.374222	0.4825592
1493794255183	1.3433228	-10.026855	0.7550049
1493794255202	-0.65315247	-8.830368	0.14936829
1493794255222	-2.6975098	-8.290482	-0.22917175
1493794255242	-3.6008453	-8.27153	0.27330017
1493794255263	-3.2913208	-8.930679	-0.47595215
1493794255282	-2.5992126	-9.128708	-0.6782074
1493794255301	-1.0948334	-9.373398	0.14375305
1493794255324	0.27619934	-9.375931	-0.091278076
1493794255341	1.0110779	-9.062149	-0.5930481
1493794255360	1.1503754	-9.027664	-0.20085144
1493794255383	0.7046051	-9.7153015	-0.12687683
1493794255400	-0.024032593	-10.32457	0.7213745
1493794255425	-0.5239563	-9.651047	0.80274963
1493794255438	0.10812378	-10.380432	-0.46498108
1493794255455	-0.25463867	-11.165298	-0.96839905
1493794255475	0.011962891	-11.449875	-2.016037
1493794255494	0.34742737	-11.725342	-0.724823
1493794255538	1.0688934	-11.9509735	0.81181335
1493794255554	1.6634064	-12.570526	0.10461426
1493794255576	1.5388336	-12.518234	-2.0034943
1493794255594	1.0982513	-12.445984	-1.9851532
1493794255616	2.8170166	-12.500336	-2.6117249
1493794255634	3.96492	-10.779602	-2.477295
1493794255655	-0.17037964	-10.542023	-2.0947266
1493794255676	-3.826828	-10.979172	0.4308014
1493794255695	-6.4210205	-13.742737	3.4642181
1493794255715	-9.118225	-16.646896	4.291275
1493794255737	-8.983139	-16.454742	1.8241577
1493794255754	-7.010559	-14.1010895	-1.2718964
1493794255775	-5.1111145	-11.959381	-1.7718658
1493794255794	-2.800888	-10.600342	0.6522827
1493794255817	0.9407959	-11.397415	3.157364
1493794255836	4.370758	-10.067352	-1.1621857
1493794255854	2.2084503	-8.6931	0.45872498
1493794255876	0.30340576	-7.0247955	3.024475
1493794255903	-2.1201324	-4.7756805	3.704834
1493794255914	-3.3471832	-3.0867767	4.0968323
1493794255932	-4.0329437	-1.9195862	3.9858246
1493794255951	-3.6670074	-1.4062653	3.0842896
1493794255972	-3.07695	-1.8365021	1.3998871
1493794255992	-2.6180267	-3.1208801	-0.5670624
1493794256013	-2.6317902	-5.8661346	-4.285034
1493794256034	-3.1663513	-10.974121	-7.881546
1493794256050	-3.4349823	-15.897797	-10.690567
1493794256074	-3.9570313	-15.892258	-12.824631
1493794256091	-4.8341064	-11.957565	-10.5863495
1493794256114	-4.0374756	-9.337387	-7.4046783
1493794256132	-3.0269165	-8.122574	-5.8796234
1493794256152	-3.6809845	-5.9922943	-6.9703217
1493794256173	-6.4033966	-6.801056	-6.3771057
1493794256190	-8.719864	-11.88121	-2.4835663
1493794256216	-6.3509827	-15.534637	0.3807068
1493794256232	-2.5030212	-13.518478	1.7654266
1493794256252	-1.7224731	-8.360901	5.837143
1493794256271	-2.3454132	-6.1506042	7.0300903
1493794256291	-1.5803375	-7.1230316	5.9611664
1493794256313	-0.95339966	-10.026413	3.6093292
1493794256330	0.043304443	-12.600403	2.7163086
1493794256348	0.94441223	-13.595108	1.2672119
1493794256370	2.224121	-11.877731	1.0924377
1493794256389	0.9745941	-10.271133	1.2520447
1493794256408	-1.2611084	-9.020538	0.56822205
1493794256431	-3.0260315	-8.1119995	-0.4648285
1493794256446	-3.7360687	-8.224274	-0.68611145
1493794256466	-2.5355377	-9.34967	-0.189682
1493794256486	-1.4153137	-9.369354	0.21179199
1493794256505	0.54792786	-9.4713745	0.12626648
1493794256528	1.5538483	-9.482025	-0.9165344
1493794256547	0.9217682	-9.340866	0.119003296
1493794256567	0.26722717	-8.843842	0.3137207
1493794256591	-0.40727234	-9.185883	-0.06448364
1493794256625	-0.87779236	-9.816483	0.15257263
1493794256646	-0.36354065	-10.121613	-0.2387085
1493794256665	-0.8435364	-10.649185	-0.7428589
1493794256685	-0.13534546	-11.126984	-0.98973083
1493794256704	0.42022705	-11.354782	-1.540863
1493794256725	1.0305634	-11.969391	0.5754852
1493794256744	1.5688324	-12.317108	2.1788788
1493794256764	-0.012893677	-12.043045	-0.5873718
1493794256786	-0.846756	-11.747833	-2.746231
1493794256803	0.8791504	-12.468262	-1.9028015
1493794256825	3.4847412	-12.86438	-1.9039612
1493794256842	3.7890015	-11.558655	-1.6431427
1493794256863	-0.22361755	-11.503387	-1.0017548
1493794256883	-4.3844757	-11.8793335	0.983551
1493794256902	-7.676956	-14.161575	3.0137024
1493794256921	-9.7091675	-16.220978	3.324997
1493794256941	-8.758728	-15.450699	1.2227783
1493794256960	-6.323578	-12.814102	-1.1324158
1493794256980	-4.236725	-11.0581665	-0.99354553
1493794257005	-0.7268677	-10.257294	1.5289612
1493794257021	3.4990692	-10.744385	2.862793
1493794257042	3.748108	-10.037933	-0.15782166
1493794257062	1.5245972	-8.472763	0.7838898
1493794257082	-0.8961792	-6.653839	3.0626678
1493794257100	-2.5574799	-4.7680206	3.763092
1493794257123	-3.4365845	-3.6084595	3.7465668
1493794257142	-3.9691925	-3.0087128	3.52034
1493794257163	-3.8980408	-2.7467194	2.5590363
1493794257182	-3.3998566	-3.100708	0.86395264
1493794257200	-2.8926392	-4.3383026	-1.1581421
1493794257220	-2.8428192	-6.4337616	-3.8946533
1493794257242	-3.0794678	-9.634048	-7.001816
1493794257259	-3.4135284	-13.883743	-10.785507
1493794257280	-3.950348	-14.833542	-12.010956
1493794257297	-3.6474457	-12.156372	-9.372177
1493794257320	-2.1437988	-9.762573	-6.7261353
1493794257338	-1.5957031	-7.4309235	-5.5470886
1493794257356	-1.9723663	-4.437805	-6.0000763
1493794257379	-5.4131775	-4.9280853	-4.4776
1493794257401	-10.397522	-11.462692	-2.34581
1493794257415	-9.048386	-17.874863	-1.8219604
1493794257435	-3.1039276	-16.6017	-1.8082123
1493794257452	-0.8878174	-9.192749	4.645691
1493794257473	-1.5456696	-4.3423767	8.658569
1493794257492	-1.8971558	-4.9709015	8.47995
1493794257514	-1.5775604	-9.341324	5.059082
1493794257536	-1.2969513	-14.780823	1.5224457
1493794257555	1.6362305	-14.629181	1.1497955
1493794257573	3.6281586	-12.539108	-0.038970947
1493794257593	1.1862488	-9.8216095	-0.7891693
1493794257614	-0.8664398	-8.934479	-0.19314575
1493794257633	-2.812622	-8.156326	-0.09387207
1493794257654	-3.537674	-7.910721	-0.017028809
1493794257670	-3.206253	-8.751129	-0.54281616
1493794257692	-2.0321808	-9.33992	0.17741394
1493794257732	0.23649597	-9.922424	0.64756775
1493794257750	1.427063	-9.913101	-0.9465637
1493794257776	1.3476868	-9.540237	-1.1983337
1493794257776	0.28170776	-9.415085	-0.2530365
1493794257812	-0.43029785	-9.261383	-0.24134827
1493794257834	-0.5137024	-9.249237	0.3400421
1493794257853	-0.39445496	-10.021042	-0.18252563
1493794257871	-0.09207153	-10.312546	-0.17677307
1493794257894	0.57637024	-11.193146	-0.23016357
1493794257923	0.8177643	-11.2560425	-0.4776764
1493794257934	0.701355	-11.269699	0.45422363
1493794257948	0.5022583	-11.826767	1.2024384
1493794257966	-0.10809326	-11.980835	-0.47877502
1493794257987	-1.2636108	-11.100006	-3.228119
1493794258007	-0.2810669	-10.690842	-2.9846344
1493794258027	2.4569244	-11.560104	-2.5448608
1493794258047	3.7967987	-11.275391	-2.1461487
1493794258065	1.4299927	-11.337494	-1.4071655
1493794258089	-3.0336761	-12.2892	-0.611084
1493794258107	-7.1096497	-14.19342	2.2857208
1493794258127	-9.529556	-17.298264	4.2161865
1493794258146	-9.186417	-16.56578	1.7650757
1493794258167	-6.987808	-13.597137	-1.1461029
1493794258187	-4.8491974	-11.728622	-1.9446106
1493794258206	-2.4688416	-10.978394	-0.90216064
1493794258226	1.2137909	-10.746124	2.1338654
1493794258252	3.1476135	-10.130661	1.8668671
1493794258267	1.375412	-8.708221	0.51512146
1493794258290	-0.37521362	-6.8708344	2.390335
1493794258310	-1.6069183	-4.922348	2.9147797
1493794258328	-2.5835419	-3.1853638	3.1682281
1493794258348	-3.0689697	-2.3230743	3.3844757
1493794258367	-2.9956512	-2.3031006	2.4724274
1493794258386	-2.7231903	-2.8061523	0.9537506
1493794258419	-2.4197388	-4.023178	-1.2194214
1493794258430	-2.3387299	-6.56633	-4.8674164
1493794258446	-2.416153	-11.262863	-8.552292
1493794258463	-2.9968414	-15.150696	-11.27507
1493794258482	-4.12027	-13.78125	-10.71254
1493794258501	-5.0321655	-10.287277	-8.3359375
1493794258521	-3.9727325	-8.791931	-5.8452454
1493794258541	-3.097458	-8.357941	-5.879196
1493794258561	-4.891632	-8.016632	-7.2874146
1493794258580	-8.061966	-12.167923	-7.603958
1493794258600	-5.8439636	-14.995972	-3.2646027
1493794258621	-2.1087646	-11.575333	3.1700592
1493794258641	-2.198578	-5.996338	5.383606
1493794258660	-4.7200623	-5.1630096	6.6735992
1493794258680	-3.520172	-7.9257355	5.4453735
1493794258702	0.42921448	-12.280212	3.7776794
1493794258721	3.0311737	-14.90361	1.8930206
1493794258743	3.649109	-14.712112	0.9858856
1493794258761	2.437439	-12.032288	1.067337
1493794258781	-0.36091614	-9.1763	0.4019165
1493794258821	-2.2954712	-8.9045105	-0.4830475
1493794258843	-3.9127655	-8.672363	-1.3143921
1493794258862	-3.875824	-8.854263	0.0014343262
1493794258880	-3.532425	-8.955826	-0.34417725
1493794258900	-3.1055298	-8.952087	-1.4599609
1493794258922	-1.4278412	-8.973114	-0.49214172
1493794258941	-0.15362549	-9.350861	0.07145691
1493794258958	-0.012054443	-9.394867	-0.57476807
1493794258979	-0.6864166	-8.938904	-0.69633484
1493794258997	-1.3073273	-8.68602	-0.38182068
1493794259018	-1.5028381	-8.997437	0.07873535
1493794259043	-1.299942	-9.592728	0.18243408
1493794259059	-0.8842926	-10.155563	-0.702713
1493794259075	0.40570068	-10.359772	-1.2345734
1493794259098	0.86950684	-10.680603	-2.2050781
1493794259119	0.7315979	-10.657242	-2.965561
1493794259142	0.44773865	-10.501663	-2.7806396
1493794259157	0.22579956	-10.587082	-1.9838257
1493794259175	-0.4905548	-11.586151	-2.6918488
1493794259198	-0.69555664	-13.185303	-2.4170532
1493794259217	1.3831329	-13.988586	-0.41687012
1493794259235	3.4932861	-12.936996	0.6090088
1493794259261	0.12983704	-11.112793	-0.5557709
1493794259276	-5.9143677	-10.5238495	-0.701828
1493794259296	-8.602051	-12.36087	2.022232
1493794259315	-8.310867	-14.139847	3.6458435
1493794259337	-6.29245	-13.19603	2.8252563
1493794259355	-3.5848541	-11.60704	1.6949768
1493794259375	-1.309967	-10.817978	1.4069672
1493794259395	-0.9053192	-10.574829	1.4854279
1493794259421	-2.412613	-10.274078	0.9948425
1493794259433	-3.5185852	-9.240631	0.5595398
1493794259452	-3.8680267	-7.9444733	0.85601807
1493794259472	-3.5329437	-6.7352753	1.3414612
1493794259493	-2.8092194	-5.7374725	1.5509033
1493794259512	-2.5388489	-5.0900116	1.5361633
1493794259536	-2.4170837	-5.0355988	0.8662567
1493794259555	-2.2039795	-5.6706085	-0.25558472
1493794259572	-2.0943146	-6.738159	-1.3650665
1493794259592	-2.0333557	-8.582855	-2.0549927
1493794259611	-2.2613068	-10.529739	-3.059204
1493794259630	-1.5896912	-11.476379	-3.7398834
1493794259651	-1.7425232	-11.544189	-4.889389
1493794259669	-2.8660278	-9.934677	-6.173172
1493794259689	-3.7376404	-7.726471	-4.605545
1493794259709	-3.6573334	-7.1723175	1.0294495
1493794259729	-5.1720886	-9.996262	5.4625244
1493794259751	-6.288208	-12.793411	2.907608
1493794259771	-5.574112	-11.668167	2.675583
1493794259789	-4.1001587	-8.978882	0.6078949
1493794259808	-1.7994995	-8.475449	-0.18936157
1493794259827	-0.77989197	-9.296295	-0.031936646
1493794259848	-0.6205139	-9.905899	-0.085128784
1493794259871	-1.4532471	-9.635056	0.5201721
1493794259889	-2.2281952	-9.455078	1.5198975
1493794259926	-2.9221191	-9.741379	1.6175079
1493794259947	-3.095581	-9.98439	0.8624115
1493794259967	-2.8139648	-9.925644	0.22183228
1493794259986	-2.3892517	-9.814911	-0.4079895
1493794260006	-2.2771606	-9.711746	-0.9635925
1493794260028	-1.7863159	-9.827042	-0.21844482
1493794260046	-1.1923523	-9.533752	0.9941864
1493794260090	-0.8934784	-9.301971	2.4600372
1493794260090	-1.7000885	-9.193512	2.9596405
1493794260103	-2.8824768	-9.188141	2.5458527
1493794260136	-3.6430206	-9.320114	1.7587433
1493794260143	-3.7867126	-9.718399	1.0441284
1493794260162	-3.030014	-9.734879	1.4012604
1493794260181	-2.3760529	-9.601303	1.7262115
1493794260202	-1.9721832	-9.550201	2.0955658
1493794260222	-1.7776642	-9.543732	2.239685
1493794260241	-1.7889404	-9.481293	1.9665222
1493794260261	-1.7728729	-9.496323	1.4583435
1493794260280	-1.790863	-9.527435	1.4665222
1493794260301	-1.7602692	-9.708328	1.0703278
1493794260321	-1.7001953	-9.677994	0.81411743
1493794260341	-1.7284546	-9.704834	0.35557556
1493794260360	-1.5579224	-9.64975	0.59265137
1493794260382	-1.5536804	-9.579239	0.9911499
1493794260400	-1.6268463	-9.578934	1.100296
1493794260421	-1.5284119	-9.691391	1.1271515
1493794260440	-1.3085022	-9.802246	1.2078094
1493794260460	-1.1432343	-9.883942	0.8811493
1493794260479	-0.9073181	-9.954407	0.4875946
1493794260499	-0.6903076	-9.953781	0.42596436
1493794260519	-0.65348816	-10.115784	0.6192169
1493794260539	-0.5926666	-10.295853	0.7019501
1493794260558	-0.3675537	-10.304657	0.56474304
1493794260578	-0.2158966	-10.340607	0.2805481
1493794260598	0.124420166	-10.689804	0.16400146
1493794260617	0.91500854	-11.587555	0.55506897
1493794260637	1.2352295	-12.368454	0.86457825
1493794260657	-0.34561157	-12.003479	-0.17700195
1493794260676	-1.9541779	-11.063461	-1.7559204
1493794260697	-1.9714355	-10.3703	-2.0776672
1493794260716	-1.9328918	-10.153	-1.2129517
1493794260736	-2.7528381	-10.157547	-1.845398
1493794260756	-3.1347961	-10.430283	-1.8954163
1493794260775	-3.9066925	-10.550873	-0.91871643
1493794260795	-4.7733	-11.169144	-0.07925415
1493794260816	-5.986679	-11.797897	0.97213745
1493794260834	-5.774414	-12.069916	1.0916595
1493794260854	-3.6779175	-10.554291	1.6202393
1493794260875	-2.3477783	-9.901062	0.3026123
1493794260895	-0.31533813	-9.974075	-0.40205383
1493794260914	-1.291153	-10.38768	-3.8717194
1493794260933	-1.2784424	-10.170319	-2.4845886
1493794260954	-2.7014923	-9.323685	-0.67207336
1493794260974	-3.9494324	-7.8532257	-0.3985138
1493794261013	-4.3724823	-6.565262	-0.40893555
1493794261032	-4.3127136	-5.3865814	-0.22686768
1493794261052	-3.948761	-4.9516144	-0.61460876
1493794261072	-3.480423	-4.966461	-1.1078949
1493794261092	-2.9934387	-5.3799896	-1.7774963
1493794261112	-2.350586	-5.89386	-2.611786
1493794261132	-1.6498413	-6.201874	-3.0156403
1493794261152	-1.312088	-6.5288696	-3.5801544
1493794261171	-1.3079529	-7.265503	-4.3605347
1493794261191	-1.5900879	-8.07428	-5.86615
1493794261211	-1.9884033	-9.247208	-7.52861
1493794261231	-2.2202606	-10.098206	-7.8043823
1493794261251	-2.070572	-10.620346	-7.847061
1493794261270	-2.5499268	-10.764954	-7.873947
1493794261289	-2.9771423	-10.286743	-6.9761353
1493794261310	-3.1290436	-8.380615	-5.553955
1493794261332	-3.9593353	-5.811844	-4.314026
1493794261353	-6.091278	-4.612747	-2.2493439
1493794261372	-9.902634	-6.9896545	-1.7863922
1493794261392	-12.727585	-13.862976	-3.7591553
1493794261413	-10.528656	-18.162567	-3.5652618
1493794261433	-4.4613037	-13.813446	-0.20877075
1493794261453	-1.0335083	-7.0276794	2.7636566
1493794261472	-0.6602783	-3.5436554	5.027069
1493794261492	-1.0246582	-5.0702057	4.344269
1493794261511	-0.5574646	-8.446121	3.7644806
1493794261531	-0.16621399	-12.107086	2.6982574
1493794261551	0.45155334	-14.274353	1.6896057
1493794261573	1.1852264	-13.19429	0.7956543
1493794261591	0.46072388	-10.755936	-0.6513977
1493794261611	-0.6963959	-8.323364	-0.5189667
1493794261629	-1.6322174	-7.524521	0.4441223
1493794261652	-2.4374542	-8.477997	1.0578918
1493794261672	-2.4974213	-9.317383	1.0509186
1493794261688	-2.2847595	-9.742371	0.118881226
1493794261710	-0.95072937	-10.248398	0.71191406
1493794261731	0.5146637	-10.408005	1.1996918
1493794261747	1.440979	-10.305283	1.1725769
1493794261771	1.6177521	-10.114868	1.0380859
1493794261790	1.4447327	-9.938538	1.2844543
1493794261806	1.2859802	-9.873337	1.5278015
1493794261831	1.5167694	-9.576248	1.0876923
1493794261851	1.3804169	-9.193634	0.52056885
1493794261868	1.2264404	-9.442703	0.21095276
1493794261886	-0.23146057	-9.762314	-0.43026733
1493794261905	-1.2608337	-9.537781	-0.049179077
1493794261925	-1.3729095	-10.000183	-0.02104187
1493794261947	-0.52441406	-11.948639	2.4837494
1493794261967	0.99256897	-12.748199	2.8156433
1493794261986	1.7220154	-11.980362	1.4394073
1493794262004	0.24078369	-11.184601	-0.9449463
1493794262027	-2.2469635	-10.511856	-2.396103
1493794262048	-0.9115143	-11.030487	-2.150528
1493794262066	1.8082275	-12.029068	-1.2610626
1493794262085	2.7215424	-12.31189	-3.456833
1493794262125	2.6260529	-11.28508	-5.7236633
1493794262143	1.1135254	-11.602524	-2.8371277
1493794262165	-1.265625	-10.377762	-0.97366333
1493794262184	-5.584152	-13.73613	0.49169922
1493794262202	-10.693283	-17.79541	3.3411713
1493794262225	-10.667099	-16.718842	0.66119385
1493794262243	-7.5739746	-13.085251	-1.8588562
1493794262266	-4.8257294	-11.964951	-2.1585693
1493794262283	-1.6750488	-10.967285	-1.2776489
1493794262302	3.121048	-11.110794	2.1022186
1493794262323	2.358673	-10.680679	0.7082825
1493794262341	-0.012741089	-8.896011	0.2806244
1493794262362	-0.88705444	-7.489334	1.2951813
1493794262384	-1.9262238	-5.7805786	1.5574646
1493794262402	-2.157898	-4.0280457	2.3471985
1493794262422	-2.1401825	-2.9389648	2.1235962
1493794262440	-1.9239502	-2.4727936	2.0266876
1493794262462	-1.7689362	-2.4517517	1.0343933
1493794262481	-1.6546783	-3.3618164	-0.39369202
1493794262502	-1.7561646	-5.119995	-2.687088
1493794262521	-2.3645172	-7.2042236	-5.5322113
1493794262538	-4.2024536	-9.396622	-7.954956
1493794262561	-5.6900177	-11.742355	-9.937714
1493794262582	-5.333069	-13.331192	-11.243149
1493794262598	-3.758484	-12.653976	-9.049789
1493794262620	-1.632431	-11.044769	-6.9304047
1493794262641	-1.5346375	-8.127457	-6.1326904
1493794262660	-3.3961792	-4.18985	-5.6976013
1493794262679	-6.5674744	-4.234009	-4.3513947
1493794262697	-10.937042	-11.096436	-3.7335052
1493794262717	-10.41745	-17.659988	-4.2435303
1493794262738	-3.1986084	-16.22676	-2.0019531
1493794262762	1.1617737	-9.120163	4.037384
1493794262778	-0.4176178	-4.5618896	7.5072327
1493794262797	-2.044571	-5.0134125	7.156143
1493794262817	-1.2722168	-8.799805	5.593811
1493794262837	-1.3170929	-15.089264	1.8614655
1493794262857	0.7239227	-15.681824	-0.018829346
1493794262876	2.608673	-13.77829	-0.3209076
1493794262896	2.0008392	-11.014862	0.118896484
1493794262917	0.3201294	-8.927368	0.4861908
1493794262936	-0.9445343	-7.8509674	0.38690186
1493794262956	-2.4022217	-7.626175	-0.71469116
1493794262975	-2.1575928	-8.822281	-0.65911865
1493794262994	-1.3025665	-9.789566	-0.42408752
1493794263016	-0.64308167	-9.672241	-0.031661987
1493794263032	-0.3506012	-9.425308	-0.24978638
1493794263052	-0.04084778	-9.306961	-0.1943512
1493794263072	0.38372803	-9.076996	0.6569061
1493794263092	0.037124634	-9.2716675	0.84732056
1493794263627	-0.57344055	-8.944794	0.58462524
1493794263627	-0.014678955	-9.059952	-0.11921692
1493794263627	0.5650177	-9.963074	-0.96536255
1493794263628	0.022872925	-10.708054	-0.68569946
1493794263628	-0.861557	-11.677597	-0.87164307
1493794263628	-0.33102417	-11.432968	0.29548645
1493794263628	1.0767975	-11.574097	1.1094513
1493794263628	1.8929749	-12.153336	1.1993866
1493794263629	0.88827515	-11.889755	-0.99391174
1493794263629	-0.2355957	-11.838501	-1.8288727
1493794263629	1.5463104	-12.727936	-2.7188263
1493794263629	4.5196686	-12.70903	-4.0626984
1493794263629	3.4672546	-12.164886	-2.2049713
1493794263629	-0.73931885	-10.927856	-1.9534302
1493794263630	-5.287506	-11.591003	0.07972717
1493794263630	-8.52298	-14.713501	2.9298859
1493794263630	-10.257019	-16.966446	2.9376984
1493794263630	-9.348892	-16.145935	0.4252472
1493794263630	-6.8047333	-14.456955	-1.4932098
1493794263630	-4.2266693	-11.950378	-1.454773
1493794263630	0.12783813	-10.861252	0.40309143
1493794263631	5.502716	-11.363907	1.332016
1493794263631	4.717087	-11.200119	-0.5479584
1493794263631	1.3677216	-9.533142	0.95906067
1493794263631	-1.5696716	-6.8863373	2.102707
1493794263631	-2.8253021	-4.596649	3.0550232
1493794263647	-3.355301	-2.7246704	3.555359
1493794263667	-3.396469	-1.566803	3.553238
1493794263688	-3.0713196	-1.1253815	2.7329102
1493794263706	-2.3880768	-1.5071564	1.0857544
1493794263727	-1.4038544	-2.6929932	-0.7438812
1493794263745	-0.8655548	-4.5358124	-3.4196777
1493794263764	-1.4230652	-7.3635406	-7.500519
1493794263784	-3.4586945	-10.617325	-9.795761
1493794263804	-4.67128	-12.840363	-10.55043
1493794263824	-4.0865936	-13.025421	-10.072372
1493794263846	-3.2329712	-11.907761	-7.7917633
1493794263864	-3.0162506	-10.232758	-6.58049
1493794263885	-4.44458	-8.032639	-6.7387238
1493794263906	-8.765854	-9.715622	-6.8695374
1493794263924	-10.904587	-14.917435	-8.406662
1493794263943	-7.2245483	-15.861206	-3.900879
1493794263963	-0.5313873	-9.570923	2.3082428
1493794263985	1.1837769	-3.2729645	6.528473
1493794264003	-1.9185181	-4.406708	7.2653046
1493794264025	-3.3888397	-8.56958	5.601471
1493794264044	-1.2386322	-12.752686	3.3793945
1493794264064	2.09198	-14.698776	1.3697052
1493794264081	2.8390198	-14.363083	0.71917725
1493794264102	2.3065033	-12.553085	0.7648468
1493794264123	0.8795471	-10.457443	1.0504761
1493794264142	-0.958786	-8.963852	0.41278076
1493794264161	-2.9555664	-7.878845	-0.2460022
1493794264184	-3.8792267	-8.074341	-1.2309875
1493794264201	-3.3341064	-8.659668	-1.2060547
1493794264221	-3.1297302	-9.525467	-1.6355286
1493794264244	-1.3917847	-9.096512	0.16729736
1493794264259	-0.008804321	-8.981476	0.23400879
1493794264302	0.6926422	-8.842407	-0.73010254
1493794264318	0.7555847	-9.071945	0.027770996
1493794264340	-0.001953125	-9.155426	0.8543701
1493794264361	-0.19577026	-9.160797	0.25691223
1493794264382	0.0041046143	-9.416946	-0.18804932
1493794264399	0.64442444	-9.397354	-0.3490448
1493794264417	0.8401947	-10.745605	-0.8439636
1493794264439	0.038208008	-11.673065	-1.5951843
1493794264458	-0.5526581	-11.590988	-0.9336548
1493794264482	-0.0993042	-11.530777	-0.0798645
1493794264498	1.5440826	-11.524902	1.5367279
1493794264516	2.130005	-11.878799	0.09031677
1493794264540	0.9866638	-11.881577	-2.2311249
1493794264557	1.1979675	-12.416489	-2.0012207
1493794264577	2.3650513	-12.609146	-3.0007324
1493794264597	2.7833252	-12.07515	-1.888916
1493794264615	-0.46888733	-11.305481	-1.0704498
1493794264637	-4.4095154	-11.813995	-0.22380066
1493794264654	-6.5168304	-13.197678	2.5700226
1493794264678	-8.216476	-15.637375	3.4878693
1493794264696	-8.387512	-16.284546	2.1915436
1493794264717	-6.779724	-14.370575	-0.29103088
1493794264736	-5.102936	-12.217789	-1.3266754
1493794264755	-2.845169	-10.599442	-0.24179077
1493794264775	0.10494995	-9.816193	1.5813141
1493794264795	2.3316803	-9.737167	0.8199768
1493794264818	2.127304	-8.954819	-0.24458313
1493794264835	0.90989685	-7.6497345	1.568512
1493794264853	-0.7110596	-6.081726	3.0889587
1493794264874	-2.5758514	-4.5850983	2.6639557
1493794264894	-3.5840302	-3.3641357	2.3485565
1493794264913	-3.3845367	-2.5845947	2.4332886
1493794264935	-2.9640808	-2.6214752	1.780365
1493794264953	-2.7336273	-3.273758	0.37400818
1493794264973	-2.4463196	-4.643219	-0.8935547
1493794264993	-2.4710236	-7.5717163	-3.403946
1493794265012	-2.641693	-12.367783	-9.157242
1493794265034	-3.0037842	-16.598053	-13.349258
1493794265052	-3.6022186	-14.331177	-12.598648
1493794265073	-3.7556152	-10.678497	-8.3828125
1493794265092	-2.4802399	-9.289749	-5.4743805
1493794265112	-1.6429443	-7.848892	-5.253525
1493794265130	-3.0056458	-6.24028	-6.4475403
1493794265150	-6.442169	-9.560577	-7.0782776
1493794265169	-5.501587	-12.949814	-5.3055115
1493794265188	-3.7868347	-15.124908	-0.98905945
1493794265211	-1.2744293	-10.419617	4.557419
1493794265225	-3.772583	-7.664963	5.1602783
1493794265245	-3.3466797	-5.652649	6.350357
1493794265466	-2.289093	-8.249603	4.6077576
1493794265466	-1.9416046	-13.993668	1.3605499
1493794265466	1.5501862	-14.411026	1.9368286
1493794265466	3.1218872	-13.664429	1.3787537
1493794265467	1.002533	-10.868011	0.5068512
1493794265467	-0.75009155	-11.214935	-1.4346008
1493794265467	-2.057022	-8.683899	-0.62094116
1493794265467	-2.1995392	-8.752319	0.26538086
1493794265467	-2.678711	-8.391647	-0.35679626
1493794265467	-1.9645691	-7.9700165	-1.010788
1493794265483	-3.0423431	-9.167252	-1.2210999
1493794265502	-1.6802979	-9.929733	-1.2085419
1493794265522	-0.10333252	-10.019592	-0.35301208
1493794265542	0.29788208	-9.418198	-0.90556335
1493794265562	-0.34342957	-8.767136	-1.6557922
1493794265582	-0.71562195	-9.289597	-1.0318604
1493794265601	-0.83114624	-10.129211	0.085113525
1493794265620	-0.94551086	-10.297028	0.7715912
1493794265641	-1.0062714	-9.857056	0.42666626
1493794265661	-1.4466095	-9.695221	-0.24038696
1493794265680	-1.2418365	-10.264557	-0.5045471
1493794265700	-0.8016815	-9.821045	-0.5908661
1493794265719	-0.5944824	-9.717499	0.1638031
1493794265740	-0.5773926	-9.923447	0.4733429
1493794265760	-1.0623779	-10.380814	0.34817505
1493794265779	-1.5619965	-10.438263	-0.05256653
1493794265799	-1.0100708	-9.936966	-1.0392303
1493794265819	-0.30226135	-10.003647	-1.1929016
1493794265839	0.5745392	-11.543808	-0.5172119
1493794265858	1.1782837	-13.219894	-0.07171631
1493794265878	2.0415955	-12.854675	-0.008544922
1493794265898	1.680542	-11.936295	-0.18132019
1493794265917	-1.0560455	-10.894684	-0.8310547
1493794265938	-4.514862	-9.949112	-1.1164093
1493794265957	-6.7633667	-9.239746	-1.1867065
1493794265977	-6.641739	-9.463303	-0.343338
1493794265997	-5.3854065	-10.983551	1.1187592
1493794266017	-4.4838104	-12.634201	2.0191956
1493794266037	-2.8989105	-12.451202	1.3891449
1493794266056	-2.8760834	-11.399719	1.2893524
1493794266076	-3.7846222	-9.776825	2.1038055
1493794266096	-4.3168335	-9.546387	0.75994873
1493794266116	-3.67836	-8.752731	0.062438965
1493794266135	-1.9052429	-6.805908	-0.5519409
1493794266155	-0.18632507	-6.844681	-0.44987488
1493794266175	0.47962952	-8.528885	0.2630005
1493794266195	-2.018692	-8.745514	0.13612366
1493794266214	-3.030075	-8.059372	-0.09043884
1493794266234	-2.8097076	-7.3738556	-0.6227417
1493794266254	-3.0453644	-7.399292	-1.1407471
1493794266274	-2.6222687	-7.9246216	-0.8439331
1493794266294	-1.9023132	-8.43364	-1.056961
1493794266314	-0.6806183	-9.844528	-2.33255
1493794266803	0.3326416	-10.363586	-3.1727905
1493794266803	0.21951294	-11.839478	-3.1327515
1493794266803	-2.9352722	-9.768753	-6.387985
1493794266803	-4.0906677	-10.171524	-4.975052
1493794266803	-3.9889832	-8.997894	-1.6420288
1493794266803	-4.866104	-7.3358765	2.107544
1493794266803	-5.388031	-8.486282	2.3909302
1493794266803	-5.0829926	-9.220627	1.5691833
1493794266804	-4.30072	-10.789093	-1.8991547
1493794266804	-1.5310516	-11.7278595	-3.168808
1493794266804	0.44525146	-12.218964	-3.235733
1493794266804	2.4288788	-4.9854126	1.5632172
1493794266804	-1.4279938	-10.380661	0.8283539
1493794266804	-3.9845428	-10.356049	1.2664795
1493794266804	-4.1357727	-9.4865265	0.22299194
1493794266804	-3.426529	-9.06218	0.36125183
1493794266804	-3.4140625	-8.798111	0.122024536
1493794266804	-2.7654266	-8.529587	-0.5616913
1493794266804	-2.115219	-9.772049	-0.82850647
1493794266804	-2.2335815	-9.918015	-0.18154907
1493794266804	-2.6000214	-8.46286	0.44554138
1493794266804	-3.414978	-8.493286	-1.1240234
1493794266804	-3.3102112	-9.399765	0.13183594
1493794266808	-3.2801208	-9.977417	0.4731903
1493794266827	-2.153946	-10.549301	-0.78559875
1493794266848	-1.3170929	-11.887665	-0.11399841
1493794266867	-2.7694397	-10.511642	-1.3537903
1493794266887	-3.390854	-6.8098297	-4.1801605
1493794266907	-0.34635925	-7.8202667	-0.7144165
1493794266926	-0.0020446777	-10.07428	2.626114
1493794266946	-0.97314453	-11.254257	1.757721
1493794266966	-2.0943298	-9.549744	-0.7112274
1493794266986	-2.7805176	-9.959686	-1.7256012
1493794267006	-2.6039886	-9.958328	-1.6340637
1493794267025	-2.0910187	-9.874741	-0.2524109
1493794267045	-2.228653	-10.086929	0.4867859
1493794267065	-2.8851166	-8.888748	0.28077698
1493794267085	-3.2489166	-8.345062	-0.30041504
1493794267105	-3.840042	-9.38089	-0.99902344
1493794267124	-4.424942	-8.994125	-0.42129517
1493794267144	-4.61084	-8.972153	0.40530396
1493794267164	-4.8343353	-9.209457	-0.19654846
1493794267184	-4.08107	-9.01236	-0.49606323
1493794267204	-2.919464	-8.682663	-0.7253876
1493794267223	-2.45018	-8.055344	0.43118286
1493794267243	-2.1468353	-9.668594	0.7186737
1493794267263	-2.7491302	-12.424713	-0.51571655
1493794267283	-0.771225	-10.565338	0.29362488
1493794267302	0.41104126	-9.323898	-1.3958588
1493794267322	-2.256363	-9.770538	-1.6517029
1493794267342	-1.4237366	-9.647308	-0.84669495
1493794267362	-1.4368744	-9.663101	-0.8628235
1493794267382	2.1121674	-11.665924	0.14448547
1493794267401	-1.6930542	-9.092957	-2.1917114
1493794267421	-2.7658844	-9.363861	1.0470734
1493794267441	-1.9071655	-9.628128	0.4901123
1493794267461	-1.4468384	-10.066757	-0.85827637
1493794267481	-1.9272919	-10.127808	-1.199173
1493794267500	-1.715683	-9.6701355	-1.0688782
1493794267520	-0.7044983	-10.301895	-0.19760132
1493794267540	-0.95402527	-9.905319	-0.46237183
1493794267560	-1.2406616	-9.258469	-0.3406372
1493794267599	-1.8391418	-10.319794	-0.44940186
1493794267619	-0.44386292	-10.557617	-0.9747467
1493794267639	-0.5133209	-10.4869995	-0.4716797
1493794267658	0.2739563	-10.9313965	-0.17733765
1493794267679	0.9749298	-11.810028	-0.42253113
1493794267698	0.19750977	-12.395935	-0.38568115
1493794267718	-0.86405945	-12.414688	-0.23338318
1493794267738	-1.9650421	-12.580032	-1.034256
1493794267757	-0.5235748	-11.361069	-0.5378876
1493794267777	1.2842255	-12.062759	-1.6208191
1493794267797	-0.3649292	-10.5048065	-1.0236511
1493794267817	-3.0421448	-9.524384	-0.09764099
1493794267835	-4.0085297	-9.454163	-0.9345703
1493794267856	-4.361389	-8.852295	-7.0217743
1493794267876	0.42427063	-10.568741	-1.5778961
1493794267896	2.9455872	-10.584335	-2.047287
1493794267916	1.1889191	-9.04364	-1.976059
1493794267935	1.4922028	-9.210556	-0.74754333
1493794267955	1.4194489	-10.669968	-0.72572327
1493794267975	1.4346924	-10.741699	-0.3097229
1493794267995	2.631775	-9.640015	-0.45420837
1493794268014	1.4552917	-9.045822	0.15264893
1493794268035	0.029876709	-9.333572	0.5961914
1493794268054	0.9485626	-10.92514	0.95565796
1493794268074	0.3966217	-14.173126	6.2190857
1493794268094	1.304657	-15.041138	6.5507507
1493794268113	2.879303	-12.165482	-1.481247
1493794268132	2.8148804	-11.450897	-1.5136566
1493794268153	2.9391022	-11.493744	-0.96191406
1493794268173	4.540436	-10.207504	-1.0948334
1493794268193	4.618698	-8.623001	2.9218445
1493794268212	3.2717285	-8.497925	5.554947
1493794268232	2.9063416	-8.746857	5.388733
1493794268252	3.3323822	-8.738525	2.7657928
1493794268272	3.582077	-8.140289	1.0749207
1493794268291	2.4159393	-7.9733124	2.2429504
1493794268311	0.78312683	-7.9335175	5.775299
1493794268331	0.68792725	-8.020035	8.238846
1493794268353	1.8715668	-9.115372	8.603943
1493794268375	2.9161377	-9.409668	8.543915
1493794268395	3.0787506	-9.46196	8.415604
1493794268414	2.621643	-9.370499	8.368347
1493794268432	2.8865814	-9.253784	8.5399475
1493794268452	3.2326202	-9.192291	10.30835
1493794268474	1.9631958	-9.087067	10.567764
1493794268493	1.3311005	-8.974686	8.991745
1493794268516	1.984436	-8.562775	8.308838
1493794268533	0.43380737	-8.683014	6.8318787
1493794268552	-2.6393127	-8.833511	4.7800293
1493794268573	-3.852066	-8.190079	4.2062225
1493794268596	-5.10289	-6.450897	3.816269
1493794268613	-3.5876923	-4.4236298	3.749115
1493794268631	2.0950623	-2.0907135	10.790268
1493794268651	0.6643982	-3.6614685	7.2408447
1493794268672	-0.7072449	-4.3904114	6.922882
1493794268713	-1.7385559	-3.7507477	6.0187683
1493794268732	-2.2238007	-1.9285431	3.3103638
1493794268748	0.38819885	-0.095062256	3.8835144
1493794268773	2.5033112	0.5939331	6.1228943
1493794268791	2.957901	1.1534271	6.3406677
1493794268808	3.5108032	1.6041565	8.394241
1493794268828	0.31544495	0.8157959	7.672058
1493794268853	0.30221558	1.3401337	8.4014435
1493794268870	0.56695557	1.3407745	8.825363
1493794268887	-0.37376404	1.8739624	8.563232
1493794268909	-0.08242798	2.4434967	9.0233
1493794268928	0.61413574	3.2645874	7.7326202
1493794268948	1.0047913	0.40797424	9.600937
1493794268971	2.4183655	0.7002411	11.944061
1493794268987	2.8912659	0.89764404	11.870056
1493794269008	2.0413513	1.720108	8.63562
1493794269027	0.94317627	2.7195892	9.549759
1493794269045	0.35342407	2.7882385	8.739929
1493794269070	0.4338379	2.931488	9.291824
1493794269086	-0.015930176	3.1414948	10.057114
1493794269107	-1.0302277	2.6707	9.669388
1493794269126	-1.6190033	2.6312408	9.616028
1493794269145	-1.1311035	3.8481445	9.551178
1493794269166	-0.5044403	4.7104797	9.196472
1493794269185	-0.82598877	4.256485	8.748749
1493794269210	-1.5523529	4.09494	8.483612
1493794269225	-1.214859	4.1502533	8.819321
1493794269243	-0.82118225	3.7430267	9.272797
1493794269265	-0.5227814	3.3866425	9.440735
1493794269284	-0.20883179	3.1733246	8.875946
1493794269304	0.62194824	3.0223236	8.444702
1493794269325	0.48356628	3.1543274	8.68895
1493794269344	-0.7732849	3.19281	9.16806
1493794269366	-0.8581543	3.1400604	9.239731
1493794269383	-1.2747192	2.9329987	9.3667755
1493794269403	-1.7317352	3.0203247	8.845413
1493794269423	-1.7903137	3.2539368	7.6067047
1493794269442	-1.8528442	3.3222961	8.872482
1493794269462	-2.2650604	2.8220215	9.390778
1493794269484	-1.6135559	2.6950073	9.734467
1493794269502	-0.8624573	2.4093323	9.984283
1493794269524	-0.98275757	2.2365723	10.17804
1493794269541	-1.2631378	2.3010254	10.279526
1493794269561	-1.771347	1.986557	10.072968
1493794269581	-1.8372803	1.6690063	9.470978
1493794269601	-1.8329163	1.9495392	9.084732
1493794269621	-1.0959778	2.795288	9.155655
1493794269639	-0.5372925	2.7776031	10.077423
1493794269656	-0.8150635	2.7669525	10.1861725
1493794269676	-1.2526855	2.3978271	9.899216
1493794269697	-1.0723114	2.481903	9.847046
1493794269715	-1.5398254	2.4889984	9.776611
1493794269737	-0.9721527	2.2954712	10.029266
1493794269774	-0.9147644	2.3483582	10.0950165
1493794269794	-0.373703	2.345169	9.963715
1493794269814	-0.9468231	2.475006	9.397598
1493794269834	-0.90634155	2.320755	8.998596
1493794269854	-0.59043884	2.1498718	9.396042
1493794269874	-0.76586914	2.0757751	9.532303
1493794269893	-0.9247589	2.2340088	9.848129
1493794269913	-0.91415405	2.193634	10.143158
1493794269933	-0.6051483	2.650467	10.422302
1493794269953	-0.7019806	2.853592	9.979187
1493794269973	-0.5183258	2.8485565	8.871323
1493794269992	-0.2421112	2.8810577	9.269577
1493794270012	-0.36798096	2.918808	9.038361
1493794270032	-0.48684692	3.2905273	8.516983
1493794270050	-0.70518494	3.2229614	9.160461
1493794270071	-0.6881561	3.3687592	9.363403
1493794270091	-0.76768494	3.4501953	8.996185
1493794270111	-0.92567444	3.4863586	8.990952
1493794270131	-0.968338	3.4775543	8.966217
1493794270150	-0.78848267	3.4537964	8.932938
1493794270171	-0.6574249	3.443634	8.986328
1493794270190	-0.47091675	3.4612274	9.02594
1493794270210	-0.40411377	3.4413757	8.869568
1493794270230	-0.66690063	3.4815216	8.817703
1493794270251	-0.70565796	3.4694061	9.020111
1493794270269	-0.59443665	3.3365784	9.265152
1493794270289	-0.6277008	3.2994843	9.323608
1493794270309	-0.6179657	3.2862396	9.223068
1493794270329	-0.5773926	3.3816528	9.122177
1493794270348	-0.27833557	3.3167114	9.222443
1493794270368	-0.5939789	3.427414	9.143036
1493794270388	-1.2824402	3.6499634	8.476471
1493794270407	-0.9410095	3.815628	8.446564
1493794270427	-0.46113586	4.0462646	8.83905
1493794270447	0.19395447	3.249405	8.710175
1493794270467	0.75335693	3.051773	9.6822815
1493794270487	0.0054016113	3.7659454	9.628876
1493794270507	-0.9637604	4.3943634	8.496292
1493794270526	-1.7142029	4.85849	8.299484
1493794270546	-1.8906097	5.1541443	8.144821
1493794270566	-1.9235535	5.2068176	8.038345
1493794270586	-1.6282654	4.803879	8.327942
1493794270615	-1.0827179	4.3301086	8.87381
1493794270626	-0.73883057	4.0738983	9.285477
1493794270646	-0.56729126	4.064682	9.406403
1493794270666	-0.5307312	4.018341	9.395737
1493794270699	-0.5631256	3.9933624	9.330612
1493794270706	-0.54989624	3.9672852	9.197708
1493794270726	-0.62838745	3.9392242	9.148178
1493794270745	-0.5971832	3.9123688	9.117859
1493794270764	-0.6481781	3.8635712	8.861359
1493794270784	-0.6502533	3.958725	8.810043
1493794270805	-0.6976776	3.9084778	8.840576
1493794270824	-0.77015686	3.8701324	8.965195
1493794270862	-0.73091125	3.7145996	9.03447
1493794270882	-0.64086914	3.61969	9.1622925
1493794270902	-0.66070557	3.6324005	9.11557
1493794270922	-0.6919098	3.6599884	8.884705
1493794270942	-0.75813293	3.695465	9.0095825
1493794270960	-0.7916107	3.63208	8.971542
1493794270981	-0.70428467	3.63031	9.015106
1493794271007	-0.68159485	3.5739136	9.050766
1493794271021	-0.6625061	3.5442657	9.121201
1493794271041	-0.71998596	3.581421	9.236832
1493794271061	-0.68714905	3.5821838	9.133682
1493794271080	-0.6092224	3.5343628	9.20224
1493794271099	-0.5423126	3.5303497	9.22789
1493794271120	-0.59259033	3.5136566	9.340332
1493794271140	-0.6172638	3.4959564	9.343933
1493794271159	-0.59861755	3.4224396	9.284409
1493794271180	-0.59866333	3.450348	9.345367
1493794271201	-0.55326843	3.4442902	9.359863
1493794271219	-0.5619354	3.400055	9.360947
1493794271239	-0.5434265	3.3806458	9.274994
1493794271258	-0.50271606	3.4294739	9.223312
1493794271278	-0.56137085	3.4582825	9.132721
1493794271298	-0.60491943	3.4356384	9.104401
1493794271317	-0.6101837	3.320404	9.249893
1493794271339	-0.47361755	3.2875366	9.298843
1493794271357	-0.35351563	3.425583	9.148407
1493794271377	-0.4711151	3.5019226	9.069595
1493794271396	-0.517334	3.4813538	9.082977
1493794271416	-0.6208954	3.561554	9.067139
1493794271436	-0.8469696	3.7208862	9.164612
1493794271455	-0.9479675	3.8982391	9.169525
1493794271476	-0.98217773	3.9762726	8.943741
1493794271495	-1.1394501	4.077072	8.739807
1493794271515	-1.283432	4.1575165	8.653839
1493794271535	-1.4324036	4.221054	8.713547
1493794271555	-1.5267792	4.2210693	8.780914
1493794271575	-1.4442596	4.1706543	8.7391815
1493794271594	-1.4385834	4.209778	8.712158
1493794271617	-1.4807434	4.2262115	8.726028
1493794271634	-1.454834	4.21669	8.740433
1493794271674	-1.3205414	4.2074738	8.695572
1493794271674	-1.3314056	4.253784	8.641739
1493794271696	-1.4226074	4.2766876	8.646088
1493794271713	-1.4228516	4.282608	8.619431
1493794271733	-1.3590088	4.3028564	8.568329
1493794271753	-1.4474182	4.2268524	8.746933
1493794271772	-1.5011139	4.272156	8.9313965
1493794271792	-1.5050049	4.2610626	8.921143
1493794271812	-1.3897858	4.218445	8.945602
1493794271832	-1.4063721	4.2489014	8.841446
1493794271852	-1.3856506	4.274353	8.831726
1493794271871	-1.4320679	4.285385	8.860779
1493794271892	-1.3903198	4.310959	8.808502
1493794271910	-1.3673096	4.2822723	8.766602
1493794271931	-1.345459	4.2013397	8.777054
1493794271970	-1.2924194	4.2528687	8.760269
1493794271990	-1.2395172	4.2749023	8.724945
1493794272009	-1.2010956	4.3053894	8.727463
1493794272029	-1.1807251	4.3095093	8.67717
1493794272049	-1.2832947	4.26593	8.611938
1493794272068	-1.269928	4.23172	8.680252
1493794272089	-1.1583099	4.28537	8.659302
1493794272109	-1.1850281	4.326645	8.632294
1493794272129	-1.2195587	4.260376	8.696503
1493794272148	-1.1763153	4.239395	8.778381
1493794272167	-1.1447449	4.3075104	8.716858
1493794272188	-1.1469116	4.2927856	8.699448
1493794272207	-1.1334534	4.3074646	8.76355
1493794272227	-1.1458588	4.3216553	8.695114
1493794272247	-1.123169	4.3563232	8.681671
1493794272266	-1.1008301	4.346176	8.70224
1493794272286	-1.1165771	4.384094	8.712555
1493794272306	-1.1122894	4.413254	8.699127
1493794272326	-1.0961151	4.419647	8.714493
1493794272346	-1.1006775	4.381439	8.721481
1493794272365	-1.0697937	4.4119873	8.695908
1493794272385	-1.0410614	4.417053	8.636948
1493794272405	-1.087616	4.390686	8.692322
1493794272425	-1.1031799	4.3848724	8.739899
1493794272445	-1.0880432	4.322876	8.740906
1493794272464	-1.0621185	4.3232574	8.741257
1493794272484	-1.0190277	4.3453827	8.637039
1493794272504	-0.90023804	4.3696594	8.47197
1493794272524	-0.84246826	4.378479	8.527924
1493794272544	-0.9317169	4.3730316	8.71907
1493794272563	-1.0238037	4.313614	8.869858
1493794272583	-1.1325378	4.2878113	8.951355
1493794272603	-1.1604309	4.2969666	9.007782
1493794272623	-1.1042175	4.3049927	8.981781
1493794272642	-1.0746918	4.348709	8.828247
1493794272663	-1.0675659	4.403778	8.712845
1493794272682	-1.0643005	4.420105	8.698013
1493794272702	-1.082489	4.3995056	8.781097
1493794272721	-1.0278931	4.35524	8.801743
1493794272742	-0.9608002	4.337311	8.789307
1493794272761	-0.9185333	4.2985687	8.747482
1493794272781	-0.9150696	4.276886	8.811188
1493794272800	-0.97480774	4.2984924	8.7444
1493794272821	-0.96765137	4.3203278	8.714355
1493794272840	-1.0070038	4.2868958	8.614975
1493794272860	-0.96255493	4.2789	8.523712
1493794272880	-0.9381256	4.3340607	8.672028
1493794272900	-0.98809814	4.3243256	8.80748
1493794272919	-1.0127563	4.258377	8.887985
1493794272939	-0.9837189	4.316101	8.906952
1493794272959	-0.98321533	4.312866	8.803818
1493794272979	-1.0172577	4.3506317	8.685532
1493794272998	-1.012146	4.345749	8.65184
1493794273018	-1.0354462	4.3573	8.733322
1493794273058	-1.0117188	4.343094	8.718796
1493794273077	-0.9886017	4.336609	8.585754
1493794273097	-1.0048981	4.3548584	8.716492
1493794273117	-1.0073395	4.295395	8.695923
1493794273137	-1.0085602	4.2966766	8.785217
1493794273156	-1.0091248	4.329132	8.7369995
1493794273176	-1.0846405	4.343918	8.776703
1493794273197	-1.0380859	4.2953033	8.747971
1493794273216	-1.0152283	4.36734	8.78273
1493794273236	-1.0354614	4.3360443	8.702301
1493794273255	-1.0341644	4.3096313	8.696136
1493794273275	-0.99645996	4.334244	8.777588
1493794273295	-1.0268097	4.317581	8.762299
1493794273314	-1.0153046	4.3243103	8.756454
1493794273335	-0.97691345	4.353012	8.666687
1493794273354	-0.9806671	4.3462677	8.699753
1493794273373	-0.99620056	4.3508453	8.805771
1493794273394	-1.0150299	4.2929077	8.900879
1493794273413	-1.0096436	4.3021393	8.77327
1493794273433	-1.0384979	4.3602753	8.698593
1493794273453	-1.0628204	4.34906	8.773712
1493794273473	-1.0333557	4.3566284	8.834732
1493794273493	-1.016159	4.34816	8.8359375
1493794273512	-0.9793396	4.3014984	8.847855
1493794273532	-0.9619446	4.3103333	8.811279
1493794273552	-1.0172882	4.3268585	8.758881
1493794273571	-1.0680542	4.300644	8.704086
1493794273592	-1.0474701	4.3164215	8.6884
1493794273612	-1.0494843	4.2910004	8.773499
1493794273631	-1.0347443	4.2645416	8.825882
1493794273651	-1.0224152	4.3049316	8.793747
1493794273671	-1.0272064	4.3095856	8.684906
1493794273691	-0.99598694	4.3358154	8.650772
1493794273710	-1.0208282	4.363388	8.669189
1493794273730	-1.0736847	4.351654	8.637909
1493794273750	-1.0691681	4.322647	8.648499
1493794273769	-1.0595398	4.31546	8.734161
1493794273789	-1.0412598	4.32695	8.800934
1493794273809	-1.0487671	4.3363953	8.823837
1493794273829	-1.0407867	4.322647	8.751923
1493794273849	-1.0105743	4.360138	8.723038
1493794273868	-1.0042572	4.361206	8.764862
1493794273888	-1.0708771	4.334793	8.818741
1493794273908	-1.0322571	4.3423615	8.846909
1493794273928	-1.0269775	4.3139496	8.700882
1493794273947	-1.0567169	4.3415985	8.77449
1493794273967	-1.0495911	4.3582	8.691055
1493794273987	-1.0245361	4.3556213	8.647522
1493794274007	-1.07724	4.355072	8.611725
1493794274027	-1.121933	4.3036346	8.7174835
1493794274046	-1.0971527	4.277832	8.847977
1493794274066	-1.1020813	4.2719574	8.835251
1493794274086	-1.0977478	4.35997	8.715927
1493794274106	-1.123703	4.4356537	8.582611
1493794274145	-1.0900269	4.421997	8.595718
1493794274165	-1.0395508	4.4497223	8.79483
1493794274185	-1.0110016	4.3547974	8.971512
1493794274204	-1.0357056	4.3064423	8.908691
1493794274224	-1.0056	4.3332977	8.87616
1493794274244	-1.0703888	4.4040375	8.807434
1493794274264	-1.1220245	4.397003	8.723862
1493794274284	-1.1167603	4.4042816	8.60881
1493794274304	-1.0699921	4.383316	8.688736
1493794274323	-1.0971069	4.3627777	8.773621
1493794274343	-1.0652161	4.3231506	8.723679
1493794274363	-1.0662537	4.3391724	8.628403
1493794274381	-1.0415039	4.3799286	8.616486
1493794274402	-1.1253967	4.3901215	8.629761
1493794274422	-1.1699982	4.375519	8.651291
1493794274443	-1.1321869	4.359421	8.652252
1493794274461	-1.111908	4.4123993	8.660858
1493794274481	-1.0831757	4.4200745	8.624954
1493794274502	-1.0537567	4.41214	8.646133
1493794274521	-1.0989227	4.444458	8.640457
1493794274541	-1.0691833	4.463501	8.690475
1493794274560	-1.028122	4.445511	8.708115
1493794274581	-1.0277252	4.4335327	8.651489
1493794274600	-1.0353699	4.419464	8.646591
1493794274620	-1.0402985	4.431595	8.730026
1493794274639	-1.0598907	4.4302216	8.731522
1493794274659	-1.0903625	4.4250183	8.675003
1493794274678	-1.1023865	4.43808	8.652023
1493794274699	-1.085968	4.4391174	8.671707
1493794274719	-1.0596466	4.4424133	8.697571
1493794274738	-1.0568085	4.4387054	8.689163
1493794274758	-1.0423279	4.421158	8.71698
1493794274778	-1.0083923	4.4406433	8.751602
1493794274798	-1.0265198	4.463669	8.771545
1493794274817	-1.0728302	4.443115	8.78418
1493794274837	-1.0849609	4.4579926	8.648254
1493794274857	-1.0752563	4.432846	8.680847
1493794274877	-0.9998932	4.442856	8.752884
1493794274897	-1.0305786	4.4550476	8.805618
1493794274916	-0.98820496	4.458542	8.662979
1493794274936	-1.0001526	4.517105	8.670273
1493794274956	-1.0137787	4.5378113	8.573822
1493794274976	-1.1009979	4.511978	8.488281
1493794274995	-1.0852509	4.5050354	8.611816
1493794275015	-1.0860748	4.491226	8.718857
1493794275034	-1.1403809	4.4507294	8.774078
1493794275055	-1.0813293	4.474518	8.68428
1493794275074	-0.9976654	4.4914856	8.636353
1493794275094	-1.018219	4.5038757	8.509491
1493794275114	-1.0192719	4.5182037	8.4787445
1493794275135	-1.0276794	4.4956512	8.496628
1493794275153	-1.0263214	4.561432	8.567001
1493794275174	-1.0706024	4.487442	8.619171
1493794275193	-1.1214294	4.528839	8.612946
1493794275233	-1.1353302	4.4907837	8.747223
1493794275253	-1.1177216	4.492859	8.670883
1493794275272	-1.2059784	4.487274	8.630127
1493794275292	-1.179184	4.510315	8.637192
1493794275312	-1.0960999	4.5169373	8.607895
1493794275333	-1.0852509	4.5134583	8.562485
1493794275351	-1.1147919	4.4941406	8.59523
1493794275371	-1.1051636	4.534088	8.599991
1493794275391	-1.1860046	4.49794	8.658478
1493794275411	-1.1604462	4.510269	8.638672
1493794275430	-1.1356964	4.528412	8.626694
1493794275450	-1.1080627	4.562332	8.552856
1493794275470	-1.1231842	4.4617157	8.598267
1493794275489	-1.0617828	4.490753	8.695648
1493794275510	-1.0978851	4.481674	8.696671
1493794275529	-1.1199951	4.4808044	8.647644
1493794275549	-1.141983	4.530411	8.52803
1493794275569	-1.1849213	4.537552	8.551849
1493794275589	-1.1430817	4.5368347	8.585037
1493794275608	-1.0920563	4.521698	8.63205
1493794275628	-1.095398	4.500366	8.708237
1493794275648	-1.0938568	4.462082	8.776993
1493794275668	-1.0520935	4.4672546	8.703903
1493794275691	-1.0769196	4.4785767	8.6228485
1493794275729	-1.1487427	4.484024	8.594421
1493794275734	-1.1838531	4.501404	8.622101
1493794275747	-1.1527557	4.497925	8.680862
1493794275767	-1.1514587	4.4710083	8.727753
1493794275786	-1.1188507	4.461731	8.684113
1493794275807	-1.06427	4.475662	8.626114
1493794275826	-1.0683746	4.47612	8.673584
1493794275846	-1.096756	4.502289	8.69812
1493794275866	-1.0812988	4.4839325	8.708282
1493794275886	-1.051178	4.4867554	8.684479
1493794275907	-1.0876923	4.488785	8.666168
1493794275925	-1.1016083	4.501831	8.743011
1493794275945	-1.0927429	4.474655	8.708572
1493794275965	-1.09552	4.4557495	8.654739
1493794275984	-1.0853119	4.4638367	8.644516
1493794276005	-1.0951843	4.4687195	8.63501
1493794276024	-1.0693359	4.458496	8.639221
1493794276044	-1.0632324	4.4310913	8.623093
1493794276064	-1.0245514	4.482788	8.566605
1493794276083	-1.1441345	4.4723206	8.563278
1493794276103	-1.0978241	4.453018	8.501694
1493794276123	-1.0732117	4.4340515	8.503372
1493794276143	-1.090805	4.47641	8.6091
1493794276163	-1.1245117	4.439026	8.706589
1493794276182	-1.0943146	4.474304	8.741241
1493794276202	-1.0133972	4.4568176	8.748276
1493794276222	-1.0882416	4.5000763	8.721619
1493794276241	-1.0745392	4.4888916	8.715485
1493794276261	-1.1487122	4.50708	8.570236
1493794276301	-1.1641388	4.469391	8.560684
1493794276321	-1.0749817	4.5167847	8.62439
1493794276340	-1.1306763	4.5077667	8.72081
1493794276360	-1.1250305	4.4571533	8.804047
1493794276380	-1.1457672	4.4547424	8.892273
1493794276399	-1.1507263	4.4779205	8.865097
1493794276419	-1.1336517	4.4499664	8.7821045
1493794276439	-1.128891	4.465744	8.673355
1493794276459	-1.1659851	4.4891815	8.61853
1493794276479	-1.1170807	4.481888	8.703949
1493794276499	-1.1176605	4.429718	8.750015
1493794276518	-1.0961914	4.455063	8.67482
1493794276538	-1.0570221	4.486801	8.627304
1493794276557	-1.1130066	4.456833	8.621063
1493794276577	-1.1362	4.4550476	8.673584
1493794276596	-1.1316528	4.4501953	8.690186
1493794276617	-1.1174011	4.4353485	8.7209015
1493794276636	-1.0917358	4.423523	8.686554
1493794276656	-1.0949249	4.418686	8.689774
1493794276676	-1.0769653	4.4261017	8.666946
1493794276696	-1.098053	4.4178925	8.629059
1493794276716	-1.0834656	4.440262	8.579742
1493794276736	-1.095993	4.4633484	8.620148
1493794276755	-1.1073761	4.4550476	8.708771
1493794276775	-1.0773315	4.442032	8.720749
1493794276794	-1.101532	4.428726	8.729111
1493794276814	-1.0706787	4.437088	8.660324
1493794276834	-1.135376	4.4577484	8.551071
1493794276854	-1.1709442	4.495682	8.475845
1493794276874	-1.1222839	4.5038757	8.461304
1493794276893	-1.1176758	4.4392395	8.605911
1493794276914	-1.0969086	4.3847504	8.758041
1493794276933	-0.9972687	4.3812866	8.789551
1493794276953	-0.9849396	4.3726807	8.835571
1493794276976	-0.9422455	4.3494415	8.804672
1493794276993	-0.930542	4.3954163	8.8403015
1493794277012	-1.0048218	4.425705	8.856262
1493794277032	-1.1012421	4.464554	8.758484
1493794277052	-1.1360474	4.4693604	8.525085
