accelerometer_timestamp	accelerometer_x_data	accelerometer_y_data	accelerometer_z_data
1493784718756	-0.9599762	8.509628	4.073578
1493784718779	-0.61813354	8.60939	5.067795
1493784718797	-0.67593384	8.592728	5.525833
1493784718815	-0.8878021	8.574326	4.846878
1493784718835	-0.8833771	8.645111	4.352356
1493784718855	-0.74868774	8.665405	4.380661
1493784718875	-0.8725891	8.534378	4.7085724
1493784718895	-0.9297943	8.493759	4.6685944
1493784718915	-0.825531	8.583527	4.4390717
1493784718934	-0.8391571	8.479752	4.4249115
1493784718954	-0.8416748	8.448654	4.506378
1493784718975	-0.7967377	8.55368	4.3474884
1493784718994	-0.67533875	8.578491	4.315048
1493784719014	-0.7645416	8.498611	4.2131805
1493784719033	-0.8023071	8.410492	4.506073
1493784719053	-0.6665497	8.488754	4.798584
1493784719073	-0.63327026	8.61441	4.4471283
1493784719093	-0.8657074	8.594894	4.1164703
1493784719113	-1.1176758	8.350784	4.1273346
1493784719133	-1.135437	8.152374	3.9929504
1493784719152	-0.8447113	8.119598	4.0126343
1493784719173	-0.110839844	8.250015	4.300583
1493784719192	0.4834442	7.9290466	4.57695
1493784719212	0.96203613	6.800125	4.60614
1493784719232	1.4023438	4.6291046	2.970459
1493784719251	1.6710052	5.3723145	2.5019531
1493784719271	2.2580414	6.4322968	2.549591
1493784719291	2.619461	6.3488464	4.331848
1493784719311	2.231598	6.0808563	5.4505157
1493784719331	2.0023499	6.734329	6.977417
1493784719350	2.8409576	7.688736	8.2948
1493784719370	2.4554138	7.677582	8.83548
1493784719390	1.960968	7.133026	8.9496155
1493784719410	1.9211731	6.772476	7.9091797
1493784719430	2.0964813	6.724945	7.061096
1493784719450	2.442093	6.042938	8.256546
1493784719469	3.8741455	5.664871	6.3643494
1493784719489	4.467407	6.486786	4.654999
1493784719509	3.5914917	6.1046753	5.2422028
1493784719529	2.9100647	5.8080597	6.2064056
1493784719549	2.34404	6.1712036	6.3686523
1493784719568	1.2539673	6.088928	6.132492
1493784719588	1.6443634	6.0016937	7.379013
1493784719608	1.5271759	5.4160156	7.3020477
1493784719628	1.4372406	4.326126	6.704834
1493784719648	1.8091278	3.8053436	5.8232727
1493784719668	1.7707672	3.1874695	2.5383759
1493784719687	2.474289	2.1969604	0.6688385
1493784719707	2.3122253	0.79216003	0.41079712
1493784719727	1.0320435	-2.1170654	-0.07417297
1493784719766	2.7852173	-2.9986115	-0.5172272
1493784719786	5.3831177	-0.674469	0.20373535
1493784719806	1.8032837	-5.2423096	0.6550751
1493784719826	3.8585968	-6.2447968	2.5903625
1493784719846	7.2700195	-6.0569763	5.5596313
1493784719865	13.541	-3.9418793	8.3103485
1493784719885	18.72084	-1.9722443	7.02623
1493784719905	19.461044	-1.2845459	4.7075043
1493784719925	19.461044	0.5484314	4.519577
1493784719945	19.461044	1.4725494	3.778656
1493784719966	19.461044	2.9701538	2.8390656
1493784719984	19.461044	4.2492065	-0.019256592
1493784720005	19.461044	5.162491	-2.1370697
1493784720024	18.6987	7.876831	-6.5199585
1493784720044	13.45784	1.6448212	-2.443756
1493784720064	6.6530457	-1.36586	2.5286255
1493784720083	10.729782	1.1651917	1.3358002
1493784720103	9.433899	-0.046051025	0.8668823
1493784720123	4.9882813	-2.4880981	-0.6411896
1493784720143	2.7285004	-1.8050537	-1.8713074
1493784720163	2.2914276	-2.286438	4.1075745
1493784720183	3.7560272	-2.353775	3.3711243
1493784720202	7.6597595	-1.594986	-4.320999
1493784720222	9.253387	-2.706604	-4.859085
1493784720242	6.8409576	-6.1909943	0.55311584
1493784720262	8.869263	-7.6833496	1.9288788
1493784720281	11.443237	-3.9486847	2.2221527
1493784720301	9.855347	-2.4383392	2.5660553
1493784720321	8.16066	-4.6940613	0.40811157
1493784720341	5.039749	-6.006531	-1.200592
1493784720361	6.1080933	-6.2919617	-1.4145508
1493784720381	6.6846466	-5.0556946	1.1271515
1493784720400	4.8430786	-4.9549255	2.309845
1493784720420	6.1867676	-3.0873108	-0.12176514
1493784720440	4.978653	-4.616699	-1.8616943
1493784720460	6.7510834	-5.390671	-2.5512085
1493784720480	9.516052	-7.186432	-0.8943634
1493784720499	8.338516	-10.843735	0.5974426
1493784720519	10.137848	-8.95314	-4.431885
1493784720539	3.1567383	-4.1277313	-2.2584534
1493784720559	-3.4286194	-6.302017	3.2371368
1493784720579	-0.98542786	-11.578049	2.9770813
1493784720598	6.5514526	-13.956024	-0.77719116
1493784720619	8.242615	-15.034775	-3.1380615
1493784720638	9.12384	-11.160141	-3.2908478
1493784720658	5.5353394	-8.2005005	-1.2975769
1493784720678	3.3488464	-6.233124	-0.54045105
1493784720698	3.1584778	-5.558502	-0.667572
1493784720717	3.4407043	-6.7160034	1.9872742
1493784720737	5.5879517	-7.328018	5.0254974
1493784720757	2.3509064	-5.4417725	-1.9389496
1493784720777	-0.71665955	-5.082535	-0.77752686
1493784720797	1.1705933	-5.428055	-7.446808
1493784720816	1.2124023	-6.8634796	-6.935486
1493784720836	-17.49292	-18.24733	-0.3413849
1493784720856	10.051147	-17.405731	0.5695343
1493784720876	8.391541	-12.617401	-0.09362793
1493784720896	2.5318909	-9.565918	-2.0355072
1493784720916	1.4185028	-9.155685	2.8994598
1493784720935	-0.6997833	-8.264221	3.0481262
1493784720956	-1.5641785	-3.7381897	2.426361
1493784720995	-1.0376434	-4.558777	1.5512543
1493784721015	-0.895401	-4.644821	0.8779907
1493784721034	-1.5840302	-4.2005615	-0.14215088
1493784721054	-1.0781555	-4.026581	-1.3369293
1493784721074	-0.660202	-3.9276428	-1.9042053
1493784721094	-0.964386	-4.0278473	-2.7468414
1493784721114	-1.3826752	-5.563217	-4.074234
1493784721133	-2.2212677	-8.137131	-5.5315857
1493784721153	-2.918167	-10.265305	-5.689926
1493784721174	-3.0065918	-11.382294	-4.965683
1493784721193	-3.4485016	-11.413773	-4.148117
1493784721213	-3.835785	-10.400101	-3.5132904
1493784721233	-2.7938385	-9.654709	-3.9300842
1493784721252	-1.0415497	-9.507248	-4.0427704
1493784721272	-0.99935913	-9.992645	-4.6687775
1493784721292	-2.0860443	-13.544769	-4.296707
1493784721312	-0.54611206	-16.734375	-1.4825745
1493784721332	2.9020386	-13.159363	1.5706787
1493784721351	3.6503906	-7.108719	3.0243378
1493784721371	0.26158142	-5.8851624	3.9168243
1493784721391	-0.7561798	-8.173386	3.5135498
1493784721411	0.1667633	-10.892029	0.80722046
1493784721431	2.7136383	-11.600952	-0.39276123
1493784721450	3.5721436	-11.038971	0.30749512
1493784721470	1.2953491	-11.066818	-0.09169006
1493784721490	-0.35079956	-10.506989	-1.0240936
1493784721510	-0.4257965	-9.945984	-0.8359833
1493784721530	-0.15249634	-9.7604065	-0.1646576
1493784721549	0.75738525	-9.512131	0.57536316
1493784721569	1.9141235	-9.503784	0.8444519
1493784721589	2.5863495	-9.496735	0.3754425
1493784721609	2.5078278	-9.204727	1.058258
1493784721629	1.5591431	-8.934174	1.6398621
1493784721649	0.09681702	-8.577286	1.8641968
1493784721668	-0.60487366	-8.446594	2.038147
1493784721688	-0.504303	-8.721664	2.0171356
1493784721708	-0.18803406	-8.733215	1.6551819
1493784721728	0.114486694	-8.778595	1.1837311
1493784721748	0.64305115	-9.098404	1.0819397
1493784721768	0.9622345	-9.45047	0.9154968
1493784721787	1.0197601	-10.31044	0.5799866
1493784721807	1.4385681	-10.750671	0.04940796
1493784721827	2.4852753	-10.844223	-0.138031
1493784721847	3.224121	-11.011765	0.25273132
1493784721866	3.2000427	-11.272171	0.3066101
1493784721886	2.853775	-11.494537	0.015701294
1493784721906	1.9144287	-11.330093	-0.54888916
1493784721926	1.5162354	-11.399857	-1.8000183
1493784721946	2.8017273	-11.297379	-2.4098053
1493784721967	4.0353394	-12.193878	-1.8561554
1493784721986	3.557724	-13.602066	-2.1310272
1493784722006	2.2306519	-13.58786	-2.4206696
1493784722025	0.1359253	-11.098068	-1.2845764
1493784722045	-1.4709167	-9.713715	-2.02919
1493784722065	-2.5507355	-10.9543915	-0.011779785
1493784722085	-3.114212	-15.036835	2.4138184
1493784722105	-1.975708	-16.882874	3.9575958
1493784722124	1.0704803	-13.92955	3.9762878
1493784722144	2.3991852	-12.000259	2.834198
1493784722164	3.6299744	-13.551987	-2.9561157
1493784722204	2.5787659	-13.034729	-1.6826935
1493784722223	-1.6218109	-12.305237	0.5757904
1493784722243	-0.7327881	-8.85997	1.2408752
1493784722264	-0.23750305	-6.951782	1.1073608
1493784722283	-0.25332642	-6.2549896	0.712677
1493784722303	-1.6369629	-5.883316	0.96499634
1493784722323	-3.1256256	-5.498108	1.136795
1493784722342	-3.543747	-5.3504333	0.77583313
1493784722362	-3.4903564	-5.1875763	0.42500305
1493784722382	-3.143509	-5.046341	-0.045028687
1493784722402	-2.729065	-5.0129547	-0.5185547
1493784722422	-2.4397278	-5.263214	-1.229538
1493784722442	-2.3522034	-5.7667847	-1.6477509
1493784722461	-2.325241	-6.525894	-2.0141754
1493784722481	-2.4756317	-7.9020386	-3.1268616
1493784722501	-2.52211	-9.640152	-4.9048615
1493784722521	-2.2866516	-10.431732	-6.3782043
1493784722541	-1.9921265	-10.089813	-6.707123
1493784722560	-2.15625	-9.427673	-6.29126
1493784722580	-3.0778198	-9.345444	-6.011032
1493784722600	-3.659546	-9.819534	-5.5190277
1493784722620	-3.2944946	-9.954086	-5.001404
1493784722640	-2.971161	-9.296036	-4.485504
1493784722659	-3.5737762	-8.356033	-4.3345184
1493784722679	-5.1776886	-8.149139	-3.7967377
1493784722699	-7.5421753	-10.765518	-1.6583862
1493784722719	-8.627167	-15.530182	-1.7732391
1493784722739	-6.9490814	-18.104065	-3.8779907
1493784722759	-2.1456757	-15.408279	-2.1946106
1493784722778	2.8590546	-8.628189	3.5001678
1493784722798	3.7592163	-4.919632	7.817978
1493784722818	3.576538	-5.570282	7.3575287
1493784722838	3.5582123	-7.814728	5.226059
1493784722858	4.0477753	-11.305298	2.6305237
1493784722877	3.4628906	-14.575165	-2.4265137
1493784722897	2.7130585	-13.350922	-3.645401
1493784722917	0.91737366	-10.44072	-1.914093
1493784722937	-0.6952057	-8.605881	-0.41357422
1493784722958	-1.6428375	-8.1510315	-0.6280365
1493784722977	-0.9935608	-8.753143	-1.8527069
1493784722996	1.6272583	-9.870117	-1.43367
1493784723016	2.8865814	-10.082703	-0.8201294
1493784723036	2.8501892	-8.793716	-0.7489166
1493784723056	2.649292	-8.271942	-0.54389954
1493784723076	2.3787994	-8.547882	-0.068359375
1493784723095	1.4976349	-8.661011	-0.53411865
1493784723115	1.0149841	-9.254562	-0.5413513
1493784723134	1.3708801	-9.889267	0.92007446
1493784723155	1.5053864	-9.707581	1.8012695
1493784723175	0.21920776	-9.628876	0.93299866
1493784723194	-1.2180328	-10.354828	-0.9354248
1493784723214	-0.9473572	-11.151154	-2.1684875
1493784723234	0.36299133	-11.498718	-2.837616
1493784723254	0.8701477	-11.744324	-2.1576538
1493784723274	0.09420776	-11.617828	-1.8338776
1493784723293	0.14868164	-11.560989	-2.7512817
1493784723313	0.17944336	-11.742081	-3.7442932
1493784723332	1.2860413	-12.0229645	-4.100403
1493784723353	3.8464508	-14.794067	-3.056778
1493784723373	6.779907	-15.266815	-2.4513397
1493784723412	3.5375519	-14.750366	-2.0708923
1493784723431	-1.950058	-12.425171	0.7329407
1493784723452	-4.5866547	-13.495575	1.8959808
1493784723472	-1.6120911	-15.752075	4.1814423
1493784723492	2.849884	-12.118195	2.1630554
1493784723511	7.983841	-12.661255	-0.97657776
1493784723531	6.758896	-10.992432	-2.29599
1493784723551	2.135788	-10.039322	-0.2030487
1493784723571	1.5055542	-7.7931366	2.0724487
1493784723591	0.95503235	-6.4303894	3.194336
1493784723610	0.70066833	-4.58136	2.6929169
1493784723631	0.4644928	-4.4973297	2.8092499
1493784723651	-1.3434448	-4.433136	2.5641174
1493784723677	-3.07872	-5.5165405	1.6238403
1493784723695	-3.6195526	-6.3837433	0.94670105
1493784723713	-3.4090118	-6.3503876	0.9339142
1493784723732	-3.2232513	-5.9880066	0.8625488
1493784723752	-4.117462	-5.927002	0.49023438
1493784723773	-5.3282166	-6.304245	0.25416565
1493784723796	-5.7276306	-7.1836853	-0.21484375
1493784723816	-5.383835	-8.957428	-1.6955872
1493784723835	-4.9767	-10.761993	-3.6334534
1493784723854	-4.736023	-12.041367	-5.034912
1493784723874	-4.410507	-12.451111	-5.787674
1493784723894	-3.994461	-11.912659	-6.5238495
1493784723915	-3.614334	-11.288055	-6.9447327
1493784723934	-3.5422058	-10.334457	-5.6951447
1493784723953	-4.020706	-8.020111	-4.0508423
1493784723975	-5.470871	-6.5825653	-3.2230225
1493784723993	-7.40065	-8.331863	-2.2163086
1493784724014	-7.0822754	-13.206558	-1.7170105
1493784724033	-5.7949066	-16.88356	-3.0052185
1493784724052	-4.1122894	-14.694397	-2.3022766
1493784724073	-0.7981262	-8.397003	4.3026886
1493784724091	1.8908844	-5.2144012	8.205719
1493784724113	3.1922607	-6.9867554	7.171173
1493784724132	4.0994415	-10.05986	5.2266235
1493784724151	4.289459	-12.326431	2.7827911
1493784724169	4.7079773	-12.376968	1.1112366
1493784724193	3.2686462	-11.101074	-1.8484802
1493784724208	0.80513	-9.432938	-1.9962006
1493784724227	-1.4132843	-8.964432	-0.3034973
1493784724247	-2.3320313	-8.874649	-0.20513916
1493784724267	-3.1194153	-8.845856	-1.1595764
1493784724286	-1.5261993	-9.548721	-0.9965515
1493784724311	1.748291	-9.805252	1.5915833
1493784724331	2.6122437	-9.241867	1.3955994
1493784724348	2.0299225	-8.875534	0.17375183
1493784724372	1.4638367	-9.063187	-0.5401764
1493784724390	0.44929504	-9.484283	-0.6254425
1493784724410	0.8286133	-9.405762	0.85902405
1493784724431	1.9592285	-9.602753	1.2843933
1493784724448	2.6318665	-10.130249	0.98220825
1493784724470	1.0279236	-10.400436	-0.37150574
1493784724489	-0.30593872	-10.660309	-1.8660431
1493784724509	0.7785034	-11.666153	-1.8313141
1493784724528	2.883133	-12.144348	-1.0852051
1493784724549	3.1566467	-12.040024	-1.0156555
1493784724569	2.105774	-11.804733	-1.3843384
1493784724587	1.9912872	-13.083862	-1.4714813
1493784724607	4.2317505	-14.296112	-2.9060974
1493784724646	5.483368	-13.351242	-2.265396
1493784724646	2.2429657	-12.239105	-2.5861511
1493784724700	-2.1170807	-10.892899	-3.090149
1493784724703	-3.4290009	-11.612152	1.2023315
1493784724722	-4.3864594	-15.047363	3.9165192
1493784724742	-4.8328247	-16.560959	4.441208
1493784724762	-3.8757477	-14.492477	1.6547699
1493784724780	-0.4760437	-12.478088	-1.1104126
1493784724799	1.9932251	-11.413193	0.622818
1493784724825	3.2262726	-10.417618	0.10623169
1493784724844	3.1023865	-8.846191	-5.78598
1493784724864	0.8131256	-8.580719	-6.129471
1493784724884	2.5424652	-5.9403076	0.84773254
1493784724904	0.99009705	-4.877823	1.9451904
1493784724924	-0.044143677	-3.4001312	2.8163605
1493784724943	-1.4782104	-2.967636	2.7221222
1493784724960	-2.0154266	-2.9373016	3.0542755
1493784724983	-1.930191	-3.7125702	1.6902008
1493784725003	-1.9179382	-4.6406097	0.08660889
1493784725023	-1.8650055	-6.6628876	-1.5238342
1493784725042	-2.6328583	-10.489105	-4.5303345
1493784725061	-4.020035	-14.968033	-9.478409
1493784725078	-4.2648773	-15.935043	-12.992889
1493784725103	-3.0652313	-12.589035	-10.114853
1493784725121	-1.5106354	-9.388626	-5.584366
1493784725142	-1.6962738	-8.540939	-5.2888336
1493784725160	-3.6100006	-13.439331	-7.292633
1493784725183	-3.870697	-18.289078	-4.8654633
1493784725200	-1.9533691	-13.133804	0.75453186
1493784725221	-0.54618835	-6.729889	5.5770264
1493784725237	-1.1054688	-4.3609924	7.3767853
1493784725257	-1.4003448	-6.29953	5.9809875
1493784725277	1.1889801	-10.056351	5.22937
1493784725297	3.4793243	-13.132706	2.9189758
1493784725321	4.2867737	-14.046097	-0.42219543
1493784725342	2.9812164	-12.980957	-1.4007721
1493784725358	0.64312744	-11.481216	-0.76446533
1493784725379	-0.45791626	-10.073715	0.22451782
1493784725396	-1.7828827	-9.096741	-0.18951416
1493784725416	-2.1446838	-8.616135	-1.3250885
1493784725437	-1.6360626	-8.5716095	-1.4705353
1493784725456	-0.5652771	-8.836884	-1.4062958
1493784725476	0.50834656	-9.282028	-1.7736359
1493784725497	1.3382416	-9.238663	-1.3222504
1493784725518	1.1457977	-8.559631	-1.2544403
1493784725537	0.33998108	-8.144699	-1.9785309
1493784725555	0.4112854	-8.314972	-2.2547607
1493784725582	0.9605255	-8.580063	-2.2397766
1493784725594	0.85643005	-9.019348	-2.6567383
1493784725614	0.39726257	-9.63327	-4.6255493
1493784725634	0.18797302	-9.4014435	-3.7991333
1493784725650	0.80119324	-8.395157	-2.3940735
1493784725671	1.784378	-7.6661835	-2.8091888
1493784725692	-0.0945282	-7.998291	-4.0418854
1493784725710	-2.4709473	-15.91597	-2.3197784
1493784725730	-0.7266693	-19.318893	5.0522766
1493784725749	-4.686737	-16.414505	1.8719025
1493784725770	-5.363861	-10.098724	-1.2567139
1493784725791	-1.199295	-12.173248	4.1437225
1493784725831	3.1002197	-13.503815	3.8854218
1493784725851	3.7789154	-13.6102295	3.249939
1493784725874	0.8670044	-11.562119	2.859085
1493784725893	-2.5430603	-8.9189	2.2657013
1493784725913	-2.9609222	-8.422272	1.9881897
1493784725933	-2.7111664	-7.527313	1.297409
1493784725952	-1.8152618	-6.8914337	0.41038513
1493784725973	-1.259491	-5.8943787	0.35284424
1493784725992	-1.5367126	-5.6559906	0.32069397
1493784726010	-1.6898346	-6.6381683	0.120773315
1493784726034	-1.9289856	-7.9434814	0.3721466
1493784726053	-2.359848	-9.164612	-0.08735657
1493784726074	-3.1421509	-10.281128	-0.7037506
1493784726093	-3.9351807	-11.154037	-2.0027618
1493784726113	-4.5117035	-11.867615	-4.7605286
1493784726133	-3.9475403	-11.5203705	-6.0454254
1493784726152	-3.0951996	-9.976349	-3.5503998
1493784726172	-2.87706	-8.266342	-1.0666656
1493784726191	-2.103363	-8.286118	0.5892334
1493784726207	-1.4571686	-9.242142	1.9968414
1493784726228	-1.8856812	-10.423737	1.6358337
1493784726247	-2.52536	-11.365067	-0.953949
1493784726267	-1.9859924	-11.734619	-5.3104095
1493784726287	0.0138549805	-11.137894	-7.3604126
1493784726310	1.3874817	-9.643341	-4.666168
1493784726328	0.7332306	-8.387634	-1.2164154
1493784726348	-0.66415405	-8.017288	-0.61680603
1493784726369	0.07501221	-8.68573	-1.1387177
1493784726388	2.0193176	-9.38887	-0.826004
1493784726410	2.924408	-9.850723	-1.3166199
1493784726430	2.772522	-10.126602	-2.187378
1493784726451	2.7817688	-10.081604	-2.4862518
1493784726466	3.026886	-9.6922	-2.4956512
1493784726490	2.9697876	-9.169144	-2.4432983
1493784726510	2.513916	-8.929672	-2.3257446
1493784726529	2.1313934	-9.076462	-2.524475
1493784726548	2.265091	-9.38002	-2.8217468
1493784726566	2.4996948	-9.66214	-3.1953125
1493784726589	2.5940704	-10.132111	-3.4743958
1493784726608	2.5421906	-10.898834	-3.0611725
1493784726628	2.0302887	-11.805542	-2.5637665
1493784726647	1.0182343	-12.068359	-2.8165894
1493784726666	0.031188965	-12.05867	-3.0536957
1493784726684	-0.7530823	-12.029907	-3.2680206
1493784726705	-0.8340912	-11.298508	-3.265976
1493784726724	-1.3440552	-10.935669	-1.6451111
1493784726743	-1.9901123	-11.314178	-0.6652374
1493784726761	-2.4734955	-11.92688	-1.0837402
1493784726782	-1.8214722	-12.725662	-0.19306946
1493784726802	0.01889038	-12.000183	0.4676361
1493784726823	-0.6617584	-10.965225	-0.43423462
1493784726846	-0.95680237	-10.775742	-1.4000549
1493784726864	-1.6004486	-9.657593	-1.3985138
1493784726886	-2.1767273	-8.739517	-1.1011047
1493784726905	-1.8680878	-7.6319885	0.08615112
1493784726925	-1.5842133	-7.273651	0.07614136
1493784726945	-1.5554199	-6.2209167	0.415802
1493784726964	-2.1248016	-6.035904	0.31663513
1493784726985	-2.5840607	-6.1460724	-0.25335693
1493784727004	-2.5398865	-6.057312	-1.124466
1493784727044	-2.2307434	-6.1233215	-1.979187
1493784727062	-1.6268616	-6.4503326	-3.162262
1493784727084	-1.7913971	-7.3329315	-4.0966034
1493784727103	-2.6766205	-8.478607	-5.5112
1493784727123	-3.969818	-9.392761	-6.8496704
1493784727142	-4.5029755	-9.657242	-6.7350464
1493784727162	-4.18869	-9.236328	-5.5363007
1493784727181	-3.4412842	-9.068527	-4.606613
1493784727206	-3.0625305	-8.854202	-4.760391
1493784727218	-3.549118	-8.013184	-4.500305
1493784727238	-6.213852	-8.178787	-2.4800568
1493784727257	-7.866577	-14.058609	-1.693924
1493784727277	-3.5400238	-16.833115	-3.348709
1493784727297	0.7134552	-10.76973	-2.4938507
1493784727319	1.3116608	-6.968643	3.3879395
1493784727339	-0.01109314	-7.1005707	4.2102203
1493784727360	1.1168823	-8.61322	4.175476
1493784727379	3.4861603	-10.291229	2.4491882
1493784727398	4.792343	-11.267014	1.1498566
1493784727421	4.738388	-11.8116455	-0.4879303
1493784727440	2.191803	-11.653229	-0.8965759
1493784727460	-0.455307	-10.690109	-0.7863922
1493784727479	-1.5592651	-9.492035	-0.39707947
1493784727499	-1.6460724	-8.410461	-0.048187256
1493784727521	-1.2129059	-8.711731	0.027328491
1493784727541	-0.58784485	-9.623016	-0.2220459
1493784727559	1.478714	-9.781036	0.32452393
1493784727575	2.4611664	-9.330093	1.0868835
1493784727599	1.586792	-9.317001	0.35508728
1493784727615	1.5970917	-9.207794	0.60224915
1493784727639	1.0804901	-9.025986	1.0696716
1493784727658	0.28507996	-8.674988	1.1278076
1493784727675	0.039642334	-8.732101	1.1796265
1493784727694	0.448349	-9.353012	0.9246979
1493784727713	0.42567444	-10.32663	0.17610168
1493784727735	-0.13375854	-10.85257	-0.22097778
1493784727753	0.0022735596	-10.872726	0.17468262
1493784727773	0.96569824	-10.992477	0.16520691
1493784727792	1.7929688	-11.054382	0.18608093
1493784727814	2.1867676	-11.375198	0.40776062
1493784727835	2.177185	-11.31366	0.5200653
1493784727854	2.03862	-11.21933	-0.558136
1493784727872	3.1693878	-11.866211	-1.5203552
1493784727894	4.8611755	-13.005753	-1.4156799
1493784727915	4.771225	-12.965912	-2.5901642
1493784727935	3.2943115	-11.633957	-2.1139526
1493784727955	-0.13189697	-10.598816	-2.9457092
1493784727974	-2.6016693	-10.98996	-0.90982056
1493784727995	-3.7260132	-13.489365	2.1816254
1493784728014	-5.00206	-16.441498	4.0666504
1493784728035	-6.58609	-18.601563	2.4572144
1493784728054	-4.2000885	-15.734207	0.44274902
1493784728073	-0.4557495	-13.204575	0.20744324
1493784728094	-0.85284424	-12.843353	-0.44129944
1493784728113	0.32920837	-11.777008	0.39970398
1493784728133	2.300644	-10.163345	1.9371948
1493784728153	1.4038696	-8.145569	0.5485687
1493784728173	1.7040405	-6.7256165	2.0579834
1493784728210	-0.14692688	-4.9176483	2.7404938
1493784728232	-0.3927002	-3.1620026	3.0934143
1493784728248	-0.95513916	-2.2026825	2.451889
1493784728267	-1.1921539	-1.8950195	2.319046
1493784728287	-0.8193207	-1.9556427	1.9801788
1493784728307	-0.8367157	-2.4825745	0.8979492
1493784728329	-1.0440216	-3.6909943	-0.41607666
1493784728351	-1.646225	-5.77771	-2.0829926
1493784728368	-2.7482147	-9.256271	-5.1655426
1493784728389	-4.944458	-14.038315	-9.799423
1493784728409	-6.992981	-16.922485	-12.406021
1493784728430	-6.760666	-14.938843	-10.75853
1493784728447	-4.9156494	-12.227646	-6.2200775
1493784728466	-2.2503662	-10.10936	-3.0257568
1493784728487	-4.023178	-8.653687	-3.8042603
1493784728507	-6.971466	-10.579361	-5.0117493
1493784728528	-7.885254	-15.868317	-4.362976
1493784728550	-4.8527527	-14.704773	-1.0897827
1493784728567	-0.6380005	-8.32576	2.873001
1493784728588	1.0896454	-5.2020874	6.223007
1493784728607	0.8993683	-6.600067	7.4591217
1493784728626	2.1714478	-9.527786	5.8282013
1493784728647	4.457947	-11.212555	6.325821
1493784728666	5.1083374	-12.029266	3.029953
1493784728687	4.2572784	-12.315598	-1.111969
1493784728704	3.5753021	-11.422256	0.016174316
1493784728726	1.190155	-10.112061	-0.4112091
1493784728743	-1.4527435	-8.577576	-1.1263428
1493784728763	-1.5438995	-8.216293	0.04273987
1493784728783	-1.0298767	-9.272568	-0.19361877
1493784728802	-0.44099426	-10.14328	-0.3856964
1493784728825	0.8133087	-9.856369	0.6382904
1493784728847	1.426651	-9.242416	1.6268463
1493784728866	1.8202362	-8.869202	1.3328247
1493784728883	2.5496826	-8.929184	0.19413757
1493784728906	2.718521	-9.714127	0.37252808
1493784728925	2.6551208	-9.849762	0.48786926
1493784728946	2.0481415	-9.119247	-0.37849426
1493784728966	0.23519897	-9.226456	-0.63072205
1493784728985	0.0010223389	-10.118698	-0.45516968
1493784729005	1.5365295	-11.266678	-0.3317566
1493784729024	3.2682953	-11.62941	-0.19087219
1493784729045	4.2382965	-11.52211	0.4884491
1493784729064	3.3795166	-11.487961	0.55052185
1493784729082	1.8821716	-11.560989	-0.98880005
1493784729104	1.7870941	-11.920151	-2.2050934
1493784729123	3.2863464	-12.700775	-2.3272858
1493784729142	4.882492	-12.826477	-3.5753326
1493784729163	4.928711	-12.60878	-2.6195679
1493784729181	1.5774689	-12.315308	-1.0838623
1493784729202	-3.1974182	-12.076996	-0.736496
1493784729222	-4.8864594	-13.958466	3.643509
1493784729241	-7.294571	-17.054825	3.9816742
1493784729259	-7.604004	-17.269424	2.4601898
1493784729280	-3.008133	-15.061523	0.11921692
1493784729297	0.15390015	-13.137405	-1.2066803
1493784729317	2.7411194	-11.109329	0.932724
1493784729338	4.3946533	-11.4266815	1.9781342
1493784729359	2.5799408	-9.480621	2.15094
1493784729397	0.45742798	-7.0165253	1.8817139
1493784729418	-0.09565735	-5.6164093	2.784256
1493784729440	-0.30389404	-3.652542	2.2079468
1493784729461	0.023223877	-3.0188751	3.0615082
1493784729479	-1.0792236	-2.3007813	3.14682
1493784729500	-1.7829437	-2.4836578	3.2032166
1493784729521	-1.9310913	-3.2121277	2.0428925
1493784729540	-2.2167206	-3.576477	0.4335327
1493784729560	-2.4282074	-5.0720367	-0.9047241
1493784729580	-2.70755	-8.851959	-3.969223
1493784729599	-4.5882874	-14.877106	-11.715897
1493784729617	-5.805176	-18.273941	-13.595932
1493784729639	-5.362076	-14.987198	-11.353241
1493784729659	-3.4999847	-10.904602	-5.684204
1493784729678	-2.754486	-8.361343	-3.0945892
1493784729697	-3.8066711	-5.7986298	-3.801941
1493784729714	-6.0087585	-8.290924	-4.043915
1493784729734	-7.072052	-14.929626	-3.1993103
1493784729754	-4.288376	-16.494583	-1.4116821
1493784729773	-0.31632996	-11.581543	3.3795776
1493784729793	1.4103546	-6.8626404	5.5424957
1493784729812	0.15126038	-5.501648	6.530899
1493784729833	1.198288	-7.027664	6.4019775
1493784729856	3.6566925	-10.689697	5.4440155
1493784729876	4.8895264	-13.720688	2.1710052
1493784729893	5.5688934	-14.069595	-1.4775848
1493784729916	4.163559	-12.217072	-0.8974762
1493784729935	0.40821838	-9.611649	0.32112122
1493784729956	-2.7980194	-8.071854	-0.16201782
1493784729976	-3.6027527	-7.952484	-0.17854309
1493784729993	-1.6927948	-8.943573	-0.08682251
1493784730015	1.7137299	-10.073944	-0.6615143
1493784730033	3.4554596	-9.883987	0.7166748
1493784730055	2.0604858	-8.972107	1.1959076
1493784730074	1.1414185	-8.365753	-0.123794556
1493784730093	1.134491	-8.395523	-0.3506012
1493784730114	1.0023499	-8.709549	-0.17814636
1493784730133	1.2549286	-9.234756	-0.27586365
1493784730154	1.5595703	-9.663086	-0.028381348
1493784730173	1.2131195	-10.12175	-0.25334167
1493784730193	0.38471985	-10.989975	-0.7634735
1493784730212	1.1274414	-11.594391	-0.85964966
1493784730233	3.0203857	-12.029129	-0.5028229
1493784730249	3.9474945	-12.010468	0.061843872
1493784730270	2.6885986	-11.635529	-0.42442322
1493784730287	2.356842	-11.954178	-1.9846344
1493784730308	3.520523	-12.958862	-2.02594
1493784730327	4.960724	-13.260254	-3.1197968
1493784730348	4.992813	-12.238144	-3.136734
1493784730372	2.7176666	-11.609131	-1.2499084
1493784730390	-2.1519928	-11.497879	-1.1928558
1493784730411	-4.0304565	-12.444336	1.1044312
1493784730432	-4.6313477	-14.963074	3.5168152
1493784730451	-5.418442	-16.873108	3.5708618
1493784730471	-3.8956146	-15.808685	1.6126251
1493784730492	-3.035965	-14.369553	-1.4579773
1493784730511	0.14419556	-11.683716	-0.05796814
1493784730530	3.001236	-10.844543	0.8018646
1493784730551	3.3667297	-10.851395	1.5434723
1493784730569	2.9016876	-8.302719	1.0592651
1493784730608	1.8414154	-6.8284607	1.8404999
1493784730628	0.11393738	-4.731964	3.1944122
1493784730648	-0.695755	-3.122528	2.912262
1493784730664	-0.64974976	-2.8386383	3.153305
1493784730685	-1.175003	-2.9231567	3.3491364
1493784730706	-1.863266	-3.4448853	2.46109
1493784730723	-1.604248	-3.837967	1.3289948
1493784730744	-1.725357	-4.758423	-0.28694153
1493784730763	-1.7802124	-7.056366	-2.225525
1493784730783	-2.5185547	-11.466354	-5.6945496
1493784730803	-3.5389557	-16.897781	-11.57428
1493784730823	-3.9228516	-16.848465	-13.70224
1493784730843	-3.3460083	-10.80368	-9.244263
1493784730862	-2.059204	-8.758072	-4.936249
1493784730882	-1.9385529	-9.332794	-3.2604218
1493784730903	-2.7621765	-7.34198	-4.258545
1493784730923	-4.6250763	-7.4935303	-4.543518
1493784730943	-6.9517975	-13.215179	-3.4053497
1493784730964	-5.582321	-18.538696	-0.026138306
1493784730983	-1.2735443	-16.650345	3.1124573
1493784731001	-0.3267975	-9.197601	1.9445801
1493784731023	-1.1351624	-4.5451202	6.5761414
1493784731042	-0.54748535	-4.843048	7.668396
1493784731061	2.8056793	-8.869461	7.209259
1493784731080	5.462677	-12.635147	4.5173492
1493784731101	5.5308533	-13.319229	-1.0778503
1493784731122	4.1503906	-11.785782	-2.4655457
1493784731140	0.9971161	-9.751419	-0.4170227
1493784731161	-2.2094421	-7.909729	0.26765442
1493784731181	-1.9386444	-7.734024	0.7170563
1493784731200	0.12590027	-8.887833	1.1015625
1493784731220	2.0434113	-9.863129	0.69018555
1493784731236	3.4103699	-10.209335	-0.026565552
1493784731257	2.5830536	-9.6063385	0.026351929
1493784731277	1.5394745	-8.807678	0.5525665
1493784731296	1.0144806	-8.476028	-0.3034668
1493784731316	1.4766846	-8.826599	0.60284424
1493784731337	1.3328552	-9.479248	0.81607056
1493784731359	0.7975464	-9.072006	-0.1085968
1493784731379	0.51187134	-8.772385	-0.48989868
1493784731400	0.7047119	-9.994339	-0.051361084
1493784731422	1.5694733	-11.534821	-0.24977112
1493784731439	2.918808	-11.81012	-0.7294464
1493784731460	3.6126099	-11.838318	0.17677307
1493784731477	2.9968872	-11.990311	0.4371338
1493784731495	1.4864197	-11.939423	-0.99871826
1493784731518	1.0727234	-12.157272	-2.155014
1493784731536	2.7019806	-12.986053	-2.1616058
1493784731554	4.9182587	-12.827316	-3.871292
1493784731573	5.525238	-11.927078	-2.4775848
1493784731593	2.6202087	-11.239029	-0.7939911
1493784731613	-2.204483	-11.272446	-0.40045166
1493784731633	-3.6513214	-12.926041	3.356308
1493784731657	-5.6344757	-15.410721	4.3999634
1493784731676	-6.0968475	-16.692932	1.8452759
1493784731697	-3.3010101	-14.952866	0.508255
1493784731714	-1.4194031	-13.751221	-2.238388
1493784731733	2.4984436	-12.188583	1.3592377
1493784731773	3.7142487	-11.540558	0.5606842
1493784731792	4.043167	-10.565475	2.2629395
1493784731812	1.8246155	-8.433228	1.5439606
1493784731836	-0.40602112	-7.048065	3.5614166
1493784731857	-1.855896	-4.051285	2.7677612
1493784731877	-0.6839142	-2.8954773	3.2454681
1493784731896	-0.7345123	-2.7121887	3.082962
1493784731917	-0.90908813	-3.041809	3.5432434
1493784731936	-1.0959625	-3.5145264	2.566513
1493784731956	-1.4454346	-3.645523	1.2348022
1493784731980	-1.8463135	-4.5590363	-0.3148346
1493784731994	-2.0050964	-6.8543854	-2.3337402
1493784732016	-3.5694275	-12.527054	-8.248962
1493784732035	-4.583786	-17.589355	-13.45697
1493784732055	-4.8809967	-16.671906	-13.618591
1493784732075	-4.059204	-11.637451	-8.13768
1493784732094	-2.8340302	-9.490814	-3.6584015
1493784732114	-3.4447784	-7.942398	-3.6326904
1493784732134	-5.8307343	-8.680145	-4.16745
1493784732153	-7.08078	-14.655914	-4.3841705
1493784732172	-4.7441254	-15.897339	-1.52211
1493784732194	-0.7935028	-11.235947	4.030258
1493784732212	0.95196533	-6.9593506	6.769638
1493784732232	-0.32055664	-6.152054	6.7197876
1493784732251	1.2977295	-7.755432	6.276123
1493784732269	4.8198395	-10.4219055	5.601593
1493784732288	5.096649	-13.145477	1.2832794
1493784732308	4.489197	-13.461243	-1.6306915
1493784732328	3.6373749	-12.046356	-0.9915924
1493784732347	0.80708313	-9.781113	-0.018707275
1493784732372	-2.0019073	-8.214661	0.12710571
1493784732391	-2.692215	-7.9434204	-0.21055603
1493784732409	-1.6300659	-8.839249	-0.46017456
1493784732432	0.47395325	-9.520935	-0.36038208
1493784732450	2.498169	-9.323105	0.4957428
1493784732471	2.654129	-8.978134	0.8307495
1493784732492	1.495758	-8.925308	-0.27694702
1493784732507	1.2390137	-8.907837	-0.23873901
1493784732531	0.61320496	-9.145538	0.54803467
1493784732550	0.40740967	-9.06337	0.3929596
1493784732570	0.7274475	-8.93483	0.2063446
1493784732590	1.5250092	-9.640106	-0.113708496
1493784732608	1.3946228	-11.114365	-0.5161438
1493784732631	1.3759918	-12.246597	-1.2354889
1493784732649	2.9356384	-12.433395	-1.3052216
1493784732671	4.135193	-12.438004	-0.32707214
1493784732689	3.0370026	-12.190155	-0.14758301
1493784732705	1.838623	-12.153488	-1.9049683
1493784732732	3.410843	-12.619431	-1.7719269
1493784732754	4.1516724	-13.239334	-3.528061
1493784732764	4.7413025	-12.492172	-3.2599945
1493784732785	1.9958344	-11.484772	-1.2057495
1493784732803	-3.1870728	-10.712585	-1.25
1493784732823	-4.2064667	-12.681183	2.795105
1493784732843	-5.3582153	-16.02237	3.2934113
1493784732865	-6.3434143	-17.721695	3.6322632
1493784732885	-3.7880707	-15.105057	1.2344818
1493784732903	-2.2814636	-13.218246	-1.1886902
1493784732923	0.44224548	-11.511719	0.3730011
1493784732966	1.6418762	-10.981064	1.8079224
1493784732986	2.6077728	-10.315369	1.9062347
1493784732986	1.2398987	-8.453705	2.059784
1493784733026	-0.5300293	-6.87352	1.7599487
1493784733045	0.7046356	-4.3211975	2.7704315
1493784733065	0.018081665	-2.9984741	2.556305
1493784733085	-0.33992004	-2.5060577	2.9656372
1493784733104	-0.8341522	-2.7192078	3.2674103
1493784733125	-1.5329895	-3.1161957	2.2643585
1493784733144	-1.7619934	-3.5638885	0.6619415
1493784733164	-1.8929138	-4.611923	-0.8128662
1493784733184	-1.9215088	-7.364212	-3.1774597
1493784733203	-3.905136	-13.037857	-9.723663
1493784733222	-6.001404	-18.172043	-14.741531
1493784733242	-5.331299	-16.44841	-12.8311
1493784733260	-3.6504974	-11.274872	-6.577362
1493784733280	-2.8605042	-8.5820465	-2.8490143
1493784733298	-4.9503326	-7.0257416	-3.9538422
1493784733318	-7.3509674	-11.672058	-5.664871
1493784733338	-6.7218475	-17.645706	-3.721939
1493784733360	-2.539093	-13.280472	2.7241516
1493784733380	0.2679596	-6.485611	6.7660675
1493784733401	0.07154846	-5.020767	7.8989563
1493784733420	-0.7311249	-7.7129974	5.0282593
1493784733439	2.114563	-10.815369	5.027481
1493784733461	4.4542084	-13.134491	3.9350739
1493784733481	5.6496124	-13.753372	0.45095825
1493784733500	5.446228	-13.500244	-0.8548889
1493784733516	3.0870514	-11.664276	-0.36576843
1493784733542	-1.029419	-8.935562	-0.16731262
1493784733558	-3.2297974	-7.5362244	-0.35261536
1493784733580	-2.429245	-7.9477844	-0.332901
1493784733601	-0.7261505	-9.215408	-0.80989075
1493784733616	1.1607666	-9.694412	-0.63246155
1493784733640	2.1510162	-9.501862	0.5840454
1493784733660	1.66156	-8.8069	1.034195
1493784733680	0.75057983	-8.153763	0.0029144287
1493784733698	0.1260376	-8.249588	-0.15112305
1493784733719	0.14259338	-8.63237	0.3609314
1493784733737	0.99201965	-9.195847	0.06159973
1493784733759	2.2988434	-9.896561	-0.057266235
1493784733774	2.500885	-10.9097595	-0.7410126
1493784733793	1.6155548	-12.190445	-1.2826691
1493784733812	2.3999176	-12.44957	-1.4901733
1493784733833	3.4246674	-12.134888	-0.80545044
1493784733853	3.7733154	-12.084244	-0.40821838
1493784733875	2.7516022	-12.198639	-1.468811
1493784733894	3.7398682	-13.262299	-1.7625885
1493784733913	4.4782715	-14.111862	-2.6343231
1493784733934	5.8871155	-13.53418	-2.952896
1493784733954	2.3338623	-12.214081	-0.86483765
1493784733977	-3.1452332	-10.844467	-2.272049
1493784733996	-4.143585	-12.429718	2.0739746
1493784734015	-4.82399	-15.703918	3.3727417
1493784734036	-5.764923	-17.56903	3.660141
1493784734055	-4.1802826	-15.599014	1.5987091
1493784734075	-3.306427	-13.719452	-0.6970978
1493784734095	-0.028518677	-11.672256	0.42288208
1493784734113	2.2782593	-11.287659	2.914978
1493784734135	2.483673	-11.456665	1.5846405
1493784734154	3.0435333	-8.875839	1.1417999
1493784734194	1.273407	-7.128769	2.6255798
1493784734212	1.2292633	-4.352356	3.0280914
1493784734232	0.073776245	-2.8412323	2.7977905
1493784734261	-0.47080994	-2.132721	3.3600006
1493784734271	-1.063858	-2.0277252	3.9079437
1493784734289	-1.6555176	-2.27594	2.9032898
1493784734308	-1.3903046	-2.7338104	1.2651825
1493784734328	-1.4899445	-3.9163513	-0.6767273
1493784734350	-1.9177551	-6.754074	-3.2328033
1493784734372	-4.2186127	-12.864334	-8.950897
1493784734392	-6.103012	-19.240173	-13.574707
1493784734411	-5.4557495	-18.176163	-13.858124
1493784734432	-3.754013	-12.1353	-7.5242767
1493784734452	-2.4027405	-8.708618	-2.808838
1493784734471	-4.2697144	-5.612625	-4.0883636
1493784734491	-6.8809814	-8.824982	-5.4329987
1493784734509	-6.8527985	-17.021713	-5.4915314
1493784734526	-3.474762	-17.460373	-1.0796204
1493784734546	-0.40989685	-11.060043	5.727844
1493784734565	1.4494781	-5.098465	8.011414
1493784734587	-0.5286865	-5.0522614	7.2165833
1493784734606	1.2732086	-7.658432	6.6712646
1493784734628	4.003174	-12.003906	5.9644775
1493784734648	5.288513	-14.642563	0.44778442
1493784734666	5.8611145	-13.698685	-2.5666199
1493784734688	3.6026306	-11.242249	-0.054504395
1493784734707	-0.8154907	-8.474594	1.194397
1493784734727	-3.4853058	-7.21257	-0.2843628
1493784734753	-2.6517792	-8.128021	-0.38487244
1493784734765	0.03224182	-9.524826	-0.13046265
1493784734784	2.2029572	-9.915848	0.19515991
1493784734805	2.2815704	-9.536789	1.1992188
1493784734823	1.1448517	-8.882446	0.5680084
1493784734843	0.49620056	-8.317932	0.13232422
1493784734863	0.28755188	-8.166855	0.19062805
1493784734885	0.22297668	-8.622589	0.07839966
1493784734904	0.500885	-9.027908	0.015136719
1493784734925	0.6132355	-9.609528	-0.33078003
1493784734944	0.31744385	-10.462143	-0.6874542
1493784734963	0.84542847	-11.495041	-0.81562805
1493784734987	2.7181244	-12.181305	-1.2119141
1493784735006	4.4458313	-12.1276245	-0.780777
1493784735023	4.7084503	-12.08728	0.5675354
1493784735046	3.0916443	-12.245987	-1.6907349
1493784735065	3.400299	-12.989136	-2.3561096
1493784735085	3.8279572	-13.484573	-3.0109406
1493784735105	5.693878	-12.62207	-3.5305939
1493784735123	4.1543884	-11.6058655	-1.0646973
1493784735145	-0.7725525	-11.436035	-1.9189148
1493784735164	-3.3245697	-12.385544	0.94696045
1493784735184	-4.191757	-14.868027	3.60495
1493784735204	-6.0917053	-17.50824	3.9391632
1493784735224	-5.322647	-17.31224	2.2131348
1493784735242	-3.9629211	-15.369812	-0.112701416
1493784735262	-0.6398163	-12.439377	-0.36332703
1493784735281	2.177475	-11.484573	3.0928802
1493784735300	3.8106995	-11.122101	-1.9059143
1493784735338	3.0725098	-9.032654	0.37794495
1493784735358	3.1801453	-7.160263	2.1794128
1493784735378	1.8625793	-5.6099396	3.2545166
1493784735403	-0.09817505	-3.6670227	3.9973145
1493784735419	-0.56552124	-2.4151306	3.8845062
1493784735440	-1.3126984	-2.262848	4.1032867
1493784735458	-2.0262604	-2.3235168	3.647461
1493784735482	-1.9921112	-2.8179932	2.2207642
1493784735501	-1.7590942	-3.467331	0.9377899
1493784735522	-1.8069458	-5.361191	-0.45544434
1493784735541	-1.9071198	-9.417526	-4.033951
1493784735560	-3.6753082	-16.242462	-12.225204
1493784735582	-4.572296	-18.57814	-15.323959
1493784735601	-4.954941	-13.725571	-11.699493
1493784735618	-3.2241364	-10.3910675	-5.86438
1493784735639	-2.288803	-8.982681	-3.197937
1493784735659	-3.5713654	-7.2138977	-4.052994
1493784735681	-5.9387665	-8.878128	-4.939804
1493784735699	-7.0392914	-14.34671	-3.3170776
1493784735718	-4.165222	-15.696777	0.5614166
1493784735737	-1.5310364	-12.080032	5.818451
1493784735757	-0.10746765	-7.77092	6.2356567
1493784735785	-0.51737976	-6.34111	6.558609
1493784735794	1.971405	-7.465866	6.759781
1493784735813	4.9559937	-10.64389	5.9438324
1493784735833	5.752838	-12.949005	1.4594574
1493784735853	5.6002045	-13.153244	-1.9484558
1493784735875	3.9068604	-11.814133	-1.0000763
1493784735898	0.19587708	-9.380508	0.77601624
1493784735916	-3.5855713	-7.285858	-0.122161865
1493784735933	-3.3805542	-7.7135773	-0.74942017
1493784735957	-0.5979309	-9.525223	0.01826477
1493784735975	2.623291	-9.826721	0.5714264
1493784735996	3.7252197	-9.343063	1.2939148
1493784736015	2.6369324	-9.2331085	0.47573853
1493784736033	1.8057404	-8.694214	-0.81230164
1493784736056	1.9160767	-8.540619	-0.9753876
1493784736075	1.8828888	-9.443695	-1.1143646
1493784736095	1.6606598	-9.680008	-0.39328003
1493784736115	1.1937866	-9.060165	0.15757751
1493784736134	0.5099182	-9.599289	0.15789795
1493784736155	0.56770325	-11.255768	-0.2403717
1493784736174	2.4446564	-12.058212	-0.57066345
1493784736194	3.4883118	-12.295013	-0.86091614
1493784736214	3.682129	-12.383835	0.16564941
1493784736233	2.3872833	-12.231705	-1.1275635
1493784736252	1.4628754	-12.310257	-2.871338
1493784736270	3.1645966	-13.265869	-2.6232605
1493784736292	4.991638	-13.437607	-3.5593567
1493784736312	4.9648285	-12.356293	-1.107132
1493784736330	0.16482544	-11.399231	-2.1800537
1493784736349	-3.5092773	-11.825409	0.5594177
1493784736368	-5.0534973	-14.207672	4.2359467
1493784736391	-6.9016113	-16.715027	3.4765778
1493784736410	-4.91362	-16.745285	0.8913269
1493784736428	-1.6903687	-14.012207	0.057373047
1493784736450	0.79452515	-12.401871	-0.69522095
1493784736469	2.9811707	-10.798843	2.7841492
1493784736492	3.0727844	-11.207794	1.245697
1493784736511	3.605011	-9.564392	2.8120728
1493784736530	-0.5285187	-7.2360992	1.8312073
1493784736572	-0.24630737	-5.346512	2.7761993
1493784736590	-1.2140198	-3.9220428	2.6383972
1493784736610	0.19671631	-3.1260376	3.2552185
1493784736629	-0.59529114	-2.9592133	3.616562
1493784736650	-1.2731476	-2.973709	3.0049133
1493784736669	-1.3540955	-3.1749573	1.7046967
1493784736691	-1.8008881	-3.5188599	0.20918274
1493784736708	-1.8529358	-5.119568	-0.742157
1493784736728	-2.6340485	-9.559341	-3.9431763
1493784736747	-4.529587	-16.591812	-11.161392
1493784736770	-5.645874	-18.334015	-16.593796
1493784736788	-4.9420624	-13.107407	-9.573593
1493784736804	-3.5047302	-8.932114	-5.2425385
1493784736823	-2.8814697	-7.60495	-3.4714508
1493784736843	-4.644333	-7.985077	-3.7599945
1493784736863	-6.831543	-14.043411	-4.2655334
1493784736883	-4.5416107	-16.160172	-1.8007813
1493784736905	-1.4355164	-11.815155	3.9103851
1493784736924	0.92277527	-6.6544647	6.284683
1493784736945	-0.08642578	-5.710037	5.799362
1493784736964	1.4789124	-7.661087	4.8719635
1493784736983	3.9679413	-11.106766	5.593231
1493784737007	5.00943	-14.1076355	3.4682922
1493784737026	5.5258636	-14.384979	-0.024856567
1493784737044	4.165436	-13.22287	-1.8090668
1493784737065	1.8435516	-10.9648285	-1.2649689
1493784737083	-1.0190582	-9.358582	0.18132019
1493784737105	-2.4875336	-8.665634	0.81095886
1493784737125	-2.1807404	-8.676254	0.38354492
1493784737143	-1.8811951	-9.5789795	-1.1853027
1493784737165	-0.9258728	-9.840164	-1.61026
1493784737182	0.14872742	-8.910126	0.17828369
1493784737205	0.45040894	-8.069046	0.40544128
1493784737224	0.5706482	-7.5099335	0.37045288
1493784737243	0.45062256	-7.678528	0.926651
1493784737262	0.3351593	-8.1081085	1.0580444
1493784737287	0.80921936	-8.511658	-0.16769409
1493784737300	1.6991119	-9.4735565	-1.7408752
1493784737319	2.3102264	-11.023636	-2.3292694
1493784737338	2.740982	-11.762955	-1.6353455
1493784737360	2.920868	-12.105698	-1.2188721
1493784737378	1.5167389	-12.734024	-0.12808228
1493784737399	0.23208618	-12.520187	-0.9734802
1493784737420	0.8226013	-11.911224	-1.0766296
1493784737438	2.6610107	-12.115204	-1.506958
1493784737460	3.2477875	-11.453491	-2.3479156
1493784737479	2.3606567	-11.644196	-4.311264
1493784737502	3.3411713	-12.566162	-3.7000427
1493784737523	4.64122	-12.501465	-1.2489624
1493784737540	4.310974	-12.6753845	-1.2608032
1493784737556	-0.24588013	-12.485855	1.5818329
1493784737576	-2.1654053	-13.135452	2.5691528
1493784737596	-3.1716156	-14.8020935	3.7671814
1493784737617	-2.9365234	-16.448456	1.7544861
1493784737638	-1.5247803	-14.43898	0.02420044
1493784737659	8.265472	-11.686127	4.831833
1493784737700	8.586258	-11.409866	-3.0506287
1493784737718	7.2881775	-11.191101	3.3406372
1493784737736	2.4038239	-8.974686	3.8427734
1493784737757	0.6167145	-7.121048	3.468811
1493784737780	0.7805176	-5.3736267	3.5904846
1493784737802	-0.21173096	-5.022812	3.2471924
1493784737814	-1.0187378	-5.0340424	3.2995758
1493784737834	-2.2169952	-5.380493	2.8971558
1493784737853	-3.5081177	-5.8808746	1.9476776
1493784737873	-4.219696	-5.5137634	0.94355774
1493784737893	-4.330597	-5.748825	-0.08320618
1493784737916	-4.8984833	-7.1293945	-0.29052734
1493784737934	-5.5937653	-10.270615	-1.921341
1493784737955	-5.7298584	-13.037216	-6.246399
1493784737975	-4.403656	-12.681732	-9.8897705
1493784737995	-2.3016663	-11.851212	-9.682251
1493784738017	-0.3314972	-10.831482	-8.345459
1493784738036	-0.09043884	-7.5571136	-5.904724
1493784738055	-1.7415009	-6.884659	-5.732376
1493784738076	-4.0785522	-13.536102	-7.218811
1493784738094	-2.2822266	-19.14537	-2.104889
1493784738116	-0.8309784	-14.026962	7.000244
1493784738135	-3.0269318	-5.129364	6.910492
1493784738154	-5.7030945	-2.8187256	5.137985
1493784738174	-2.0690002	-5.2892	5.151001
1493784738195	4.9503937	-11.79509	6.3032074
1493784738215	9.582443	-17.094604	6.0560303
1493784738234	7.6718445	-16.27893	0.0552063
1493784738252	4.505127	-12.815872	-1.8696136
1493784738272	-0.9598694	-10.345932	-1.1756439
1493784738289	-4.942978	-8.449783	-0.41874695
1493784738309	-5.3154907	-7.3924103	0.059921265
1493784738329	-2.7828217	-8.379181	0.6696472
1493784738348	-0.87924194	-9.388947	0.5742035
1493784738369	-0.12110901	-8.746658	-0.12030029
1493784738388	0.51246643	-8.045776	-0.026687622
1493784738411	0.184021	-8.185089	-0.1479187
1493784738432	-0.4206543	-8.431793	0.22660828
1493784738452	-0.17663574	-9.2855835	0.57621765
1493784738472	1.2346191	-9.652115	0.35357666
1493784738493	1.9168549	-10.1996	0.32485962
1493784738511	1.5070343	-11.194077	-0.21905518
1493784738531	1.063858	-11.915527	-1.4033966
1493784738549	2.1163025	-12.434326	-1.8929138
1493784738571	3.0939178	-12.935318	-1.7639923
1493784738590	3.086975	-12.583954	-1.8080292
1493784738613	3.3345032	-12.19635	-2.1258698
1493784738630	3.3492737	-12.014343	-3.3489075
1493784738648	4.2106476	-12.968292	-3.42128
1493784738672	4.6983337	-13.611801	-3.0529785
1493784738689	5.2138367	-11.689072	0.2559204
1493784738710	0.0074920654	-10.391251	-0.52342224
1493784738729	-4.0510864	-10.942627	-0.15379333
1493784738748	-3.5990448	-13.531616	2.24411
1493784738769	-3.6082764	-15.740738	3.268219
1493784738791	-2.3325806	-15.330902	3.3999634
1493784738810	-0.48638916	-13.660736	0.6358032
1493784738824	0.755188	-12.3771515	0.38946533
1493784738843	1.9660492	-12.317383	2.1351929
1493784738884	2.326416	-11.806808	0.31011963
1493784738903	3.050354	-10.041885	1.338501
1493784738925	2.1092072	-8.058594	2.423172
1493784738944	-0.13644409	-5.776367	1.9198608
1493784738965	0.8952484	-4.277191	2.91214
1493784738984	-0.32315063	-3.077591	3.7873535
1493784739006	-1.1425781	-2.7815857	4.0378113
1493784739027	-1.9719849	-2.7747345	3.36026
1493784739046	-2.6682281	-3.5834045	2.1824036
1493784739066	-2.828888	-4.7677307	0.7145233
1493784739085	-2.8418274	-6.340851	-0.4189453
1493784739105	-3.377182	-9.481995	-1.9849854
1493784739126	-4.343628	-14.141846	-6.7569427
1493784739143	-5.2573853	-17.644821	-12.3954315
1493784739165	-4.983322	-15.348114	-11.727936
1493784739185	-3.2290344	-12.284088	-7.7235107
1493784739205	-1.8119202	-9.90036	-3.6778412
1493784739225	-2.269577	-6.199417	-3.8703613
1493784739244	-4.3832703	-6.1517487	-4.3663177
1493784739264	-5.7895355	-12.684235	-3.7533875
1493784739282	-3.3565063	-16.285767	-1.26857
1493784739302	-0.025283813	-13.092758	3.3014984
1493784739322	0.65263367	-8.291534	5.8224945
1493784739339	-0.25732422	-6.568207	6.384491
1493784739359	0.9103241	-7.557678	6.090149
1493784739379	3.6685638	-10.366241	5.9841003
1493784739400	4.5167847	-12.547852	3.0245209
1493784739421	3.901001	-12.3967285	-0.605896
1493784739442	1.8375854	-11.073822	-0.8449707
1493784739459	-1.4886322	-9.408478	-0.49235535
1493784739482	-4.028366	-8.159241	-0.07128906
1493784739500	-3.9297333	-8.164398	0.040542603
1493784739522	-1.7132874	-9.23674	0.5926819
1493784739543	1.7678375	-9.790253	1.3442535
1493784739559	3.8261566	-9.819122	2.1109467
1493784739581	3.0580292	-9.479324	0.31671143
1493784739602	2.2601624	-9.171692	-1.4968567
1493784739619	1.5985107	-9.1515045	-1.6730957
1493784739640	0.9957733	-9.299133	-0.7044983
1493784739662	1.2014465	-9.201065	0.12335205
1493784739680	1.6072998	-9.593826	-0.057891846
1493784739699	1.471695	-10.5377655	-0.17222595
1493784739722	0.7525177	-10.562485	-0.10462952
1493784739739	0.22703552	-10.8510895	-0.54644775
1493784739757	1.2190552	-11.758636	-1.290863
1493784739781	3.2684784	-11.94545	-0.6296997
1493784739798	3.7371063	-11.569931	0.8965912
1493784739818	2.2254486	-11.838913	0.2868805
1493784739835	2.4786072	-13.45105	-0.5922699
1493784739853	3.07547	-13.655075	-3.2211761
1493784739874	4.7048798	-12.346451	-3.0454407
1493784739893	3.114502	-11.365692	-1.6816711
1493784739914	-1.2113495	-10.317474	-2.4357147
1493784739937	-2.7007294	-11.588852	0.5630493
1493784739956	-3.1950989	-14.292923	3.2224426
1493784739977	-5.392517	-16.534973	4.030243
1493784739996	-4.637665	-15.826355	2.31839
1493784740017	-3.8252106	-13.525391	-0.45985413
1493784740036	-0.897171	-11.739624	-0.03326416
1493784740054	1.0050354	-10.768265	1.7486115
1493784740076	3.3259583	-10.243713	0.19140625
1493784740096	3.945938	-8.8168335	0.7685852
1493784740135	2.7424164	-7.8030243	1.3437958
1493784740154	0.44358826	-7.062607	2.6992188
1493784740175	-0.18893433	-5.386505	2.680252
1493784740193	-0.75912476	-5.21434	2.6921234
1493784740215	-1.2765503	-4.50119	3.0832062
1493784740235	-1.9191895	-3.4437866	2.3043213
1493784740253	-1.5133667	-3.3191376	0.6669159
1493784740274	0.0513916	-3.7712555	-0.9794769
1493784740292	0.4147339	-6.254669	-3.8918457
1493784740315	-1.7231903	-12.256012	-12.104507
1493784740330	-2.408554	-16.534302	-13.319351
1493784740351	-0.027938843	-14.564697	-12.030746
1493784740371	2.0121918	-10.603806	-6.3484955
1493784740389	2.2868958	-7.582779	7.7020874
1493784740412	-4.811554	-5.8196716	12.68898
1493784740433	-2.7991333	-11.893845	6.925995
1493784740452	3.9027557	-19.474823	-4.902771
1493784740472	9.920074	-18.863785	3.6375427
1493784740492	-0.47917175	-15.326736	0.1101532
1493784740512	2.6777496	-11.273392	3.913971
1493784740532	2.2280731	-12.212036	1.9781799
1493784740551	-0.23196411	-12.552002	-0.11810303
1493784740570	-0.26368713	-11.362137	-0.8879547
1493784740590	1.1012115	-10.344406	-0.9470215
1493784740605	1.210556	-9.277664	-1.5937347
1493784740627	-0.009277344	-7.8876038	-2.170639
1493784740647	-1.4318542	-6.896759	-2.1947327
1493784740666	-2.4403076	-6.461136	-1.4910431
1493784740684	-2.4455872	-6.6892853	-1.1182404
1493784740703	-1.9093933	-7.324402	-0.95961
1493784740724	-1.3851013	-8.092499	-0.4237671
1493784740743	-1.2840729	-9.655655	0.5430908
1493784740763	-0.95925903	-11.051224	1.4823456
1493784740783	-0.26719666	-10.902374	1.803894
1493784740803	0.14949036	-10.563309	1.7281799
1493784740822	0.4176178	-10.790573	1.0334778
1493784740842	0.8078308	-11.06427	0.5119171
1493784740862	1.2894745	-11.259476	0.4646454
1493784740882	0.97306824	-11.194199	0.7593689
1493784740901	0.95288086	-10.709763	0.92684937
1493784740922	1.2112427	-9.92276	0.83413696
1493784740941	1.7121124	-9.450073	0.6119232
1493784740960	2.0319061	-9.655869	0.22264099
1493784740981	2.1693268	-10.179398	-0.48188782
1493784741001	1.676117	-10.962219	-1.3513336
1493784741021	0.24017334	-12.4795685	-3.9482117
1493784741040	-1.3183899	-13.805649	-4.6008453
1493784741060	-2.7004395	-12.339096	-5.0425873
1493784741080	-2.4269257	-10.496674	-3.928482
1493784741100	-3.8898315	-10.349991	-2.315918
1493784741120	-2.785797	-12.442047	-1.8751526
1493784741140	-0.47485352	-13.420242	-0.67352295
1493784741160	0.9968567	-11.475967	0.2191925
1493784741179	2.2734528	-9.166931	0.14172363
1493784741199	4.3788757	-9.098694	-1.1338501
1493784741219	5.7953186	-9.377899	-0.17077637
1493784741239	5.100601	-10.635895	0.7071991
1493784741278	4.084076	-11.637634	0.65211487
1493784741298	1.5356445	-12.096497	-0.37461853
1493784741319	-0.41311646	-11.225784	-0.190094
1493784741338	-1.4799347	-9.783844	1.5387878
1493784741358	-2.0360565	-9.037277	2.2341156
1493784741377	-1.4182587	-8.191772	1.9058685
1493784741398	-2.0120697	-8.244492	0.5326233
1493784741421	-1.9671478	-8.096848	0.18772888
1493784741439	-2.098297	-7.9376526	0.62023926
1493784741461	-2.4610596	-7.446396	0.91996765
1493784741483	-2.8253326	-6.7508545	0.33792114
1493784741502	-4.4085846	-6.268921	-0.79107666
1493784741522	-3.50914	-6.105957	-2.0189056
1493784741542	-3.8182068	-7.0729218	-4.382141
1493784741563	-4.6011963	-8.6510315	-6.5691376
1493784741581	-5.7116394	-9.759262	-6.4307404
1493784741601	-5.3953705	-9.81041	-6.091461
1493784741622	-5.9707184	-9.24675	-6.611847
1493784741641	-7.255371	-7.7229767	-6.568619
1493784741661	-9.533417	-8.7873535	-6.0224304
1493784741682	-10.714111	-15.252487	-5.5528107
1493784741700	-6.234665	-15.753326	-0.9455261
1493784741719	-1.2526855	-6.037903	3.8780518
1493784741742	-3.3475037	-2.1566925	0.24247742
1493784741759	-2.166687	-4.255478	-0.5458069
1493784741776	-0.8789673	-9.474945	6.0079346
1493784741800	-0.31925964	-16.045242	3.775528
1493784741823	3.1275177	-16.952026	1.0466614
1493784741835	4.078888	-13.483963	2.1244507
1493784741855	4.2859955	-10.464691	2.4544067
1493784741875	3.9071808	-9.613129	2.457962
1493784741894	1.7286682	-10.83783	0.7086792
1493784741913	1.6545563	-11.450821	-1.0715332
1493784741939	0.9198761	-10.828842	-1.5208893
1493784741957	-1.1219788	-9.534988	-1.8220673
1493784741975	-2.0941315	-8.554932	-2.907425
1493784741998	0.12646484	-7.3941193	-1.3815308
1493784742017	1.9096527	-6.6431885	0.81451416
1493784742037	0.6253662	-6.525772	2.5505524
1493784742056	-1.1803741	-6.8633423	2.8529968
1493784742076	0.25871277	-8.143005	0.04638672
1493784742097	2.5758667	-8.379578	-1.6551819
1493784742116	3.7347565	-9.16333	-1.5764313
1493784742136	3.723404	-10.620468	-0.45596313
1493784742156	2.5527496	-12.061661	-1.9777069
1493784742174	2.376831	-12.404297	-3.1746674
1493784742196	3.9534454	-12.570862	-0.09663391
1493784742215	3.0622559	-12.419983	-0.24484253
1493784742236	2.9551392	-12.635925	-2.8804169
1493784742255	5.189163	-13.68541	-1.0874786
1493784742273	5.2825317	-13.9687195	-2.3260345
1493784742295	1.1984711	-12.8181305	-1.1787872
1493784742311	-5.0766144	-12.132553	-3.2817688
1493784742332	-5.5993805	-11.756012	1.6800385
1493784742353	-4.3416443	-18.43135	5.088501
1493784742371	-6.775299	-19.434021	4.9809265
1493784742391	-5.160904	-18.176346	1.0175323
1493784742409	-4.7226715	-14.916916	-0.6522064
1493784742432	-4.33136	-14.179123	1.0097504
1493784742471	-2.031311	-12.499664	2.038742
1493784742490	-4.3361664	-10.407974	0.62023926
1493784742510	0.12158203	-7.771454	3.321167
1493784742530	2.4371185	-6.5974884	2.7815857
1493784742550	4.540634	-5.5524445	2.5220947
1493784742570	2.1570282	-3.4165344	3.5641174
1493784742592	1.1620483	-0.31188965	3.4562073
1493784742609	1.1798706	0.31318665	2.8048096
1493784742629	0.70977783	-0.35127258	1.778595
1493784742655	-0.15150452	-0.989563	0.5802765
1493784742668	-0.62649536	-2.572174	-1.8201141
1493784742690	-1.825058	-6.0696716	-7.2076416
1493784742707	-6.712906	-11.39711	-14.872574
1493784742729	-9.91217	-14.849167	-14.558853
1493784742754	-7.7011566	-13.410736	-10.270782
1493784742768	-6.84671	-10.633072	-3.5499878
1493784742787	-6.4891663	-11.110718	-2.4196014
1493784742805	-12.471558	-13.810013	-6.232315
1493784742830	-10.234055	-19.474823	-4.8833313
1493784742845	-2.1686554	-14.76326	2.6018524
1493784742865	-0.043762207	-3.8792114	3.8094788
1493784742884	-0.029052734	-2.8632965	5.1594696
1493784742904	-1.3347473	-5.727829	7.7586823
1493784742923	0.3936615	-9.995026	10.4066925
1493784742946	3.2196655	-14.181473	8.854385
1493784742965	6.0157776	-17.230621	3.9109802
1493784742986	7.126541	-15.612808	-1.1915741
1493784743005	7.0558624	-11.836136	0.049972534
1493784743023	5.648056	-10.652603	1.5659332
1493784743048	3.1066284	-9.836655	0.40353394
1493784743067	-0.22557068	-9.079422	-0.68066406
1493784743084	-2.759735	-9.167252	-1.5127258
1493784743107	-2.5318146	-9.089951	-1.009079
1493784743125	-0.20819092	-8.388199	1.1221313
1493784743146	2.795639	-7.5621033	4.2461395
1493784743166	3.2639313	-6.329483	4.3911743
1493784743183	2.6067047	-5.71463	2.4259338
1493784743206	3.0835114	-7.218155	-0.182724
1493784743225	4.5064087	-8.90448	-2.5491333
1493784743246	4.0200806	-9.96199	-2.8748627
1493784743265	1.4967041	-10.6197815	-1.4239349
1493784743285	0.8895416	-11.656937	-1.4286194
1493784743303	4.118622	-12.514069	-2.0825043
1493784743327	5.5211334	-12.602737	-1.3018494
1493784743340	1.0696411	-12.250732	-3.6158295
1493784743360	0.769989	-12.13652	-4.9216156
1493784743380	4.679611	-12.856018	-2.4663544
1493784743400	5.478943	-14.249908	-1.2382202
1493784743419	-1.010437	-13.819031	-1.5443573
1493784743441	-4.0584106	-13.200241	0.45181274
1493784743462	-4.0147247	-18.533218	5.848221
1493784743480	-7.10791	-19.474823	4.8351746
1493784743501	-4.5427094	-17.95961	2.1842499
1493784743522	-4.4050293	-16.642792	-0.8762207
1493784743543	-3.1392822	-15.327469	-1.718399
1493784743562	-0.59773254	-13.075836	0.8985596
1493784743583	-0.062469482	-12.132446	3.7284698
1493784743602	-1.9548798	-9.882614	1.541336
1493784743621	1.7853394	-6.759308	2.8636932
1493784743641	3.226883	-6.322754	3.4910126
1493784743660	1.0561371	-3.000061	4.1547394
1493784743697	-0.80184937	-0.014175415	4.5878754
1493784743717	-0.019958496	0.85240173	4.2088623
1493784743734	0.87535095	0.4755249	3.379547
1493784743754	1.2979736	0.11985779	2.9087677
1493784743774	1.5045624	-0.65789795	1.835434
1493784743793	0.22612	-3.2087555	-1.1190796
1493784743813	-3.4769897	-10.344131	-11.248764
1493784743833	-8.774475	-19.17099	-17.148514
1493784743853	-8.47319	-18.400177	-13.212143
1493784743873	-7.251358	-12.75621	-7.6921997
1493784743893	-4.7996826	-9.530273	-4.5390015
1493784743912	-5.999344	-6.9167786	-6.34317
1493784743936	-8.566498	-6.449753	-4.790756
1493784743958	-9.709137	-13.627945	-0.94273376
1493784743977	-6.5559998	-16.715454	-0.10446167
1493784743998	-1.6763611	-12.518997	-0.5212555
1493784744018	2.7664948	-7.570099	9.089966
1493784744036	2.1528168	-7.824341	9.096451
1493784744058	2.473999	-9.765823	7.63118
1493784744077	3.4607086	-11.402206	5.101486
1493784744096	4.0736847	-14.026138	0.35891724
1493784744117	6.1576996	-14.55661	-3.0307922
1493784744137	6.806595	-12.735046	-0.36842346
1493784744157	2.6145935	-9.802048	1.5926666
1493784744176	-1.1769257	-7.2552032	0.13973999
1493784744194	-3.3291626	-6.9120026	-2.1613007
1493784744216	-4.060486	-8.244415	-2.810913
1493784744233	-1.7357025	-9.371811	0.0814209
1493784744256	1.0512085	-8.825638	1.6445618
1493784744275	1.3542938	-6.9644012	1.5242157
1493784744293	0.38142395	-5.8272552	1.1959076
1493784744316	0.9809418	-7.6368866	0.7799072
1493784744336	3.0858307	-9.569931	-0.6532898
1493784744350	4.0837097	-10.510635	-1.7806244
1493784744370	2.1136932	-11.2229	-0.96969604
1493784744391	0.068237305	-12.298477	-0.9042969
1493784744410	3.348297	-13.480118	0.048339844
1493784744429	5.2670135	-13.78212	-0.52604675
1493784744454	3.491745	-13.538284	-2.2334747
1493784744473	2.811142	-13.338074	-3.6558075
1493784744493	3.5605316	-13.364075	-3.967743
1493784744513	5.8302917	-13.602341	-3.263916
1493784744532	4.9728546	-12.756851	-0.9766083
1493784744553	0.1321106	-12.430923	-1.5344849
1493784744572	-2.5334015	-13.43457	1.9792175
1493784744592	-3.2818604	-17.022385	5.272476
1493784744611	-4.6881256	-18.043213	3.7478485
1493784744632	-3.395813	-17.42334	1.2393188
1493784744653	-2.9661255	-16.028168	-0.07376099
1493784744671	-2.285492	-14.333298	0.4284668
1493784744690	-0.6510315	-13.060928	2.0845337
1493784744710	1.596344	-11.180542	0.48339844
1493784744731	1.9414825	-8.724197	-0.038711548
1493784744751	4.286743	-5.561371	2.3891144
1493784744772	3.37648	-3.009491	4.891617
1493784744789	0.75234985	-0.722702	5.491028
1493784744809	-1.2487946	0.06480408	5.054962
1493784744835	-1.010437	-0.0861969	5.6261597
1493784744866	-1.2275391	-0.9653778	4.7377625
1493784744885	-1.5737915	-1.7229767	3.1438904
1493784744905	-1.2998962	-3.2687225	0.7872925
1493784744925	-1.4317169	-6.8419037	-2.69664
1493784744949	-4.8612366	-15.070801	-13.414108
1493784744969	-8.293655	-19.23381	-15.955215
1493784744988	-8.1831665	-15.147491	-11.440399
1493784745009	-5.3637238	-11.192291	-7.48143
1493784745027	-4.4638977	-9.267136	-5.6127777
1493784745047	-7.969589	-7.4368286	-6.786957
1493784745068	-10.822861	-13.083801	-5.3497314
1493784745087	-5.502182	-17.916138	-1.4515228
1493784745107	-0.59033203	-10.352875	3.9466248
1493784745127	2.4263458	-5.714798	8.479172
1493784745147	-0.53330994	-6.7626953	8.997696
1493784745167	0.92826843	-9.701645	7.389374
1493784745186	4.404114	-11.915497	6.463257
1493784745206	6.4644012	-14.457184	1.3849945
1493784745226	6.258011	-14.285706	-2.594986
1493784745245	5.7971954	-12.170959	0.11262512
1493784745266	2.9111938	-10.868195	1.4012299
1493784745285	-1.1745605	-8.448166	-0.3293457
1493784745304	-3.1310883	-6.8993225	-1.8905487
1493784745328	-3.3121338	-7.8398438	-2.761612
1493784745351	-1.098587	-9.209839	-0.7162323
1493784745361	1.4803009	-8.716461	2.2977295
1493784745382	1.0325775	-6.917938	1.9007416
1493784745400	-0.4220276	-5.7875214	0.6568146
1493784745420	-0.6127014	-7.470291	0.0460968
1493784745440	1.9282074	-9.59198	-0.6035919
1493784745463	3.6387634	-10.637787	-0.92663574
1493784745483	2.7433777	-10.785004	-0.6712494
1493784745502	0.8840027	-11.046341	-0.74339294
1493784745523	2.4651642	-12.576752	-0.21588135
1493784745542	4.703949	-13.463913	-0.73594666
1493784745563	4.6131744	-13.094208	-1.6391144
1493784745582	4.662369	-12.957687	-2.686966
1493784745602	5.432907	-13.466049	-3.3171082
1493784745623	6.370514	-13.940826	-3.3461304
1493784745641	4.392227	-13.5946045	-1.9444885
1493784745662	-0.53860474	-13.016861	-2.2940369
1493784745683	-2.5672302	-13.632034	1.5192566
1493784745699	-2.693222	-17.52977	5.959442
1493784745721	-4.8767853	-18.855408	4.614975
1493784745741	-4.2851563	-17.275192	1.8496704
1493784745761	-3.6470337	-15.024155	0.41181946
1493784745781	-2.8388824	-13.236435	0.48210144
1493784745799	-1.8999176	-12.522827	1.9715576
1493784745819	-0.5466461	-10.9767	1.3735046
1493784745836	0.1068573	-8.8567505	-0.021194458
1493784745856	2.311966	-4.7831116	2.0793
1493784745875	3.5497742	-3.559906	4.11763
1493784745895	0.7624512	-2.276886	4.150696
1493784745915	-1.0669708	-0.9982605	4.5633545
1493784745935	-0.97377014	-0.49349976	4.887024
1493784745955	-0.64004517	-1.3463898	4.405472
1493784745977	-0.8409271	-1.8690338	3.208191
1493784745995	-0.7179413	-3.203064	1.645752
1493784746016	-1.1820679	-6.8072968	-2.1149902
1493784746055	-3.5889893	-15.152191	-14.771179
1493784746078	-7.4772797	-19.383072	-17.055313
1493784746096	-7.5897064	-15.055374	-12.481247
1493784746118	-5.168045	-10.597687	-6.6418457
1493784746137	-4.0845947	-9.395218	-4.521805
1493784746157	-6.398941	-6.4281464	-5.3294373
1493784746177	-8.963882	-9.13353	-7.4243774
1493784746196	-7.5323486	-18.711716	-5.5867615
1493784746217	-1.739914	-14.187149	1.7800446
1493784746236	1.8619385	-7.5497284	7.5393066
1493784746256	-0.77757263	-4.9135895	10.030685
1493784746276	-2.2521667	-7.961014	6.899597
1493784746293	1.5754852	-11.243805	6.7598114
1493784746314	5.6785736	-13.952026	4.2475586
1493784746338	7.488083	-16.224762	-2.1186218
1493784746353	7.4813385	-14.2565	-1.7670593
1493784746371	4.691925	-10.770981	1.1058197
1493784746390	-0.4627838	-7.767227	0.8995209
1493784746410	-2.8523102	-6.508621	-1.4770355
1493784746430	-3.95076	-7.57753	-3.268982
1493784746453	-1.9815521	-9.072891	-2.3461456
1493784746472	0.5140686	-8.714127	0.75691223
1493784746491	1.1912384	-7.5155487	1.1430664
1493784746512	-0.36753845	-6.4772644	0.96315
1493784746531	-1.2160797	-7.3138123	0.9992523
1493784746553	-0.10057068	-9.030975	0.6685028
1493784746573	2.2959595	-9.867004	-0.32595825
1493784746592	4.0026093	-10.5466	-0.6903534
1493784746611	2.2608185	-11.805878	-0.7776489
1493784746633	1.2235107	-12.965439	-1.486969
1493784746652	3.729004	-13.608566	-1.2394867
1493784746672	4.903061	-13.177673	-1.5783386
1493784746691	4.450287	-12.899506	-2.5316925
1493784746709	4.8572235	-13.381638	-2.8118286
1493784746728	6.044174	-13.990829	-2.5542603
1493784746747	4.9419403	-13.540878	-1.7066498
1493784746771	-0.034088135	-12.530487	-2.507141
1493784746787	-3.3411102	-11.732239	-0.4608307
1493784746808	-2.4140015	-14.944763	4.013962
1493784746827	-3.67836	-18.425049	5.234375
1493784746844	-4.590393	-19.446579	2.7793732
1493784746864	-3.2288208	-16.629547	0.9209137
1493784746883	-1.8931274	-14.120316	0.6791382
1493784746902	-1.6139374	-13.368103	1.2335358
1493784746923	-1.47258	-12.599014	2.404358
1493784746946	-0.28857422	-10.461929	1.084549
1493784746965	1.5651398	-6.521927	1.3993835
1493784746986	3.4994965	-4.0927734	2.2411041
1493784747002	3.4596863	-3.0135956	3.7191315
1493784747028	0.9415741	-1.0827637	5.3592834
1493784747047	-1.0218201	0.17607117	5.3363953
1493784747067	-1.1542511	0.013809204	4.643463
1493784747087	-1.0140839	-0.61979675	3.9500275
1493784747106	-0.9286194	-1.1822205	2.8668823
1493784747127	-0.75061035	-2.7400513	1.9181519
1493784747146	-1.2696686	-7.6164856	-2.3042145
1493784747166	-4.067337	-18.374252	-15.903519
1493784747186	-9.779297	-19.44754	-18.852814
1493784747226	-9.048355	-14.569565	-11.610168
1493784747226	-6.3194275	-8.925552	-5.2782593
1493784747245	-4.6805573	-8.397415	-4.434952
1493784747285	-9.385635	-9.539413	-8.189941
1493784747304	-9.651062	-19.342667	-9.011856
1493784747325	-0.660141	-15.765457	2.6497955
1493784747346	2.9788513	-6.0197906	9.186951
1493784747363	1.1181793	-2.1907654	10.858719
1493784747383	-2.0106964	-7.4366302	8.960632
1493784747400	1.3739014	-11.592773	7.511322
1493784747420	5.2526855	-15.1931	6.455551
1493784747440	7.9063416	-17.482834	-3.0650177
1493784747463	7.278824	-15.210968	-3.459015
1493784747482	5.5381927	-10.77742	1.9889984
1493784747501	-0.82722473	-8.27121	1.6096191
1493784747522	-3.3973541	-6.8752594	-1.7145844
1493784747542	-4.05394	-7.128891	-4.1825256
1493784747563	-2.9089355	-8.35527	-2.4674683
1493784747583	0.9353943	-8.698914	2.3037262
1493784747602	2.1737213	-8.194489	1.2935181
1493784747622	0.10861206	-6.1083984	-0.041534424
1493784747642	-1.2160339	-6.990204	-1.164566
1493784747662	0.2705078	-9.572708	-0.47561646
1493784747682	2.3475037	-10.682495	-0.5428467
1493784747700	3.7720795	-10.307159	-0.16569519
1493784747721	2.5679016	-10.99144	-0.19024658
1493784747741	0.9944153	-12.553787	-1.0193939
1493784747763	2.3274689	-13.42955	-0.6506653
1493784747781	4.3065033	-13.450851	-1.0466461
1493784747802	3.9708405	-13.0937805	-2.4711456
1493784747818	4.7407227	-13.339401	-2.7982788
1493784747841	6.6341553	-13.74939	-2.4033966
1493784747856	5.5842285	-13.1753845	-1.734909
1493784747876	-0.06251526	-12.448166	-2.4897919
1493784747898	-3.3456116	-12.490585	-1.2950897
1493784747915	-2.3757935	-15.516464	3.6824646
1493784747935	-2.9266815	-18.410843	5.6845245
1493784747955	-3.9838715	-18.401962	3.1835785
1493784747976	-3.5123596	-16.371689	0.54447937
1493784747997	-2.7484589	-13.95723	0.08956909
1493784748018	-1.8357697	-12.988037	1.3203278
1493784748037	-0.6094513	-12.164124	2.6798248
1493784748056	0.82398987	-9.916336	0.39631653
1493784748078	2.9415894	-6.755234	1.2343903
1493784748098	3.6393433	-4.206131	2.9888306
1493784748116	2.273056	-2.386917	4.5820313
1493784748138	0.46801758	-0.68836975	5.3712006
1493784748157	-0.8919525	-0.3155365	4.957382
1493784748177	-1.2805328	-0.868927	4.387726
1493784748197	-1.6229248	-1.5295868	3.6864777
1493784748215	-1.9436188	-2.600006	2.0615845
1493784748237	-1.4902802	-4.6898804	0.21432495
1493784748256	-2.7665863	-9.932465	-3.6010895
1493784748277	-4.9370575	-17.872696	-10.734467
1493784748296	-7.8105164	-19.089325	-14.960297
1493784748315	-7.3896027	-12.068024	-10.099884
1493784748336	-4.38237	-9.765518	-5.732422
1493784748357	-2.5209045	-10.226913	-5.2457275
1493784748386	-5.95018	-9.02771	-8.317337
1493784748396	-9.156052	-19.124527	-11.9140625
1493784748415	-6.1774445	-19.474823	-3.041214
1493784748451	0.27171326	-8.427383	8.43811
1493784748470	1.8981171	-0.049850464	13.054916
1493784748492	-2.7866974	-3.0644531	9.336578
1493784748512	0.22346497	-8.110687	6.6843567
1493784748595	6.4851074	-13.311783	9.091766
1493784748595	7.698929	-17.994202	-0.94914246
1493784748595	7.374298	-14.863312	-4.936905
1493784748595	6.2550507	-10.794678	0.20024109
1493784748608	-0.097351074	-8.718399	2.331833
1493784748651	-2.666275	-6.8980865	0.14953613
1493784748651	-3.7829437	-6.74527	-0.94548035
1493784748666	-4.2612762	-8.241837	-2.2222443
1493784748686	-1.6091614	-10.429916	0.5276184
1493784748706	1.228363	-9.215988	1.7098541
1493784748726	0.6266022	-7.2627106	0.76638794
1493784748746	0.07951355	-7.072937	0.7687988
1493784748765	1.2273712	-8.669952	0.7022705
1493784748785	3.0437317	-10.496292	-0.18814087
1493784748805	3.3396149	-10.473785	-0.9259949
1493784748825	1.5357819	-11.032532	-0.60458374
1493784748845	1.5836487	-12.45607	-0.47099304
1493784748864	4.017166	-13.395081	-0.7553711
1493784748884	4.3353577	-12.80127	-1.0580444
1493784748904	3.8457642	-12.409225	-2.1516266
1493784748924	4.0581512	-12.611038	-3.8682861
1493784748944	4.4085693	-12.584412	-3.817337
1493784748963	4.9971466	-12.979355	-2.5837097
1493784748984	3.019638	-13.044983	-2.1487885
1493784749003	-1.7100067	-12.811508	-0.9008179
1493784749023	-3.7697449	-14.237122	3.7794037
1493784749043	-5.420868	-17.364868	6.0837708
1493784749062	-6.924774	-19.104477	2.7290192
1493784749083	-5.189377	-17.749283	-0.20269775
1493784749103	-2.9585571	-15.18689	-0.43170166
1493784749122	-0.7333374	-13.550781	0.97869873
1493784749142	-0.4847107	-12.15303	1.8637848
1493784749165	-0.047805786	-10.088226	2.1094513
1493784749182	0.8102722	-7.2730713	2.0111694
1493784749205	1.8074646	-5.328293	2.7993011
1493784749221	1.9568481	-3.453308	4.287445
1493784749241	0.31681824	-1.1428375	4.9654846
1493784749260	-0.37698364	0.30081177	5.0991516
1493784749280	-0.4033661	0.41983032	4.51828
1493784749300	-0.8481293	0.09561157	3.6748352
1493784749318	-1.2536316	-1.2610626	1.710144
1493784749339	-1.5001831	-4.566803	-1.9273071
1493784749359	-3.3996735	-12.839813	-11.615341
1493784749379	-9.694992	-18.564163	-16.203278
1493784749399	-8.83548	-14.608093	-11.708786
1493784749419	-6.250351	-9.263519	-7.3166046
1493784749439	-4.248001	-8.885147	-5.5820313
1493784749461	-8.102158	-8.794815	-6.502075
1493784749484	-11.574387	-18.213272	-8.676819
1493784749499	-5.816742	-19.469833	-2.934616
1493784749519	0.42240906	-7.7437897	5.6577606
1493784749538	1.8100586	-2.3468933	8.330231
1493784749558	-1.3749695	-5.701721	6.6748505
1493784753306	-0.4436493	-11.380646	9.218201
1493784753306	2.823822	-13.473068	8.781143
1493784753307	4.4535217	-16.45198	3.469925
1493784753307	8.074814	-16.95256	-1.4402924
1493784753307	8.124298	-14.471405	-1.0651398
1493784753307	4.0108795	-10.601883	-0.25300598
1493784753307	-0.4961548	-7.731964	-0.12840271
1493784753307	-4.2298126	-6.3233185	-0.5664673
1493784753307	-5.010071	-7.591095	-3.4373627
1493784753308	-1.9041443	-8.4227295	-1.5047455
1493784753308	0.17449951	-8.356903	1.8851013
1493784753308	0.32173157	-6.7868805	0.113357544
1493784753308	-1.7270355	-6.098053	-0.33605957
1493784753308	-1.3574524	-7.1488953	0.37820435
1493784753308	0.263443	-8.550003	0.7228241
1493784753309	3.2510376	-10.518509	-0.3998413
1493784753309	3.9306946	-12.099457	-1.7809296
1493784753309	3.4766846	-12.420929	-2.482605
1493784753309	2.4331665	-13.047791	-3.2606049
1493784753309	2.8223724	-12.867203	-2.4581757
1493784753309	3.743866	-12.365509	-2.3869781
1493784753309	4.3295135	-12.320374	-3.5023346
1493784753310	5.9490356	-13.741089	-3.0400085
1493784753310	6.51268	-14.039795	-0.5836487
1493784753310	0.74513245	-13.039413	-0.0693512
1493784753310	-3.9805756	-13.159897	-0.82063293
1493784753310	-3.094925	-16.058655	3.4304962
1493784753310	-2.899109	-18.71222	5.2401733
1493784753310	-2.966507	-17.993744	4.0211334
1493784753311	-3.1650696	-15.809998	1.3223419
1493784753311	-2.6466217	-13.64621	0.47625732
1493784753311	-1.8599243	-12.622986	1.6295319
1493784753311	-1.3707275	-11.966461	2.623581
1493784753311	-0.29592896	-10.015335	1.4264374
1493784753311	0.3898468	-7.6952667	0.20767212
1493784753312	0.88934326	-5.2954407	1.6195831
1493784753312	1.9260864	-3.3957825	3.883316
1493784753320	1.1950989	-2.067627	4.6531067
1493784753320	-0.54541016	-1.0420074	4.551773
1493784753321	-1.1708527	-0.7694855	3.9639435
1493784753321	-0.94522095	-1.4447937	3.2479248
1493784753321	-0.3497162	-2.5200958	2.8524323
1493784753321	-0.4921875	-4.881531	1.751831
1493784753321	-2.2494965	-10.940216	-5.4501343
1493784753321	-4.677475	-17.58841	-16.31276
1493784753321	-6.2403107	-17.732178	-16.0401
1493784753322	-5.9904327	-11.788193	-8.463837
1493784753322	-4.548691	-8.039932	-2.6703033
1493784753322	-3.8062744	-7.337799	-3.4276886
1493784753322	-5.147476	-8.708542	-7.309784
1493784753322	-6.637268	-17.24324	-7.5052185
1493784753323	-0.040130615	-15.470596	-2.2891693
1493784753323	1.4543457	-9.793259	6.075592
1493784753323	1.0445557	-4.54364	10.767273
1493784753323	-1.8364258	-5.738907	7.6541443
1493784753323	-0.7319031	-9.527023	5.7667694
1493784753323	1.8568115	-14.032867	7.147583
1493784753324	4.3659363	-17.687332	2.891037
1493784753324	5.6143646	-15.9655	-2.9578705
1493784753324	3.2424011	-11.763092	-0.7368164
1493784753324	0.97813416	-9.45462	1.1836243
1493784753324	-2.5549927	-8.545395	-0.7019348
1493784753324	-4.235733	-8.205551	-1.255127
1493784753324	-3.7957916	-7.977249	-1.7243347
1493784753325	-0.118499756	-8.989166	-0.54541016
1493784753325	1.8447723	-9.4882965	-0.41438293
1493784753325	0.40246582	-7.9376526	-1.2096252
1493784753325	-1.062912	-7.6275177	-3.3003235
1493784753326	0.08039856	-8.061798	-3.1756592
1493784753326	0.9887848	-8.6158905	-2.5053253
1493784753326	1.1871185	-9.465729	-2.0560303
1493784753326	1.330307	-10.000351	-2.619217
1493784753327	2.7412872	-10.656128	-3.6040802
1493784753327	5.4347076	-11.092575	-4.600937
1493784753327	6.9816284	-9.921051	-4.497635
1493784753327	2.3984833	-10.185562	-5.9282837
1493784753328	0.025390625	-12.216568	-5.223709
1493784753328	1.6009521	-16.026123	0.15330505
1493784753328	-0.58547974	-15.720123	1.5956268
1493784753328	-4.7637634	-13.953064	0.31221008
1493784753329	-3.8226013	-14.218872	4.721161
1493784753329	-3.7249146	-16.692093	6.0227203
1493784753329	-2.2265778	-15.111557	3.8035126
1493784753330	0.06729126	-13.410843	0.68977356
1493784753330	0.53364563	-12.769226	1.1008301
1493784753330	-1.6999512	-11.853561	2.2839508
1493784753330	-4.1879425	-10.362045	2.427658
1493784753331	-4.5455933	-7.9378357	1.8335419
1493784753331	-2.826645	-6.099457	1.5493469
1493784753331	-2.1866608	-4.9726105	2.1433716
1493784753331	-2.888916	-4.277298	2.2651978
1493784753332	-3.3331604	-4.588867	1.5623474
1493784753334	-3.758133	-5.2659454	0.75730896
1493784753334	-4.064728	-5.736206	1.265152
1493784753334	-3.9927673	-7.4783325	0.7975464
1493784753334	-3.0332794	-10.436829	-6.7213593
1493784753334	-1.8362274	-13.650772	-15.670364
1493784753335	-2.6060333	-10.8228	-7.641983
1493784753335	-4.3652344	-9.025711	3.0933838
1493784753335	-3.7584229	-10.783264	5.574066
1493784753335	-0.687912	-12.130585	1.7491302
1493784753335	3.6474304	-11.19281	0.11450195
1493784753335	6.406021	-10.381409	2.040619
1493784753335	4.941208	-10.30368	2.1118011
1493784753336	2.2529602	-10.162445	1.4664001
1493784753336	-1.032959	-9.983032	1.0076599
1493784753336	-2.609558	-9.586655	0.91108704
1493784753336	-3.255249	-9.644318	1.2091827
1493784753336	-2.7312012	-9.959839	0.6078644
1493784753336	-2.0372925	-10.170166	-1.1618805
1493784753337	-1.2934418	-9.7447815	-0.27111816
1493784753337	-0.5562744	-9.545975	0.89779663
1493784753337	-0.0063171387	-9.295746	1.3042297
1493784753337	0.35662842	-9.527878	1.3623657
1493784753337	0.5045471	-9.763901	1.277359
1493784753337	-0.082458496	-9.833954	0.92277527
1493784753338	-0.6318207	-9.9604645	0.7016144
1493784753338	-0.81443787	-9.963776	0.8606415
1493784753340	-1.5100555	-11.099274	1.786911
1493784753340	-1.5024719	-9.227142	1.0145264
1493784753340	-1.2422638	-9.956024	0.735199
1493784753340	-0.9215393	-10.418854	1.3432922
1493784753341	-1.0595703	-10.150726	0.99690247
1493784753341	-0.6234741	-9.146759	1.6575928
1493784753341	-0.21505737	-9.372009	1.7399292
1493784753341	0.08779907	-9.856461	1.4143829
1493784753341	0.0662384	-9.37825	1.6002045
1493784753341	0.25263977	-10.002136	1.5669708
1493784753342	0.12820435	-10.473221	1.2324677
1493784753342	0.4159546	-9.676575	0.98921204
1493784753342	0.55078125	-9.974777	1.0355682
1493784753342	0.65708923	-10.41954	1.1611633
1493784753342	0.62364197	-9.978287	0.42182922
1493784753343	0.90483093	-9.790497	0.09931946
1493784753343	1.1001129	-10.062256	-0.076828
1493784753343	1.2103424	-10.430206	0.24101257
1493784753343	1.1884918	-10.450241	-0.55485535
1493784753343	1.7999115	-11.0802	-0.2524109
1493784753343	2.013382	-11.781342	0.21260071
1493784753344	1.5101929	-11.832703	-0.3638916
1493784753344	0.59251404	-11.1705475	-1.4819489
1493784753344	-0.76431274	-10.248077	-1.9252777
1493784753344	-2.1156464	-9.59111	-2.2431488
1493784753344	-1.5853424	-10.086563	-2.0084076
1493784753344	-2.442627	-11.952927	-0.98553467
1493784753344	-3.969162	-13.997498	0.86447144
1493784753345	-4.3608246	-13.92366	2.296524
1493784753345	-3.3431091	-12.099548	2.2208252
1493784753345	-1.7673492	-11.318939	2.9300385
1493784753345	-2.041275	-11.971024	1.5176849
1493784753345	-2.5748444	-11.666519	-0.3261261
1493784753345	-1.6179657	-10.726929	-0.40438843
1493784753346	-1.3371124	-9.847076	-0.48913574
1493784753346	-1.7628021	-9.217209	0.6967926
1493784753346	-2.0602722	-8.738846	1.1647644
1493784753346	-1.8952942	-7.6543884	1.0286407
1493784753346	-2.066269	-6.4477386	0.9761505
1493784753353	-1.9754181	-5.86882	0.939682
1493784753353	-1.875	-5.9097595	0.6093445
1493784753353	-1.6577148	-5.79216	0.27911377
1493784753354	-1.282196	-5.585556	-0.12649536
1493784753354	-0.89016724	-5.5686493	-0.762619
1493784753354	-0.6510925	-5.8168793	-1.6796265
1493784753354	-1.1207123	-6.663727	-3.6051483
1493784753354	-1.6102753	-8.116104	-5.8759155
1493784753355	-2.0524902	-10.388458	-7.7733307
1493784753355	-2.0075226	-11.651138	-8.271027
1493784753355	-1.8610077	-10.963348	-6.588394
1493784753355	-1.5596466	-10.218018	-5.2175903
1493784753355	-1.4742126	-9.62854	-4.7577515
1493784753355	-2.2174377	-9.300247	-5.4319305
1493784753356	-2.7246857	-8.906174	-5.382004
1493784753356	-3.2127075	-8.064499	-3.3350983
1493784753356	-3.6960907	-9.004822	-2.014206
1493784753356	-4.1821136	-12.880203	-1.1778564
1493784753356	-3.7614136	-19.005325	-1.2027283
1493784753356	-2.1613922	-17.094116	-0.75886536
1493784753356	-1.861557	-10.171921	-2.5857239
1493784753357	0.82496643	-3.833847	4.6591187
1493784753357	2.6824036	-3.3555298	8.802261
1493784753357	2.5436707	-7.1604004	7.9447174
1493784753357	3.4170685	-11.684647	4.5398254
1493784753357	4.930237	-12.431046	-0.19282532
1493784753360	3.3058167	-12.582672	-2.08107
1493784753360	0.591568	-11.137619	1.9159698
1493784753362	-0.32391357	-7.7968597	2.1243439
1493784753362	-0.84542847	-9.318024	2.7982483
1493784753363	-3.1716309	-8.959183	-3.1229858
1493784753394	-2.0232086	-5.8557434	-0.87945557
1493784753398	-1.8677216	-13.2126465	8.049957
1493784753419	3.3085785	-11.191696	4.3862915
1493784753437	5.0665283	-12.737579	2.852417
1493784753458	7.9946136	-14.233032	-2.036026
1493784753478	2.6466675	-7.003769	-6.740387
1493784753501	-2.4138641	-4.5073395	-0.9160919
1493784753520	-4.788391	-8.3811035	3.394577
1493784753538	1.1756744	-10.182724	5.247055
1493784753560	3.7362518	-9.150482	0.69862366
1493784753579	3.115799	-9.113174	1.4421844
1493784753599	1.0635376	-9.319962	2.2494354
1493784753619	-0.2780304	-8.832794	1.6009521
1493784753636	0.24130249	-10.034988	1.7916718
1493784753656	1.1837006	-11.787582	1.666687
1493784753676	1.7035828	-12.423706	-0.29632568
1493784753697	2.1688843	-12.901489	-3.6139069
1493784753715	0.29600525	-12.601456	-1.721695
1493784754082	0.27682495	-12.091293	-1.0815735
1493784754082	1.2377472	-11.851578	-1.0959015
1493784754082	3.4737244	-13.212524	-0.40975952
1493784754082	5.6925964	-14.073639	1.3869019
1493784754082	5.6631317	-14.430405	0.9490967
1493784754082	3.94635	-14.976105	1.0213776
1493784754082	1.6943054	-15.395615	2.0310059
1493784754082	0.39370728	-14.325226	3.7127228
1493784754082	-1.1566315	-14.219681	6.7500153
1493784754082	-1.6003418	-15.462448	6.720154
1493784754083	-1.0970001	-14.960617	5.4308777
1493784754083	-1.3226166	-12.293289	4.5335083
1493784754083	-1.0665588	-10.252533	0.67440796
1493784754083	-1.2931671	-10.0360565	1.7906647
1493784754083	0.21461487	-9.456818	3.6349182
1493784754083	1.5851898	-10.750137	3.215271
1493784754083	1.0550537	-8.989517	4.106247
1493784754083	0.44734192	-3.3131104	6.639908
1493784754091	-1.7064819	-6.006363	2.1404877
1493784754111	0.4309845	-6.0882263	-0.76641846
1493784754130	1.6752319	-4.086029	-0.5315094
1493784754149	3.004364	-5.0325623	2.5777435
1493784754170	2.9492645	-10.029907	0.86994934
1493784754190	5.3087616	-7.1770782	-10.966766
1493784754210	3.3052673	-5.5675354	-7.6432495
1493784754230	5.0256805	-8.696274	-1.9635773
1493784754249	5.6853333	-11.383591	2.7062073
1493784754269	5.3359528	-11.05603	1.7570343
1493784754289	6.9989166	-8.469345	-2.5973358
1493784754309	6.3088074	-7.465042	4.761841
1493784754328	5.985367	-10.559479	-3.316162
1493784754348	7.151932	-11.060135	2.1256714
1493784754368	9.606171	-6.68042	3.6127472
1493784754408	10.409012	-4.6326904	8.850739
1493784754427	9.578629	-6.0605774	11.039078
1493784754447	7.762863	-8.436752	8.760025
1493784754467	5.5113525	-7.645706	12.409531
1493784754487	3.6015778	-6.944504	11.506699
1493784754507	1.6459961	-6.777405	12.903748
1493784754526	-0.7285309	-6.907013	13.248383
1493784754546	-2.2277832	-6.0237274	10.184753
1493784754566	-2.9370575	-4.856613	8.973938
1493784754586	-2.9649963	-3.5493164	9.421143
1493784754606	-2.7437744	-2.5833893	8.013565
1493784754626	-2.270935	-0.85269165	6.428131
1493784754645	-1.665451	0.37638855	4.8146667
1493784754665	-1.6220398	0.14527893	4.9309387
1493784754685	-2.4592743	-1.3121033	5.18721
1493784754705	-2.7799988	-1.6589355	5.406601
1493784754725	-0.5029144	-0.32504272	7.804474
1493784754744	5.755844	0.8960266	14.868988
1493784754764	3.9811096	-0.5337982	15.613556
1493784754784	-0.48171997	0.45632935	7.0939636
1493784754803	0.27111816	1.0246887	6.80455
1493784754824	2.447998	0.30499268	5.7826233
1493784754844	3.534256	-0.004776001	4.517624
1493784754863	1.9351959	0.8511505	6.852539
1493784754883	1.7168579	1.384201	8.816238
1493784754904	1.3876343	1.9392395	9.719009
1493784754923	1.0063477	2.617859	8.320969
1493784754942	-0.15693665	3.724945	6.531372
1493784754962	0.6568146	4.3923798	6.532715
1493784754982	1.6979675	3.885559	7.6046906
1493784755001	1.3315735	3.800415	8.61763
1493784755022	0.913208	3.216034	9.819397
1493784755041	1.6408081	1.8403931	10.747513
1493784755061	0.80436707	1.1292114	10.833374
1493784755081	-0.22964478	1.7320251	10.790665
1493784755101	-0.35646057	1.9664764	10.606903
1493784755121	0.107940674	1.9424591	10.552292
1493784755140	0.30526733	2.3549957	10.241928
1493784755161	0.16169739	2.8402863	9.422684
1493784755180	0.20948792	3.3274994	9.155884
1493784755200	-0.77116394	3.4523163	9.859024
1493784755220	-2.0055084	3.4537964	10.7677
1493784755239	-2.5537567	2.9063568	11.546295
1493784755258	-1.6380768	1.5380859	11.805786
1493784755279	-0.1269989	1.0726776	10.590546
1493784755299	0.4700775	0.95651245	9.422836
1493784755319	0.78816223	1.375824	8.678528
1493784755339	1.1309967	1.839447	8.351044
1493784755357	0.63520813	2.1304321	8.453552
1493784755378	0.27165222	2.0556946	9.104828
1493784755398	-0.7138214	1.4560242	9.845764
1493784755418	-1.3227386	1.2037964	10.358093
1493784755438	-1.3658905	1.3930817	10.579254
1493784755456	-1.1207275	1.8520813	9.730316
1493784755477	-0.672699	2.403534	9.265305
1493784755497	-0.3299713	2.415329	8.815216
1493784755517	-0.33892822	2.2841034	8.337723
1493784755537	-0.26261902	2.7913055	7.5897827
1493784755556	-0.32029724	2.9196777	7.9871216
1493784755576	-0.48086548	2.8602905	7.908493
1493784755616	0.124923706	3.4910278	8.407074
1493784755636	-0.38897705	3.3384857	8.2122345
1493784755655	-0.27801514	3.2349243	9.253494
1493784755675	-0.7103424	2.681015	9.430054
1493784755695	-0.12619019	3.23378	9.189926
1493784755715	-0.32717896	3.4848175	8.801987
1493784755735	0.18139648	3.75943	8.693039
1493784755755	0.74316406	3.7520905	8.540009
1493784755775	0.61135864	3.7691498	9.18045
1493784755795	0.18226624	3.8980713	9.867096
1493784755814	-0.120025635	3.6087494	10.351852
1493784755834	0.012634277	3.6322174	9.920258
1493784755854	0.30519104	3.5892944	9.806137
1493784755874	-0.14480591	4.1667175	9.84346
1493784755893	0.18528748	4.1411133	9.617523
1493784755913	0.6814575	3.8700104	9.61969
1493784755933	0.44929504	3.9078064	9.116394
1493784755954	0.15570068	3.5280304	8.882324
1493784755973	0.22599792	3.4914856	9.079193
1493784755993	0.057357788	4.036255	8.657181
1493784756012	-0.9796295	4.125183	8.957031
1493784756032	-1.8781128	4.267563	8.705185
1493784756052	-2.3801422	4.278244	9.297958
1493784756072	-2.9257813	3.6443787	9.934097
1493784756092	-3.142212	2.8412323	10.893845
1493784756111	-2.5231323	2.4264984	11.3003235
1493784756131	-0.56715393	1.9642487	10.062958
1493784756151	0.20397949	1.7041473	8.381882
1493784756171	-0.76364136	2.5180206	7.441971
1493784756191	-1.8331451	3.6463318	7.3449097
1493784756210	-2.5926666	3.8751373	8.257294
1493784756231	-2.4027557	2.6273193	9.709579
1493784756250	-1.9698334	1.5532074	11.150177
1493784756270	-1.6582336	1.4819641	11.486038
1493784756290	-1.0991821	1.7171173	10.409225
1493784756310	-0.6503296	2.103485	9.10643
1493784756330	-0.260849	2.5370026	8.487167
1493784756349	-0.06930542	2.7760162	8.142456
1493784756369	-0.025436401	2.9878998	7.9132385
1493784756389	-0.021850586	3.0905457	8.09906
1493784756409	-0.12071228	3.2428436	7.671341
1493784756429	-0.43553162	3.2385864	8.297287
1493784756448	-0.6701355	3.5145264	9.005508
1493784756467	-0.8400879	3.5021515	8.811371
1493784756488	-0.9725189	3.687317	8.531158
1493784756509	-1.1570435	3.893341	8.713211
1493784756527	-1.2363586	3.8519135	9.086105
1493784756547	-1.616272	2.8966217	10.163223
1493784756566	-1.6676025	5.329056	8.663406
1493784756587	-1.8994904	4.941559	8.363815
1493784756607	-1.4246979	4.68132	8.688187
1493784756627	-1.2445984	4.625946	8.772873
1493784756647	-1.5354156	4.5352936	8.563019
1493784756666	-1.5082245	4.6598053	8.965668
1493784756687	-1.6420135	4.4598846	9.18454
1493784756706	-1.6235809	4.4096985	9.218658
1493784756726	-1.6551971	4.3893585	9.161209
1493784756747	-1.473053	4.524063	9.652481
1493784756776	-1.0653381	5.0723724	9.672165
1493784756785	-0.9668579	5.047806	9.196884
1493784756825	-0.079330444	5.123749	9.401932
1493784756846	1.680954	6.288513	7.2413177
1493784756864	0.6004181	4.93042	9.067963
1493784756884	-0.063201904	3.1356964	12.69017
1493784756904	-0.38424683	2.6051636	11.164734
1493784756924	-0.61109924	2.3799896	11.073715
1493784756943	-0.43251038	2.3134155	10.803558
1493784756963	-0.28329468	2.619629	9.517487
1493784756983	-0.18330383	2.8265228	8.706818
1493784757003	-0.10838318	3.0200195	7.497177
1493784757023	0.10121155	3.3025818	7.226349
1493784757043	0.45404053	3.5543365	7.815201
1493784757062	0.49513245	3.4466095	8.516449
1493784757082	0.10241699	2.9408875	9.335541
1493784757102	-0.52893066	2.52565	10.091522
1493784757122	-1.3108978	2.4694214	10.063675
1493784757142	-1.2802277	2.5655975	8.7258
1493784757161	-1.1223755	2.9660645	8.223282
1493784757181	-0.9118805	3.1796417	8.401703
1493784757202	-0.6635742	3.537796	8.568634
1493784757220	-0.47187805	3.7049408	8.800415
1493784757243	-0.34744263	3.8499146	8.633377
1493784757261	-0.3855896	3.9425354	8.553009
1493784757281	-0.40751648	3.8320923	8.834274
1493784757300	-0.31321716	3.8982086	8.967239
1493784757322	-0.3394165	4.1140594	9.10202
1493784757340	-0.41958618	3.8804169	8.810196
1493784757360	-0.60702515	3.2577515	9.164749
1493784757379	-0.6483307	3.101471	9.880554
1493784757400	-0.23153687	3.7378998	9.580872
1493784757418	0.0035247803	4.447342	9.362106
1493784757439	0.09237671	4.5752563	9.260727
1493784757459	0.052978516	4.4063416	9.045151
1493784757479	-0.25543213	4.655472	8.8993225
1493784757498	-0.8813629	5.0978394	9.16835
1493784757518	-1.2261353	4.9077454	9.1861725
1493784757538	-1.3834991	4.430191	8.365875
1493784757558	-1.0370178	4.254837	8.082535
1493784757578	-0.94273376	4.314438	8.320679
1493784757597	-1.1936493	4.261795	8.241074
1493784757619	-1.2858276	4.2290497	7.736023
1493784757638	-1.2589569	4.346344	7.7171326
1493784757658	-1.2299042	4.4023438	7.6559143
1493784757676	-1.2648773	4.467575	7.681076
1493784757696	-1.5597992	4.5492706	8.000427
1493784757716	-1.9254303	4.6130066	8.005356
1493784757736	-1.9460602	4.5464325	7.7541504
1493784757756	-1.702301	4.7045593	7.906433
1493784757796	-1.6868896	4.8775177	7.952774
1493784757796	-1.9494629	4.912491	7.816086
1493784757818	-2.3097076	4.968094	7.835037
1493784757835	-2.5039215	4.937866	8.295578
1493784757855	-2.575943	4.8038177	8.896057
1493784757876	-2.5720673	4.783722	9.271469
1493784757895	-2.353119	4.750839	9.159012
1493784757915	-2.0229034	4.758896	8.895828
1493784757935	-1.8847504	4.761978	8.814011
1493784757954	-2.133255	4.518738	8.610779
1493784757977	-2.0108643	4.799225	8.748154
1493784757994	-2.0566254	4.648758	8.542648
1493784758034	-1.9745636	4.706848	8.1349945
1493784758053	-2.0416718	5.0094604	8.008163
1493784758072	-2.0084076	5.0080566	8.229752
1493784758093	-1.9898529	5.1017303	8.05983
1493784758113	-1.9979553	4.9248505	8.29126
1493784758132	-2.1303406	4.9868317	8.445084
1493784758152	-2.071579	4.985794	8.164886
1493784758172	-2.122818	5.0800934	8.161987
1493784758192	-1.9641724	5.062271	8.522247
1493784758211	-1.9599304	4.8368683	8.53656
1493784758231	-1.8578644	4.9352417	8.796768
1493784758251	-1.771225	4.952423	8.616348
1493784758271	-1.5606842	5.0951233	8.293137
1493784758291	-1.4631348	5.1941833	7.8647156
1493784758311	-1.3089142	5.318527	7.714325
1493784758330	-1.293808	5.2866364	7.8842316
1493784758350	-1.3938446	5.242279	8.175812
1493784758370	-1.4359589	5.2249146	8.203461
1493784758390	-1.5991516	5.1528625	8.039017
1493784758410	-1.7308044	5.103256	7.92424
1493784758429	-1.7714386	5.1934967	7.9666595
1493784758449	-1.8389435	5.293274	7.960846
1493784758469	-1.8335571	5.3710327	7.7860413
1493784758489	-1.761261	5.4057617	7.655716
1493784758509	-1.744751	5.3963013	7.6903687
1493784758528	-1.6872253	5.4138336	8.035812
1493784758549	-1.6555786	5.4710236	8.2734375
1493784758568	-1.593277	5.4204407	8.351364
1493784758588	-1.564743	5.3302917	8.39267
1493784758608	-1.563034	5.3393097	8.263184
1493784758627	-1.5280609	5.4011536	8.1483
1493784758651	-1.4952087	5.4457245	8.023285
1493784758667	-1.4287415	5.477295	7.7938538
1493784758687	-1.3422852	5.4801483	7.6886444
1493784758707	-1.3375702	5.4306946	7.713913
1493784758726	-1.3287506	5.3916473	7.919998
1493784758750	-1.3764954	5.381897	7.990143
1493784758766	-1.4346924	5.32222	8.031586
1493784758786	-1.4964294	5.2337036	8.043777
1493784758808	-1.51651	5.347458	8.089401
1493784758826	-1.5288391	5.406189	8.034836
1493784758846	-1.5556183	5.3974304	7.916458
1493784758865	-1.4942627	5.444748	7.9401703
1493784758884	-1.504242	5.451767	8.004349
1493784758905	-1.4319153	5.4944916	8.100723
1493784758924	-1.3699493	5.4692993	8.260895
1493784758944	-1.3332825	5.4515686	8.127167
1493784758964	-1.282196	5.50354	7.9670105
1493784758983	-1.1393585	5.436661	8.02533
1493784759004	-1.3177795	5.507248	7.810257
1493784759024	-1.2575531	5.464096	8.0780945
1493784759044	-1.2442322	5.495529	8.038666
1493784759063	-1.259964	5.4117737	7.9151306
1493784759083	-1.1960754	5.4154053	7.881485
1493784759103	-1.2385712	5.436386	7.7835846
1493784759123	-1.271637	5.41597	8.018799
1493784759142	-1.2331238	5.3962555	8.109192
1493784759163	-1.2447357	5.425186	8.349945
1493784759181	-1.3012085	5.4705505	8.143631
1493784759202	-1.3926544	5.3288574	7.6734314
1493784759241	-1.2268677	5.318268	7.75943
1493784759261	-1.1311188	5.409958	8.651276
1493784759280	-1.2086487	5.4894714	8.705414
1493784759301	-1.2300262	5.424011	8.224731
1493784759321	-1.11232	5.4200897	8.002228
1493784759340	-1.0681152	5.365555	7.807205
1493784759361	-1.1210632	5.484192	7.884201
1493784759380	-1.2739716	5.490509	8.205582
1493784759400	-1.3288879	5.47876	8.101624
1493784759420	-1.2337646	5.4186707	8.099884
1493784759440	-1.2583313	5.4026337	8.037445
1493784759460	-1.1876678	5.395279	8.096451
1493784759479	-1.1417236	5.3892975	8.1045685
1493784759499	-1.1826324	5.3456573	8.20285
1493784759519	-1.2791595	5.3941345	8.122147
1493784759539	-1.2863007	5.4114532	8.2187805
1493784759559	-1.2457275	5.3891754	8.200134
1493784759579	-1.2033081	5.39151	8.092941
1493784759598	-1.1984711	5.3782806	8.073715
1493784759618	-1.19841	5.328659	8.198975
1493784759637	-1.2056122	5.3333893	8.294785
1493784759657	-1.1495972	5.316742	8.169388
1493784759677	-1.0879669	5.3231506	8.111664
1493784759697	-1.1199646	5.341049	8.205566
1493784759717	-1.135788	5.342499	8.239395
1493784759738	-1.1728058	5.289917	8.231918
1493784759757	-1.1720428	5.257141	8.235916
1493784759776	-1.1696625	5.284683	8.178131
1493784759796	-1.1404724	5.2960815	8.159073
1493784759816	-1.1356964	5.294052	8.081711
1493784759835	-1.1506958	5.330475	7.958359
1493784759856	-1.233963	5.392624	7.914673
1493784759875	-1.2364655	5.402176	7.9654846
1493784759894	-1.1886749	5.4084015	8.014084
1493784759915	-1.150177	5.402954	8.054306
1493784759935	-1.1261902	5.4312286	8.159775
1493784759955	-1.1114349	5.4518433	8.296265
1493784759974	-1.1039124	5.4500427	8.347214
1493784759994	-1.0886993	5.4387817	8.238678
1493784760014	-1.0680542	5.4349823	8.14003
1493784760034	-1.0830994	5.4813538	8.0755005
1493784760054	-1.1562805	5.452347	7.985855
1493784760073	-1.1269226	5.4822693	7.981613
1493784760092	-1.1083527	5.4486694	8.090179
1493784760113	-1.0484161	5.404022	8.115402
1493784760133	-1.0432129	5.402588	8.043701
1493784760153	-1.0439148	5.4365387	8.009552
1493784760172	-1.029541	5.422394	7.8171387
1493784760191	-1.0721436	5.462631	7.86615
1493784760212	-1.0629883	5.487442	8.006393
1493784760232	-1.1041718	5.4742737	7.9790497
1493784760252	-1.0439606	5.442627	8.075272
1493784760271	-0.98706055	5.4065704	8.062195
1493784760291	-0.97006226	5.478943	7.8921814
1493784760311	-0.9866028	5.544861	7.9036865
1493784760331	-1.0860901	5.541107	7.9705505
1493784760351	-1.0838165	5.5088043	7.9772797
1493784760371	-1.1040802	5.4979553	8.037277
1493784760390	-1.1538391	5.5069885	8.055634
1493784760430	-1.0358124	5.5547485	7.9986725
1493784760450	-1.0757294	5.540848	7.9026337
1493784760470	-1.0485992	5.557251	7.8546906
1493784760489	-1.0115509	5.49588	7.952942
1493784760510	-1.0481415	5.5063477	8.022446
1493784760529	-1.0539856	5.497284	7.9537506
1493784760549	-1.0349579	5.5178375	7.9391174
1493784760569	-0.94755554	5.506592	8.03125
1493784760588	-0.9672394	5.495941	8.128906
1493784760609	-0.9780731	5.4533386	8.221664
1493784760628	-0.9513855	5.431656	8.196167
1493784760648	-1.0188599	5.366562	8.317581
1493784760668	-0.9747925	5.382492	8.450714
1493784760687	-0.97276306	5.4040375	8.430145
1493784760708	-0.9897156	5.391205	8.218979
1493784760727	-0.9697418	5.377289	8.183884
1493784760747	-0.8783722	5.342804	8.180817
1493784760767	-0.9081726	5.342499	8.1210785
1493784760787	-0.9662323	5.4202576	8.013184
1493784760807	-0.9731293	5.4469757	8.088501
1493784760826	-0.91825867	5.420349	8.103027
1493784760846	-0.9233856	5.3818817	8.111664
1493784760866	-0.9532318	5.3693085	8.143951
1493784760886	-0.9477539	5.3671722	8.221039
1493784760905	-0.8794861	5.4441376	8.164398
1493784760925	-0.8105011	5.5028534	8.166016
1493784760945	-0.8067169	5.498871	8.165085
1493784760965	-0.81495667	5.5030365	8.10408
1493784760985	-0.81666565	5.490738	8.102142
1493784761004	-0.85346985	5.488083	8.171127
1493784761024	-0.86434937	5.4941254	8.106979
1493784761043	-0.8656006	5.516403	8.00975
1493784761064	-0.83187866	5.542389	8.062683
1493784761084	-0.8384094	5.551346	8.087982
1493784761103	-0.86535645	5.545517	8.063461
1493784761123	-0.88131714	5.5574493	8.076782
1493784761143	-0.89727783	5.621338	8.027863
1493784761163	-0.85975647	5.6592255	8.002121
1493784761183	-0.848053	5.6664886	8.124847
1493784761203	-0.8741913	5.643219	8.034378
1493784761222	-0.824646	5.598297	8.03418
1493784761242	-0.78282166	5.5800323	8.105896
1493784761262	-0.7254486	5.5972137	8.066681
1493784761282	-0.72224426	5.6186523	7.991913
1493784761301	-0.70318604	5.647476	7.7431946
1493784761322	-0.6806946	5.6089478	7.826584
1493784761341	-0.6186676	5.593384	7.893112
1493784761361	-0.71461487	5.611862	7.8646393
1493784761381	-0.78370667	5.628296	7.7958527
1493784761400	-0.78686523	5.7019043	7.7254333
1493784761420	-0.83247375	5.7365723	7.697296
1493784761440	-0.80345154	5.7012787	7.8013153
1493784761460	-0.77674866	5.7098846	7.843048
1493784761480	-0.81459045	5.716156	7.8571777
1493784761499	-0.73983765	5.7695007	7.8782043
1493784761520	-0.7378845	5.751526	7.810852
1493784761539	-0.76535034	5.7748566	7.7743225
1493784761559	-0.8105316	5.8060913	7.8325653
1493784761584	-0.82136536	5.8609924	8.010345
1493784761619	-0.87101746	5.805252	8.075195
1493784761638	-0.8549347	5.824005	7.9980164
1493784761658	-0.8594055	5.8342743	7.857193
1493784761678	-0.85272217	5.7986298	7.943283
1493784761697	-0.8157196	5.772003	7.8856964
1493784761717	-0.80140686	5.7245483	7.8433685
1493784761737	-0.7963867	5.7723083	7.8691254
1493784761757	-0.8417969	5.7111206	7.754608
1493784761777	-0.81307983	5.7817535	7.8534546
1493784761796	-0.7878876	5.7312164	7.7864532
1493784761817	-0.77389526	5.7452087	7.7638855
1493784761836	-0.7667389	5.7443085	7.8535004
1493784761856	-0.7440796	5.7394714	7.91481
1493784761876	-0.7815094	5.725754	7.8797455
1493784761896	-0.7983856	5.709778	7.861786
1493784761916	-0.7826233	5.7798767	7.752472
1493784761936	-0.74990845	5.794403	7.709015
1493784761956	-0.74432373	5.7488403	7.6055145
1493784761975	-0.7556	5.7111816	7.7061462
1493784761995	-0.81300354	5.7284546	7.846634
1493784762015	-0.91789246	5.738144	7.932968
1493784762034	-0.9483948	5.74588	7.898117
1493784762053	-0.9220276	5.7695007	7.888321
1493784762074	-0.9190979	5.8011017	7.944153
1493784762097	-0.89779663	5.778885	7.961334
1493784762130	-0.89801025	5.765976	8.024673
1493784762144	-0.92900085	5.7775726	7.9297943
1493784762154	-0.9121094	5.773041	7.9132996
1493784762173	-0.8852234	5.7556458	7.993454
1493784762193	-0.88768005	5.7455597	7.9909515
1493784762213	-0.9167175	5.7539825	7.971573
1493784762232	-0.9017334	5.7358246	7.971039
1493784762252	-0.85713196	5.7096405	7.8932953
1493784762272	-0.82569885	5.699753	7.881302
1493784762292	-0.8215027	5.67955	7.9192657
1493784762311	-0.8420563	5.6756134	7.9730988
1493784762331	-0.8369751	5.682724	7.96579
1493784762351	-0.83973694	5.7314606	7.83844
1493784762371	-0.8369446	5.7540283	7.8527374
1493784762391	-0.88623047	5.7728424	7.8515015
1493784762411	-0.86964417	5.773346	7.8447113
1493784762431	-0.8917999	5.7740173	7.8812714
1493784762450	-0.8977356	5.7405853	7.9008484
1493784762472	-0.8929138	5.7434998	7.9105377
1493784762490	-0.87872314	5.7020264	7.8243713
1493784762509	-0.903656	5.7043	7.866699
1493784762530	-0.8709259	5.735611	7.83284
1493784762549	-0.80833435	5.8016663	7.831192
1493784762570	-0.78952026	5.762451	7.809433
1493784762589	-0.81585693	5.694626	7.801651
1493784762609	-0.8110504	5.7209625	7.7635956
1493784762629	-0.8240814	5.777878	7.7646027
1493784762649	-0.9080963	5.7583923	7.78862
1493784762669	-0.87220764	5.8293304	7.923889
1493784762688	-0.84495544	5.835861	7.8783264
1493784762708	-0.81658936	5.771988	7.899002
1493784762728	-0.8256531	5.7621155	7.835739
1493784762747	-0.79862976	5.766464	7.9703827
1493784762767	-0.7930298	5.813431	8.014801
1493784762806	-0.7786102	5.7833405	7.8964844
1493784762826	-0.74438477	5.8191376	7.906601
1493784762846	-0.8357086	5.829483	7.79628
1493784762866	-0.83602905	5.8552094	7.8535156
1493784762886	-0.88500977	5.819763	7.775543
1493784762906	-0.91023254	5.8004	7.9159546
1493784762925	-0.9370117	5.829422	7.9442444
1493784762945	-0.88920593	5.8188934	7.9113007
1493784762965	-0.9149933	5.840225	7.817627
1493784762985	-0.91067505	5.870819	7.8691864
1493784763005	-0.8554077	5.8865814	7.8650208
1493784763025	-0.82540894	5.9007874	7.644058
1493784763044	-0.8829193	5.8364563	7.761139
1493784763064	-0.86416626	5.804474	7.8263397
1493784763084	-0.7975311	5.7751465	7.8559875
1493784763104	-0.7817993	5.7605896	7.8383636
1493784763124	-0.796463	5.754486	7.808914
1493784763144	-0.75260925	5.778305	7.8596497
1493784763164	-0.73139954	5.789627	7.8233185
1493784763184	-0.8078308	5.7813416	7.7716675
1493784763204	-0.8734436	5.8483734	7.744217
1493784763223	-0.9479828	5.8090973	7.728958
