accelerometer_timestamp accelerometer_x_data  accelerometer_y_data  accelerometer_z_data
1493837846940 -2.195053 4.108551  9.211243
1493837846940 -2.3647003  4.0804596 9.3854065
1493837846943 -2.3591766  4.1177216 8.512543
1493837846943 -2.3308716  4.0549774 8.501465
1493837846964 -2.40477  4.048004  8.462891
1493837846983 -2.5691986  4.1242676 8.538208
1493837847003 -2.5741272  4.1131744 8.921829
1493837847022 -2.724228 4.004822  9.057465
1493837847043 -2.644104 3.939743  8.703918
1493837847062 -2.4013977  4.0935974 8.318115
1493837847082 -2.4734497  4.0576935 8.356659
1493837847101 -2.4730988  3.9738312 8.571625
1493837847121 -2.7743225  4.1272125 8.6017
1493837847141 -3.453003 4.1174927 9.007202
1493837847160 -2.9331055  3.7954407 9.482758
1493837847180 -1.4360657  3.8914948 9.053864
1493837847200 -1.2238159  4.4222717 8.388275
1493837847220 -1.6121826  4.7158203 7.7838287
1493837847239 -2.5931702  4.1384125 6.8460693
1493837847259 -3.5151062  1.1102448 7.5775757
1493837847279 0.47288513  2.7712402 11.811066
1493837847299 2.7898712 3.7067108 11.749313
1493837847318 -2.4126434  2.7411804 7.4342346
1493837847338 -4.918869 2.9650726 8.4729
1493837847358 -0.5078888  2.8905792 7.638138
1493837847378 -0.431015 3.8963623 8.29216
1493837847397 -1.2961578  2.9709778 9.822128
1493837847417 -0.24085999 2.708725  10.675461
1493837847437 -1.3495636  3.332779  14.654785
1493837847457 -2.7555847  0.64323425  12.996918
1493837847476 -1.0709686  2.3438873 10.403824
1493837847496 -1.6994019  1.5202637 10.118149
1493837847516 2.1511536 2.8755493 7.810486
1493837847536 1.1804047 4.9678345 6.0080414
1493837847555 0.07685852  4.1694946 8.049622
1493837847575 -1.3682404  3.657425  10.428253
1493837847595 -3.4251099  2.6449127 8.394745
1493837847634 -4.2380524  2.3483734 8.158142
1493837847654 -1.6211853  3.8519745 9.580032
1493837847674 -1.905426 3.4386902 8.823975
1493837847712 -1.1171417  4.6554565 7.955429
1493837847714 -0.5765381  3.8791199 6.0566406
1493837847757 -1.4341888  2.4217072 8.495056
1493837847757 1.2740021 2.693222  9.382645
1493837847772 1.9390564 2.5149536 7.640396
1493837847792 0.019378662 2.8053436 11.972565
1493837847812 0.42767334  1.6608734 8.782486
1493837847832 1.0041656 2.8701782 8.5607605
1493837847851 1.4094238 1.7211456 7.405838
1493837847871 2.6637115 1.651535  5.3021393
1493837847891 2.9354706 1.2662354 3.6968079
1493837847911 2.520462  -0.14460754 2.5507202
1493837847932 2.2571564 -1.6727753  2.3071136
1493837847950 3.0497894 -1.4892578  4.1206665
1493837847970 4.058838  -1.8421478  6.011505
1493837847989 5.380066  -2.216034 7.0211334
1493837848009 6.957321  -1.0701599  5.321945
1493837848029 5.4856567 -2.7197876  7.026352
1493837848049 1.8993988 -5.4981384  7.904129
1493837848068 -0.027893066  -6.2881165  3.2436829
1493837848088 4.6718445 -3.928833 2.9842682
1493837848108 10.508392 -3.0465546  7.346985
1493837848128 8.914139  -6.203232 14.584686
1493837848147 4.3414307 -7.9296875  18.691055
1493837848167 2.3071594 -9.184586 12.678223
1493837848187 3.7477722 -11.236603  4.487274
1493837848207 10.648972 -12.156708  2.68161
1493837848228 17.537033 -8.543655 11.740723
1493837848246 19.461044 -3.1454468  18.450394
1493837848266 19.461044 -1.3934326  11.4522705
1493837848285 19.461044 0.15065002  1.3064728
1493837848305 19.461044 1.5283966 -4.725174
1493837848325 19.461044 1.2183533 -6.8462067
1493837848345 16.698013 -0.31784058 -8.673309
1493837848364 8.9431  -3.4028168  -12.023224
1493837848384 7.5343018 -3.5821838  -4.6984253
1493837848404 6.237671  -2.7950592  -0.7359619
1493837848424 3.8095245 -3.4275513  0.69989014
1493837848443 6.790741  -1.0601501  -0.117385864
1493837848463 10.954315 0.94140625  1.56781
1493837848483 6.3739166 -1.038208 9.305954
1493837848503 6.1555786 -3.2299652  0.5839844
1493837848522 5.6291046 -6.6854706  -0.15965271
1493837848542 1.976532  -9.38562  -1.030838
1493837848562 4.2665863 -6.6992035  -2.1946259
1493837848582 4.3677063 -4.9965057  -3.0591736
1493837848621 6.4634857 -3.8583984  -2.2677612
1493837848641 3.6148376 -5.15007  -3.7778473
1493837848661 -0.8160095  -11.142578  -2.068756
1493837848681 13.95784  -3.103714 -5.4596252
1493837848700 18.81195  -3.3975525  3.8140106
1493837848720 11.236053 -7.670227 -0.3276062
1493837848739 6.363495  -11.219391  -1.1834564
1493837848759 6.976822  -5.7950287  -2.9299774
1493837848779 4.4575195 -6.528595 -1.3175049
1493837848799 4.148224  -8.831543 -0.82377625
1493837848818 6.8113403 -9.258606 0.06765747
1493837848838 8.574265  -5.383774 -1.6661377
1493837848858 6.1940002 -3.8216248  -1.76651
1493837848878 6.0578766 -5.5988007  -1.5249329
1493837848897 6.7385406 -10.187088  -3.5832672
1493837848917 6.824875  -8.451981 -2.5030365
1493837848937 6.5059204 -6.806305 -1.0282593
1493837848957 6.0417175 -6.681381 -0.75956726
1493837848976 5.5308533 -7.1777344  -0.54278564
1493837848996 6.9588623 -7.615158 -1.1130524
1493837849016 5.8808594 -10.23822 -0.5147705
1493837849036 1.7690582 -10.955872  0.83177185
1493837849055 -1.1007996  -0.2090149  -0.33665466
1493837849075 -0.7127838  -1.2034302  -0.8262024
1493837849095 5.262665  -10.217972  0.80293274
1493837849114 4.7653656 -7.8439636  0.089767456
1493837849135 2.100006  -8.239212 -0.46492004
1493837849154 0.07444763  -7.0332947  0.12226868
1493837849174 2.0901794 -10.542572  2.3380737
1493837849193 3.3587341 -13.316223  1.1977234
1493837849213 1.8965454 -12.419891  -1.2210236
1493837849233 1.1076965 -11.160873  -0.37254333
1493837849253 1.0769653 -7.0713654  0.052505493
1493837849272 0.84910583  -3.115509 -0.1894226
1493837849292 -1.8006134  -6.1329956  -1.3979492
1493837849312 -3.5354462  -7.4612427  -2.005722
1493837849332 -4.536438 -7.88945  -0.21250916
1493837849351 -2.93396  -12.0242  -1.6970978
1493837849371 -3.3312836  -18.118744  -3.2615662
1493837849391 -1.1123657  -19.474823  -3.4477386
1493837849411 1.1723785 -15.944382  0.13793945
1493837849430 2.5226288 -12.41568 -0.17175293
1493837849450 -1.0738373  -11.384613  -0.6708374
1493837849470 -4.3647003  -10.497025  0.16365051
1493837849489 -1.5731964  -9.518326 0.1262207
1493837849509 0.09906006  -8.585449 -2.5805054
1493837849529 -0.6713104  -8.421158 -0.8598175
1493837849549 -3.0393372  -9.149139 -1.4503632
1493837849568 -3.4947357  -9.142059 -2.2626038
1493837849608 -3.2835236  -9.10936  -2.342331
1493837849628 -1.829773 -8.938919 -2.1439514
1493837849647 -1.2837982  -9.004349 -2.2148285
1493837849667 -1.0678711  -8.942688 -2.0357208
1493837849687 -1.2225952  -9.166565 -3.0458221
1493837849707 -1.3674469  -8.933609 -3.8947296
1493837849726 -1.9191742  -8.460327 -4.0920563
1493837849746 -2.2647552  -8.02179  -3.573471
1493837849766 -1.654892 -7.6940765  -2.3341675
1493837849786 -0.73394775 -7.0689545  -2.6907196
1493837849805 -1.4234161  -7.03714  -4.3257904
1493837849825 -2.0233917  -7.6804504  -5.4957733
1493837849845 -0.9411621  -8.478012 -6.071274
1493837849865 0.59695435  -9.092514 -6.6067963
1493837849884 1.1871033 -9.258591 -8.048737
1493837849904 1.0189819 -10.328308  -8.5737915
1493837849924 1.3302307 -12.204071  -6.1667023
1493837849944 0.40950012  -11.341019  -0.33018494
1493837849963 -3.7258606  -6.4993744  4.758972
1493837849983 -7.970978 -4.864868 -1.0339355
1493837850003 -6.7972565  -7.8322754  -0.28970337
1493837850022 -2.101944 -10.2582855 3.3189697
1493837850042 0.27453613  -11.44014 2.2572021
1493837850062 1.283783  -12.606888  0.8163605
1493837850082 2.8038025 -12.509857  1.0195618
1493837850102 3.78714 -11.288208  1.1219177
1493837850121 3.0609894 -9.966232 0.93322754
1493837850141 1.5050507 -9.247116 0.35339355
1493837850161 0.3559723 -9.162857 0.106903076
1493837850181 -0.52246094 -9.27002  0.17272949
1493837850200 -0.94776917 -9.135742 0.3008423
1493837850220 -1.0673828  -8.797791 -0.23344421
1493837850240 -0.8565216  -8.736252 -0.7065735
1493837850259 -0.2551422  -9.075394 -0.13999939
1493837850279 0.43614197  -9.418121 -0.448761
1493837850299 -0.007293701  -9.773193 -0.027542114
1493837850319 -0.6523285  -9.571671 4.3434296
1493837850338 -0.66703796 -9.298248 4.9193726
1493837850359 0.15472412  -9.653015 0.5395508
1493837850378 0.70584106  -10.6835785 -2.1099548
1493837850398 0.03933716  -11.856476  -0.30545044
1493837850417 -0.7431488  -12.751877  0.660614
1493837850437 -0.53530884 -12.389786  -0.74098206
1493837850457 0.09486389  -10.992706  -0.98731995
1493837850477 -0.3655243  -10.844025  -0.5828247
1493837850496 -0.33078003 -12.860306  0.9925537
1493837850516 -9.765625E-4  -14.329208  3.9337158
1493837850536 -1.3861389  -13.779358  2.701416
1493837850556 -4.0556183  -12.273865  -1.257431
1493837850595 -5.391266 -11.339661  -3.4671478
1493837850615 -5.292755 -11.399063  -2.1905518
1493837850635 -3.650589 -10.885025  1.3391113
1493837850654 -3.0403442  -10.109573  4.2970734
1493837850674 -3.841629 -9.891876 4.1009064
1493837850694 -4.7697296  -10.33252 3.8629913
1493837850713 -4.4539185  -11.076508  2.7215881
1493837850733 -3.6531525  -11.070099  2.0412292
1493837850753 -2.8910675  -10.151306  1.9582825
1493837850773 -2.3545837  -9.320999 2.4019775
1493837850792 -2.4716797  -9.136047 2.5772858
1493837850813 -3.1052704  -9.576675 2.2552338
1493837850832 -3.337738 -9.411804 1.9062195
1493837850852 -2.9081268  -8.803574 1.2086334
1493837850871 -2.5887604  -8.260529 0.9040375
1493837850891 -2.4322968  -7.644989 1.4562073
1493837850911 -2.5816345  -7.037323 2.0116425
1493837850931 -2.2677307  -6.6956787  1.9263763
1493837850950 -1.6183319  -7.0276184  0.8635864
1493837850970 -0.66789246 -7.8968964  -0.88586426
1493837850990 0.27009583  -8.932587 -3.3482666
1493837851010 0.21199036  -9.395584 -5.6089783
1493837851029 -0.27166748 -9.156967 -5.749176
1493837851049 -0.6031189  -8.866989 -4.4887085
1493837851069 -1.3330231  -8.946243 -3.8074646
1493837851088 -1.8666534  -9.221039 -3.8797913
1493837851108 -1.8691406  -9.06842  -4.354416
1493837851128 -1.8740387  -8.531418 -4.8512115
1493837851148 -1.7379761  -7.937454 -5.1210327
1493837851167 -1.6264801  -7.4527435  -4.976166
1493837851187 -1.5253296  -7.185089 -4.6574554
1493837851207 -1.3308868  -7.161545 -4.297058
1493837851226 -1.1189575  -7.1298676  -4.0530853
1493837851246 -0.7878113  -7.1394806  -4.073166
1493837851266 -0.63087463 -7.5191345  -4.6433716
1493837851286 -0.24819946 -7.7878876  -4.816345
1493837851305 0.16854858  -7.328964 -3.5480347
1493837851325 -0.7554321  -6.612686 -4.0282745
1493837851345 -1.3133698  -5.252899 -3.7705078
1493837851365 -2.8470001  -4.0979614  -1.696518
1493837851384 -8.337158 -13.341629  -13.151001
1493837851404 2.253357  -18.858902  -6.767914
1493837851424 6.8230896 -13.762817  7.548004
1493837851444 1.7548523 -4.9640045  0.5879364
1493837851463 -6.853546 -5.3483276  2.0801392
1493837851483 -9.881775 -9.047287 3.0225677
1493837851503 -6.3733673  -11.077667  2.136917
1493837851522 -2.0449524  -11.171707  4.8875885
1493837851562 0.83140564  -11.430283  3.2842865
1493837851582 2.953949  -10.61409 -0.66864014
1493837851601 1.6438599 -10.847427  0.9581146
1493837851621 0.8652191 -9.847382 1.7387085
1493837851641 -1.0995941  -9.336716 0.5424042
1493837851661 -1.1949005  -8.968475 -0.8964844
1493837851681 -0.20350647 -9.203796 0.28918457
1493837851700 0.53393555  -9.881897 0.42367554
1493837851720 0.96743774  -10.240173  0.1374054
1493837851740 1.2645264 -10.138077  0.7372284
1493837851760 0.8311615 -9.666031 1.0637054
1493837851780 -0.5585327  -9.4839325  1.0226898
1493837851800 -1.8066101  -9.453049 0.81362915
1493837851819 -2.332199 -9.347641 0.6432495
1493837851839 -2.0482788  -9.327438 0.265625
1493837851859 -1.4544678  -9.30925  0.20655823
1493837851879 -0.6781616  -9.319519 0.9828186
1493837851898 -0.08833313 -9.346817 1.6370239
1493837851918 0.21347046  -9.66124  2.1129456
1493837851938 -0.4954071  -10.249329  2.6192627
1493837851957 -2.0373077  -10.711639  2.0972137
1493837851979 -3.2097168  -10.811554  1.9087219
1493837851998 -2.2842712  -10.7977295 2.0449066
1493837852017 -1.1193848  -11.407822  1.772049
1493837852036 -1.6597137  -12.083496  1.5995789
1493837852056 -2.2554169  -12.325623  0.88526917
1493837852076 -1.1906128  -12.201294  -0.2967682
1493837852095 0.87442017  -12.418884  -1.6152039
1493837852115 2.8958282 -13.056717  -1.5834656
1493837852135 3.9640808 -12.994186  -1.3727417
1493837852155 2.6342926 -12.559647  -3.609085
1493837852175 0.7395325 -12.374954  -5.8226624
1493837852194 0.44779968  -12.029785  -3.765091
1493837852214 1.0853119 -11.388199  2.1741486
1493837852234 1.4873962 -11.074478  7.9070587
1493837852253 1.1973724 -11.488098  8.97348
1493837852273 1.4317932 -12.824997  -0.4892578
1493837852293 -0.730072 -14.6514435 -2.5427704
1493837852313 -2.025772 -14.01474 1.2273712
1493837852332 -2.0662384  -11.515106  2.2269287
1493837852352 -1.1633606  -8.942566 0.82714844
1493837852372 0.46600342  -7.064438 0.5810852
1493837852391 0.47998047  -6.4418945  -0.0907135
1493837852411 -1.3075867  -6.0855865  0.2856903
1493837852432 -3.20018  -5.6931458  1.386261
1493837852451 -4.132202 -5.1838074  2.4853363
1493837852473 -3.9249573  -3.638443 2.5766602
1493837852490 -4.8611755  -2.820404 2.8840485
1493837852510 -5.5242004  -3.8596802  0.25978088
1493837852530 -4.335312 -7.301773 -3.6648102
1493837852569 -1.3034973  -11.931244  -14.723663
1493837852589 4.643036  -15.014389  -13.699081
1493837852608 7.9017334 -11.821182  -4.699402
1493837852628 5.8703613 -11.749573  -1.2772522
1493837852648 1.0419006 -16.652252  3.9662476
1493837852668 0.7928314 -14.087692  0.93193054
1493837852687 -1.7417755  -7.1111755  -2.3261719
1493837852710 -4.202652 -3.5419464  7.0329742
1493837852727 -5.410431 -6.9699097  5.1533356
1493837852747 -5.182617 -11.921082  -2.6435394
1493837852766 -3.9834137  -12.588394  1.0310211
1493837852786 -0.9762268  -11.33519 3.899887
1493837852806 2.265564  -10.265808  2.4128723
1493837852826 3.0690765 -9.997467 1.386795
1493837852845 0.9447479 -9.842682 0.6761017
1493837852865 -1.1909943  -9.364975 0.535202
1493837852885 -2.4450378  -8.457062 -0.12528992
1493837852905 -2.8173676  -7.825485 0.0438385
1493837852924 -2.258255 -7.851364 0.20336914
1493837852944 -0.86953735 -8.312073 0.6952362
1493837852964 0.10545349  -8.582489 1.7471619
1493837852983 0.15319824  -8.288864 1.7076416
1493837853003 -0.4663086  -8.107498 0.7758484
1493837853023 -0.45968628 -8.624939 0.32572937
1493837853043 -0.055038452  -9.418304 0.32043457
1493837853063 0.18685913  -10.4092865 0.08332825
1493837853082 0.29464722  -11.431747  -0.306427
1493837853102 0.76005554  -12.018311  -0.9437866
1493837853122 1.9705505 -12.153351  -1.018753
1493837853141 3.3716888 -12.213196  -1.1080475
1493837853161 3.9983368 -12.129166  -2.2107391
1493837853181 3.0881653 -11.418152  -3.5158234
1493837853201 1.2709503 -11.251144  -6.3716125
1493837853220 -0.82273865 -11.285904  -7.179779
1493837853240 -3.551468 -11.98053 -4.258957
1493837853260 -3.2239227  -12.790573  1.2442474
1493837853279 -1.8082428  -13.068924  5.1134644
1493837853299 -3.714737 -15.368774  4.713669
1493837853319 -7.2457275  -18.792145  0.7289429
1493837853339 -8.574554 -19.474823  0.31097412
1493837853358 -6.0851135  -16.691635  -1.0162506
1493837853378 -2.964798 -12.103439  2.4721985
1493837853398 0.668869  -10.019272  1.9585724
1493837853417 2.950058  -8.100723 1.6229553
1493837853437 0.57948303  -6.973648 0.5322876
1493837853457 -2.4905243  -5.431137 0.58810425
1493837853477 -4.6410522  -3.6779327  2.8471222
1493837853496 -4.7039795  -2.5784912  4.7651215
1493837853536 -3.0875397  -0.42131042 4.527191
1493837853556 -0.5280762  2.9521637 5.380554
1493837853576 -0.18933105 1.3753815 3.478424
1493837853595 1.6464691 -4.496277 -2.760666
1493837853615 3.2467194 -13.564774  -19.722397
1493837853635 8.374496  -19.474823  -17.861511
1493837853654 8.294678  -18.642517  -3.8712616
1493837853674 -0.3899536  -13.706207  -5.707123
1493837853694 -9.497604 -14.949326  0.71318054
1493837853714 -3.7813873  -10.633179  10.305313
1493837853734 -7.3202057  -4.479965 -0.7323456
1493837853754 -7.3144684  -2.1612244  11.39003
1493837853773 -7.5770874  -7.374298 13.392563
1493837853793 -5.3803253  -14.791153  5.583023
1493837853813 1.4653778 -14.673172  4.2512817
1493837853833 4.0888977 -12.7716675 3.257965
1493837853852 3.8102112 -11.020935  0.90330505
1493837853872 3.7625427 -10.390793  0.6553345
1493837853891 2.1588898 -8.282074 1.8881989
1493837853911 -1.1776733  -8.077454 2.1773224
1493837853931 -3.7375183  -8.766907 0.5102234
1493837853950 -4.140045 -8.826462 -0.98457336
1493837853970 -3.0826416  -8.43129  -1.3787079
1493837853990 -0.3900299  -8.0755005  -1.5673065
1493837854009 2.173294  -8.470474 -0.43678284
1493837854029 3.2809906 -9.877014 3.2759857
1493837854050 2.9697723 -11.218842  3.688034
1493837854069 2.4542847 -11.567947  -0.4187622
1493837854089 1.738739  -12.299622  -4.1495056
1493837854108 -0.11543274 -12.752258  -3.988327
1493837854128 -1.9541779  -12.44751 -2.7015839
1493837854148 -0.37626648 -12.060028  -1.9565125
1493837854169 3.9628754 -12.278732  -1.7810364
1493837854188 6.0922546 -14.272018  -2.6981049
1493837854207 3.3315735 -17.130157  -3.6723938
1493837854227 -2.4698792  -16.649994  -2.687088
1493837854246 -5.2642517  -14.025284  4.7981567
1493837854266 -7.052826 -13.202301  8.020111
1493837854286 -9.014862 -14.968002  2.9596405
1493837854306 -8.200119 -17.312912  -0.25068665
1493837854325 -4.598999 -16.120972  -0.2736206
1493837854345 -0.8685913  -12.658585  1.5179291
1493837854368 1.5965271 -8.9410095  3.560135
1493837854384 2.2814941 -7.4111633  3.2244415
1493837854404 0.5940094 -5.9040527  1.6293945
1493837854424 -1.6567078  -4.624695 2.2327118
1493837854444 -2.241745 -2.7577057  2.4873505
1493837854463 -3.354309 -1.7080536  3.0054932
1493837854504 -3.714035 -1.9488983  3.0581512
1493837854522 -3.060379 -1.3941193  3.566986
1493837854542 -2.7924652  -0.39001465 10.813065
1493837854562 -1.9904938  -0.7880554  6.2368164
1493837854582 -1.6785126  -5.375412 -2.991272
1493837854601 3.2126617 -12.800827  -19.722397
1493837854621 4.408951  -19.474823  -17.726044
1493837854642 5.2194977 -18.499664  -4.183075
1493837854661 1.6086121 -11.30101 -4.9702606
1493837854680 -1.2998962  -4.898834 -7.6542053
1493837854700 -8.184418 -11.919098  -2.7641144
1493837854720 -5.8531494  -13.711746  5.322174
1493837854740 -1.9919586  -10.391296  1.996109
1493837854759 -1.7393951  -7.21875  8.289703
1493837854779 -3.5741882  -7.2578278  6.6251984
1493837854799 -2.0517426  -8.328781 2.9752045
1493837854819 1.6667023 -9.9028015  2.0144653
1493837854838 3.6532135 -12.0395355 0.032302856
1493837854858 3.3748474 -14.046524  0.8299866
1493837854878 2.1440735 -13.672546  0.6621094
1493837854898 -0.5709686  -9.796478 -0.48999023
1493837854917 -3.2533722  -6.1288147  -1.0845032
1493837854937 -4.590271 -4.941101 -0.970871
1493837854957 -3.6781769  -7.0687866  -1.0070496
1493837854976 -1.0123596  -9.694977 -0.012039185
1493837854996 0.7219391 -9.698746 0.8981781
1493837855016 0.68685913  -7.688141 -0.52560425
1493837855036 0.30812073  -5.2684174  -0.64027405
1493837855055 0.15496826  -5.7194977  -1.8028259
1493837855075 -0.016906738  -9.465286 -3.7886353
1493837855095 -1.6651459  -12.242386  -3.5122528
1493837855115 -2.3975372  -11.2044525 -2.94458
1493837855135 -0.60939026 -8.931671 -4.5562897
1493837855154 1.2967072 -8.191147 -5.302582
1493837855174 2.2972412 -8.949905 -5.7447205
1493837855194 1.780838  -10.03154 -7.1555634
1493837855213 3.3672028 -10.368668  -6.9042206
1493837855234 4.1504517 -11.965897  -6.2164764
1493837855253 2.7375488 -14.328903  2.0794525
1493837855272 0.9782257 -14.934586  6.9125214
1493837855292 -1.9358368  -15.353149  1.9132996
1493837855312 -3.7873688  -15.847137  -6.3946075
1493837855333 -0.51338196 -14.891693  0.50942993
1493837855352 -0.5183258  -13.268845  0.014694214
1493837855371 -2.2666473  -10.976257  -2.4541626
1493837855391 -1.7190552  -7.818863 -0.7079468
1493837855411 -0.24821472 -4.2274933  -0.5432434
1493837855430 0.17607117  -1.3244324  -0.5372772
1493837855470 -0.87924194 -0.9260864  0.43881226
1493837855489 -2.6461487  -1.413559 2.796646
1493837855509 -3.901184 -1.678421 4.0403595
1493837855529 -3.7963562  -2.318695 3.5646515
1493837855549 -2.417862 -4.894165 0.31420898
1493837855568 -1.8654938  -10.504578  -8.968826
1493837855588 0.046966553 -19.474823  -18.626846
1493837855608 1.8802185 -18.767029  -10.365982
1493837855627 0.025909424 -13.432678  -6.532181
1493837855647 -1.1244812  -7.4632416  -11.746292
1493837855667 -0.62168884 -9.053558 -8.599716
1493837855686 0.59832764  -11.038574  19.277008
1493837855706 -4.6801453  -15.082565  15.582428
1493837855726 -8.585373 -19.066864  1.538269
1493837855746 -4.408966 -14.556946  -3.0906677
1493837855765 -2.387268 -5.58136  8.171768
1493837855785 2.1853638 -5.7387543  11.113632
1493837855805 4.901001  -12.282684  4.564377
1493837855825 4.7763214 -17.404999  0.06907654
1493837855844 1.7927551 -13.869827  0.83551025
1493837855864 -2.104889 -8.675217 0.36775208
1493837855884 -4.8912354  -5.442642 -0.6634979
1493837855904 -4.4672546  -3.4193878  -1.6728058
1493837855923 -2.967514 -4.945282 -3.006958
1493837855943 0.3250885 -10.057251  -1.0643005
1493837855963 3.3097992 -13.50705 1.6689911
1493837855983 1.570221  -11.499832  -0.17137146
1493837856003 -1.2347717  -9.151627 -0.9620209
1493837856024 -2.0047913  -11.212738  -0.5483246
1493837856047 -0.95703125 -13.198898  -1.7434845
1493837856067 2.0706482 -12.971512  -1.420166
1493837856086 5.7649994 -12.627197  -1.7219849
1493837856110 7.6494293 -14.258575  -2.815094
1493837856128 6.4914246 -16.667679  -4.4350433
1493837856147 2.1073608 -17.44455 -4.168335
1493837856167 -2.9127502  -15.282227  0.7154236
1493837856184 -7.2438965  -14.12056 7.4769897
1493837856206 -11.647369  -15.133636  6.1413727
1493837856226 -13.018036  -17.554443  2.3551025
1493837856245 -10.105698  -17.676208  2.1874542
1493837856265 -4.7997284  -14.112045  1.1822815
1493837856286 -1.3695831  -9.942413 3.025528
1493837856304 2.4107819 -6.2770233  5.4177094
1493837856321 4.2976227 -4.9760437  2.54039
1493837856344 2.630951  -5.1807556  0.14030457
1493837856364 0.016693115 -5.7231903  0.7885132
1493837856383 -1.516922 -4.43071  2.6875763
1493837856403 -3.0288239  -2.960312 3.5872192
1493837856423 -3.442627 -2.1385498  4.399521
1493837856443 -2.132187 -0.8632202  4.5533905
1493837856480 -1.0850525  0.38813782  4.81398
1493837856498 -1.0341492  -0.82785034 3.6717682
1493837856518 -0.38772583 -5.174469 -2.0724945
1493837856539 0.7721405 -12.734299  -19.722397
1493837856559 4.790909  -19.474823  -17.790833
1493837856579 6.116913  -18.375763  -3.5127716
1493837856599 3.5896912 -9.63147  -4.7583313
1493837856618 1.2156067 0.5984192 -3.3651123
1493837856637 -6.0677643  -3.8797455  7.766571
1493837856655 -10.805328  -17.113815  7.758316
1493837856676 -7.3003387  -17.312302  -11.395355
1493837856694 -2.8745422  -9.383835 13.269394
1493837856714 -2.8833008  -4.987671 16.084213
1493837856735 -2.962387 -6.0933533  8.4839325
1493837856756 -2.6580505  -9.99791  2.742813
1493837856776 -0.41275024 -13.038101  1.6534576
1493837856794 2.8970032 -14.700531  -0.42503357
1493837856815 6.189209  -13.673447  0.6918793
1493837856835 4.1020813 -9.27449  2.0463562
1493837856854 -0.30303955 -6.58403  1.4342346
1493837856875 -4.059387 -6.0383606  0.1962738
1493837856894 -5.2637024  -6.3454742  -0.46420288
1493837856911 -4.0284576  -6.714905 -0.8943176
1493837856934 -2.0158691  -7.376816 -0.31185913
1493837856953 0.77015686  -8.7969055  1.4369202
1493837856973 2.557312  -10.435852  1.4384308
1493837856993 2.1006927 -11.079041  0.31518555
1493837857014 0.6783905 -11.440933  0.019561768
1493837857032 -0.5745697  -12.936981  -0.47880554
1493837857051 -0.8382416  -13.438538  -1.3404388
1493837857073 1.9891357 -13.15712 -1.6811066
1493837857091 5.0424347 -12.794586  -0.34170532
1493837857112 3.2063446 -12.76683 -2.6357117
1493837857133 1.9229279 -14.150253  -4.670273
1493837857152 3.909195  -15.499878  -4.5226593
1493837857171 1.761673  -16.645721  -5.4826508
1493837857195 -2.0919495  -15.535767  1.2474823
1493837857208 -4.347397 -13.810089  10.187683
1493837857228 -10.210709  -14.3506775 4.228714
1493837857248 -11.344406  -16.387909  0.19012451
1493837857267 -9.722656 -16.946136  1.3171387
1493837857287 -4.3655243  -13.692688  1.3520355
1493837857307 -0.002746582  -10.099564  3.1983948
1493837857328 3.4937744 -7.416046 4.479767
1493837857348 3.8177338 -5.984726 2.191269
1493837857368 1.5763092 -5.1724854  0.33833313
1493837857408 -1.3517914  -4.6578674  1.8381653
1493837857427 -2.7927246  -3.2756653  2.8308563
1493837857446 -3.6869812  -2.063034 3.7384033
1493837857464 -3.6558075  -1.1860809  4.4087677
1493837857485 -2.6126404  0.32551575  4.7695007
1493837857506 -1.6342163  0.58461 4.754608
1493837857523 -1.1440887  -2.4265747  2.4269104
1493837857544 0.22479248  -8.621109 -8.435013
1493837857561 5.4385986 -19.474823  -18.620407
1493837857581 4.4286194 -19.474823  -11.650574
1493837857600 4.112915  -16.685349  -5.096527
1493837857620 1.4244232 -4.6026764  -5.8485413
1493837857640 -1.2115631  1.3398438 -0.20954895
1493837857660 -9.205887 -5.98407  10.847321
1493837857679 -9.966492 -16.438293  2.778061
1493837857699 -4.571213 -17.579514  -8.956268
1493837857719 -1.8753052  -11.643463  13.005554
1493837857738 -2.621399 -7.241379 13.226624
1493837857758 -1.8149567  -7.0794983  9.513199
1493837857778 -0.5476837  -8.844315 3.6907806
1493837857798 1.6371613 -11.101013  0.5441742
1493837857817 3.9251404 -13.232422  0.48916626
1493837857837 4.729599  -12.459717  0.7620697
1493837857856 1.6409302 -9.298874 0.52983093
1493837857876 -2.319275 -7.1011353  0.4881897
1493837857896 -5.1102753  -6.8815613  -0.858551
1493837857916 -5.012787 -7.554199 -1.0136566
1493837857937 -1.5578308  -7.9111786  -0.49206543
1493837857955 1.8063507 -8.365723 -1.0781403
1493837857975 2.5292969 -9.271179 -0.18022156
1493837857995 1.9092102 -9.719147 2.6963196
1493837858016 1.0843964 -10.170975  3.0420837
1493837858038 0.61325073  -11.159592  0.173172
1493837858057 -0.7942505  -12.540573  -2.7902527
1493837858077 -3.3146667  -12.222061  -3.5817566
1493837858096 -2.8990173  -12.1562805 -1.5885773
1493837858117 1.2475433 -12.460007  0.8222656
1493837858138 4.855057  -13.42804 -1.5673981
1493837858159 7.2064667 -15.916367  -2.2900543
1493837858179 8.043579  -17.236359  -2.0661774
1493837858196 1.569519  -17.837448  -1.8079681
1493837858216 -3.6500244  -15.394241  1.738739
1493837858251 -7.4055176  -14.292694  7.939911
1493837858253 -10.626007  -14.217453  4.990036
1493837858273 -10.812088  -16.114609  2.4286957
1493837858291 -7.127899 -14.958847  0.54330444
1493837858316 -2.5565186  -11.721588  1.1179657
1493837858331 0.69955444  -8.791718 4.6234436
1493837858370 4.370056  -7.189377 3.265396
1493837858389 1.4655457 -6.80809  1.9486694
1493837858410 -0.7846832  -5.2705994  0.736145
1493837858428 -3.265335 -4.448807 2.6081085
1493837858448 -4.0612793  -3.3497772  3.7810059
1493837858468 -4.4671173  -2.5135345  4.219391
1493837858489 -3.5473175  -1.085556 4.3118286
1493837858508 -2.6122437  0.4086914 4.3307953
1493837858528 -2.1573334  0.28044128  3.7115784
1493837858547 -1.1850128  -2.6193542  -1.1428986
1493837858567 0.73065186  -9.700638 -13.864166
1493837858587 5.3243256 -19.474823  -17.434082
1493837858606 7.266464  -19.474823  -9.392166
1493837858629 4.8556366 -15.56958 -5.6983795
1493837858646 3.0638885 -3.3506317  -3.4020386
1493837858666 -0.47406006 -1.7207031  3.8029327
1493837858685 -10.029358  -14.05365 8.902634
1493837858705 -8.930008 -17.55243 2.354538
1493837858725 -5.123581 -12.091202  0.92381287
1493837858744 -5.0625916  -7.4827576  14.001526
1493837858764 -4.6178284  -6.8917236  12.712219
1493837858784 -2.5176086  -8.402191 6.6943207
1493837858804 -0.17929077 -9.947922 2.9226227
1493837858823 2.1799622 -12.310852  0.7730713
1493837858843 5.610489  -13.683624  0.6351776
1493837858863 5.204544  -11.681931  0.19717407
1493837858883 0.5226898 -8.52066  0.6399689
1493837858902 -3.4831543  -7.144806 1.4454498
1493837858922 -6.0521545  -7.3945313  -0.17332458
1493837858942 -5.102829 -8.219315 -0.5876007
1493837858961 -1.181427 -8.468185 -0.28926086
1493837858981 2.0735016 -8.292404 -1.6502533
1493837859002 3.0253448 -8.632675 -0.6438141
1493837859021 2.506012  -9.47168  4.40477
1493837859040 2.0905762 -9.791641 2.9406738
1493837859060 1.7522125 -10.21553 -1.1818695
1493837859080 -0.59436035 -11.608322  -2.4885864
1493837859100 -4.2304077  -11.786163  -1.0783844
1493837859119 -3.631607 -12.086792  -0.20327759
1493837859139 2.2871094 -12.891968  0.7755127
1493837859159 4.784973  -13.215607  -3.3478851
1493837859178 4.2682343 -14.913864  -4.143097
1493837859198 6.463669  -16.437164  -1.1269989
1493837859218 2.9058075 -17.23648 -5.903778
1493837859238 -3.0406952  -15.404419  -1.9416656
1493837859257 -3.5756683  -13.749573  8.99263
1493837859277 -6.551773 -13.348663  6.459503
1493837859317 -8.9570465  -14.857437  3.526184
1493837859336 -9.464539 -16.567627  -0.3721466
1493837859356 -6.4675293  -14.082642  -0.14904785
1493837859376 -2.1209717  -10.450165  1.1585541
1493837859396 1.4725952 -7.985779 4.590378
1493837859415 3.3896484 -7.038727 3.7872925
1493837859436 1.4477844 -6.211029 2.5665436
1493837859455 -0.40396118 -5.143173 1.8449249
1493837859475 -2.7085724  -4.3410645  2.7670135
1493837859500 -4.323349 -3.2559814  3.384842
1493837859514 -4.6282806  -1.8444672  4.0757294
1493837859534 -3.7009277  0.26541138  4.322586
1493837859554 -3.0529785  1.5004425 4.56868
1493837859573 -2.1716766  -0.38313293 3.207138
1493837859593 -0.09365845 -5.116379 -4.640808
1493837859613 0.64634705  -12.910873  -15.917511
1493837859632 3.9885712 -19.474823  -13.980759
1493837859652 8.013367  -19.075653  -4.127884
1493837859672 4.1091614 -13.145828  -6.886963
1493837859692 0.5363617 -4.2881317  -3.4446106
1493837859711 -3.4295044  -7.274582 6.352524
1493837859731 -4.8654175  -15.452484  2.3540802
1493837859751 -5.007889 -15.041946  -2.6912231
1493837859771 -5.969742 -6.8411407  8.286285
1493837859790 -6.620407 -3.6317596  14.812378
1493837859810 -5.45636  -6.551239 9.124008
1493837859830 -3.8934174  -10.512619  2.432129
1493837859850 -1.0881653  -12.573929  0.9827728
1493837859869 4.149399  -13.924088  0.56417847
1493837859889 8.125824  -12.653656  1.0046539
1493837859909 5.3851776 -9.468887 1.2510986
1493837859928 0.014663696 -7.4795227  1.587738
1493837859948 -4.039963 -6.946686 0.90864563
1493837859968 -6.002121 -7.0691833  -0.7992859
1493837859987 -4.6019287  -7.691086 -0.49620056
1493837860007 -1.5151825  -8.4431 -0.16223145
1493837860027 1.1854553 -9.185379 0.33200073
1493837860047 2.0471344 -10.195404  2.4019165
1493837860066 1.7623138 -10.5215  2.5437927
1493837860086 1.3354645 -10.204514  -0.19081116
1493837860106 0.49900818  -11.365997  -3.2858734
1493837860126 -2.0391083  -12.506317  -3.5945587
1493837860145 -3.807846 -12.222794  -1.6905365
1493837860165 0.59402466  -12.544937  0.3481903
1493837860188 5.603958  -13.17778 -1.0801544
1493837860205 6.6093445 -15.592575  -1.9651794
1493837860225 6.0754547 -16.737564  -4.8066406
1493837860244 -0.7620392  -17.896729  -5.5367737
1493837860283 -4.05896  -15.290283  2.822464
1493837860303 -4.3920746  -13.119293  9.605515
1493837860323 -8.566452 -13.533005  4.172638
1493837860342 -8.255203 -16.132004  0.7120056
1493837860362 -7.6475067  -16.45906 0.36743164
1493837860382 -4.164612 -12.708405  1.3908081
1493837860402 0.083099365 -8.901611 3.8161774
1493837860422 3.1317444 -7.153717 4.2387695
1493837860441 2.0157318 -6.7556458  1.3705444
1493837860461 0.6699829 -5.9269714  1.386795
1493837860481 -1.33078  -5.2094116  2.266922
1493837860501 -3.0422058  -3.968399 2.8990173
1493837860520 -3.776474 -2.6521454  3.5390167
1493837860540 -3.957428 -1.0991058  4.5139008
1493837860560 -3.9184113  0.6292114 4.7357483
1493837860579 -3.544159 0.90802 4.252823
1493837860599 -2.056839 -2.3847198  1.0477142
1493837860619 1.2452087 -9.189697 -9.561188
1493837860641 4.922928  -16.96112 -19.722397
1493837860661 6.5608215 -19.474823  -11.5903015
1493837860687 6.251877  -15.84877 -3.2317657
1493837860702 0.08129883  -10.857239  -6.210205
1493837860720 -5.5552673  -13.341278  -1.8821259
1493837860743 -5.140625 -16.269974  2.2539063
1493837860763 -3.1915894  -12.150635  3.806778
1493837860785 -4.9520416  -3.7026062  6.865631
1493837860802 -6.6900635  -0.25784302 13.292023
1493837860822 -8.482513 -5.9091797  10.493576
1493837860844 -5.3595276  -11.387695  4.412857
1493837860859 -0.8188629  -13.840424  1.8557587
1493837860877 2.925537  -13.966171  -0.037963867
1493837860897 7.8695984 -12.800629  -0.013961792
1493837860919 6.8640594 -9.68866  0.11973572
1493837860936 2.2999115 -7.2936554  1.4398804
1493837860960 -2.0783844  -7.5202637  1.4027252
1493837860979 -4.706894 -8.413559 -0.38391113
1493837860999 -4.899536 -8.888611 -1.5538483
1493837861021 -2.3985748  -8.380417 -0.97084045
1493837861037 0.7534332 -7.8103485  -0.45896912
1493837861053 1.9535522 -8.5811 1.4859619
1493837861078 1.966919  -9.322159 3.5862732
1493837861098 1.2298126 -9.697037 0.8557129
1493837861117 -0.012008667  -9.597183 -2.2264252
1493837861137 -1.1993103  -11.371735  -0.8360748
1493837861152 -3.0231018  -12.363235  1.4810333
1493837861172 -3.7060852  -12.559021  -1.8702545
1493837861195 1.8541565 -14.796982  -2.1691742
1493837861234 9.048996  -15.443741  0.21080017
1493837861253 11.739197 -15.130051  -1.2146301
1493837861273 6.8993683 -17.279022  -4.1326294
1493837861293 -4.2708435  -18.60083 -4.7394867
1493837861313 -8.625778 -15.889084  3.6121063
1493837861335 -10.7508545 -13.796768  10.010834
1493837861351 -12.779419  -11.804764  2.007721
1493837861368 -10.184189  -13.602005  -0.5444031
1493837861389 -4.7269287  -12.319458  -0.5446472
1493837861414 -0.066604614  -10.030945  1.8907776
1493837861432 3.3468628 -8.049576 4.818817
1493837861453 5.3857727 -7.0152435  3.4253387
1493837861472 2.9050903 -6.1249847  0.35105896
1493837861487 0.20703125  -5.0478516  0.16571045
1493837861507 -2.2681885  -3.8984528  2.0936127
1493837861527 -3.5111694  -3.0170746  3.6592407
1493837861547 -3.447937 -1.97052  4.3142548
1493837861566 -2.4855042  -1.1754913  4.0310516
1493837861587 -1.2151489  -0.72592163 3.8934631
1493837861610 -0.48324585 -2.1481934  2.985611
1493837861627 -1.0227509  -6.2637177  -1.7804871
1493837861646 -1.6197357  -14.1089325 -12.749985
1493837861666 3.677948  -19.474823  -14.540817
1493837861685 7.8451233 -19.474823  -8.934769
1493837861708 4.58107 -12.680603  -7.3325806
1493837861724 2.7027893 -0.7618866  2.8778076
1493837861749 -2.3802032  -2.5221863  11.888702
1493837861768 -9.546799 -14.176315  6.553055
1493837861785 -10.690704  -16.734848  -2.5283966
1493837861808 -5.33963  -8.760544 6.158554
1493837861827 -2.5633545  -2.6700134  17.003433
1493837861847 -3.5492554  -4.515671 11.41626
1493837861867 -3.8253021  -9.2659 1.6540833
1493837861882 -2.2489014  -12.018845  -0.60035706
1493837861902 1.0893707 -13.607727  1.2964783
1493837861926 5.8541565 -13.131897  2.8610382
1493837861946 5.3126526 -9.682098 1.6789093
1493837861961 0.82128906  -7.128418 1.1580658
1493837861985 -2.9924927  -6.7487793  1.5362549
1493837862005 -5.379196 -7.4145813  -0.80270386
1493837862025 -4.891464 -8.215683 -1.4727631
1493837862044 -1.3298492  -8.709213 -1.1833038
1493837862064 1.5097656 -9.250977 1.2596741
1493837862088 2.7280579 -9.596512 2.9658508
1493837862104 1.9793549 -9.579941 2.8738098
1493837862124 1.1079254 -9.678711 -0.46644592
1493837862144 0.48121643  -11.496185  -2.6636658
1493837862163 -1.2277985  -12.429184  -1.4164276
1493837862183 -2.4290009  -11.813492  -2.8901215
1493837862203 1.7090302 -12.36824 -1.6828003
1493837862243 6.0056305 -12.780106  -2.0830994
1493837862262 4.735901  -16.13234 -2.5356293
1493837862282 5.2342224 -18.79544 -6.3716125
1493837862303 -0.8518982  -18.493668  -3.4556122
1493837862321 -4.455963 -15.022797  6.306656
1493837862341 -7.096588 -13.647598  8.206558
1493837862362 -9.821732 -14.367096  1.2833252
1493837862380 -8.273758 -16.276993  0.9755707
1493837862400 -6.207306 -15.926514  1.5491333
1493837862420 -2.514389 -12.313034  1.4972839
1493837862439 0.07577515  -9.193985 4.619568
1493837862459 3.5176697 -6.9442596  4.4789734
1493837862479 1.7356415 -5.9701843  1.5467834
1493837862498 -1.0235138  -5.4408264  0.7573395
1493837862518 -2.4500275  -4.492584 2.311386
1493837862538 -3.58844  -3.3197174  2.8300018
1493837862558 -4.1478424  -2.1388092  3.4868927
1493837862575 -3.2248535  -0.34783936 4.251602
1493837862593 -2.527832 0.9771881 4.240631
1493837862613 -2.0292816  -0.010772705  2.9916992
1493837862636 -1.5232544  -4.1217804  -6.7848816
1493837862650 0.2798767 -13.244873  -17.976547
1493837862675 3.109253  -19.474823  -13.893402
1493837862695 4.694214  -19.390472  -6.5944824
1493837862711 3.9378357 -12.294281  -6.942932
1493837862731 -1.7491608  -8.819641 -6.939682
1493837862749 -6.3400116  -15.111023  0.33728027
1493837862774 -5.1259613  -14.787827  3.9956055
1493837862794 -2.673111 -8.209579 3.128891
1493837862809 -4.3996887  -4.519943 9.423126
1493837862833 -6.195572 -6.046631 11.793213
1493837862848 -3.7985687  -9.995529 7.7295837
1493837862871 -1.0664063  -12.579895  4.9135895
1493837862892 0.6148529 -13.315155  3.0949402
1493837862912 4.4993134 -13.237183  -0.14778137
1493837862936 5.9090576 -11.677231  -1.2168732
1493837862952 2.7687683 -8.870026 0.19424438
1493837862972 -1.3872528  -7.616745 3.480194
1493837862994 -4.251892 -7.571579 1.1100311
1493837863012 -5.6642914  -7.7644653  -0.6455841
1493837863031 -2.8971405  -7.135849 -0.042419434
1493837863053 0.06138611  -7.4020844  0.823822
1493837863071 1.578186  -8.445755 1.2253876
1493837863090 3.1187134 -9.908752 -0.42544556
1493837863112 2.6937408 -10.415009  -0.67559814
1493837863130 0.5539856 -10.805069  -1.813034
1493837863169 -0.9275818  -12.571716  -1.02948
1493837863187 -1.453064 -13.531906  -2.6581116
1493837863209 0.4400177 -12.365677  -1.9069977
1493837863228 4.1900177 -11.881866  -1.6421967
1493837863246 5.017105  -11.702209  -1.4587402
1493837863264 3.3080597 -15.300659  -1.8263397
1493837863285 4.0311127 -19.045502  -5.6627655
1493837863304 0.15127563  -18.84488 -4.2462616
1493837863321 -1.8346252  -15.46257 6.310623
1493837863341 -4.625412 -13.879105  8.665955
1493837863360 -8.7920685  -14.624512  4.854965
1493837863380 -9.123795 -16.327957  0.553833
1493837863401 -7.7901 -16.059235  0.28378296
1493837863431 -3.7037964  -12.441193  1.2437134
1493837863443 1.2216797 -9.094955 3.9636383
1493837863465 4.3970184 -7.600403 4.0934143
1493837863484 2.8081512 -6.784073 3.0446014
1493837863504 0.12637329  -5.4813385  1.9073792
1493837863524 -2.745407 -4.340988 2.1685638
1493837863539 -4.349991 -2.8019104  3.1330261
1493837863564 -4.4739532  -1.6072998  3.7126617
1493837863584 -4.351532 -0.27459717 4.103653
1493837863597 -4.515335 1.4165955 4.50766
1493837863618 -3.2017365  0.9616394 3.9187012
1493837863640 -1.5917358  -2.6481628  -1.3748322
1493837863657 2.648697  -9.536514 -13.14801
1493837863682 3.5060272 -16.742203  -19.722397
1493837863696 5.469528  -19.474823  -7.9508667
1493837863716 4.6141663 -15.254578  -7.38031
1493837863740 2.4247894 -6.8103943  -8.982864
1493837863761 -1.5042877  -8.125977 -0.5310669
1493837863775 -3.8116608  -16.652603  5.7558746
1493837863799 -1.3239899  -17.457214  -3.430008
1493837863819 -2.7991333  -9.90947  3.129303
1493837863835 -6.707718 -2.5627747  12.313782
1493837863856 -8.979355 -2.8396149  11.446167
1493837863874 -6.118469 -6.621887 5.2415314
1493837863899 -3.1392822  -11.752136  4.1818542
1493837863913 1.4902954 -13.843292  2.5198975
1493837863933 8.582703  -14.865387  0.54663086
1493837863958 7.744461  -11.833679  -2.6905365
1493837863977 2.9186707 -7.255127 -0.5756836
1493837863995 -1.9115753  -5.5268707  4.385666
1493837864014 -5.6793823  -7.279297 1.5473022
1493837864033 -6.434082 -8.7790985  -0.16189575
1493837864053 -2.9711914  -8.818344 -0.07147217
1493837864091 -0.33961487 -8.41333  -0.65016174
1493837864111 1.5605469 -9.207687 3.5411224
1493837864135 1.6570435 -9.890884 2.7018127
1493837864155 0.52279663  -9.475479 -1.3989868
1493837864170 -0.1825409  -9.633957 -1.8461456
1493837864189 -0.7200012  -12.383194  0.27812195
1493837864214 -0.8661194  -13.01268 -1.3425446
1493837864234 0.9837494 -11.769058  -1.2842407
1493837864254 4.928467  -12.373245  0.030288696
1493837864275 6.6593323 -13.423492  -4.6645355
1493837864288 4.722458  -15.896591  -2.0818787
1493837864314 3.8532257 -17.401001  -5.432007
1493837864328 -1.8622284  -17.223816  -5.5233917
1493837864352 -5.0489197  -14.893967  6.7117615
1493837864372 -7.3682556  -13.76944 7.972061
1493837864387 -10.560822  -14.448456  1.6733704
1493837864407 -9.63652  -16.396408  -0.23698425
1493837864431 -6.5602264  -15.333298  0.38986206
1493837864451 -2.1038666  -12.110611  1.2089539
1493837864466 1.7307892 -9.226501 3.7041779
1493837864486 3.4174042 -7.882599 3.4835358
1493837864506 1.176712  -6.9631042  1.8076172
1493837864529 -0.6711273  -5.5585785  0.84420776
1493837864549 -2.2860565  -3.9519958  1.7323456
1493837864570 -3.7854156  -2.5834045  2.8675385
1493837864589 -4.1355896  -1.496933 3.8311768
1493837864608 -3.8743591  -0.34814453 4.9897156
1493837864628 -3.6837463  0.89305115  5.657257
1493837864648 -3.355362 0.050109863 5.2811737
1493837864665 -1.991272 -3.81044  -0.14390564
1493837864687 2.13945 -12.281006  -13.419144
1493837864707 4.287857  -18.323288  -19.722397
1493837864724 5.974762  -19.474823  -8.562897
1493837864747 3.7523346 -11.95137 -5.0366516
1493837864766 1.8706512 -1.6114502  -7.089798
1493837864786 -5.4409485  -3.695282 -2.2289734
1493837864805 -8.937119 -15.107376  7.0997314
1493837864826 -3.0975647  -19.289871  -5.194153
1493837864842 -0.19337463 -10.793716  4.2811584
1493837864862 -2.093155 -3.922821 14.881485
1493837864879 -4.514084 -5.0246887  9.019012
1493837864905 -3.6439667  -9.428055 3.829834
1493837864924 -0.5579529  -12.856476  3.9023285
1493837864944 1.4327393 -12.86319 0.28408813
1493837864964 2.9552307 -12.348114  -0.86076355
1493837864983 4.6088104 -10.290039  1.2358246
1493837865003 1.8848114 -7.7711945  2.430664
1493837865023 -1.7246704  -7.2837677  0.74798584
1493837865043 -3.1939697  -7.2588654  -0.21728516
1493837865063 -3.912506 -8.177658 -1.1620636
1493837865101 -1.305069 -9.243027 -1.0857544
1493837865122 0.4427948 -9.567795 -0.5471039
1493837865141 0.71585083  -9.163666 0.47132874
1493837865161 0.08441162  -8.827286 1.2031555
1493837865181 -0.41921997 -9.837387 2.574463
1493837865207 0.8712616 -11.331284  0.54771423
1493837865221 2.5309448 -12.41687 -1.9044952
1493837865241 2.3031921 -12.363419  -1.7652893
1493837865260 -0.04824829 -11.422394  -2.868988
1493837865281 -0.16014099 -12.347992  -1.8051453
1493837865296 2.0565643 -13.15657 -0.73991394
1493837865319 4.470871  -14.812515  -3.3727875
1493837865335 6.2320404 -15.841782  -2.7611084
1493837865359 3.6420135 -16.361053  -3.5998077
1493837865378 -2.1650238  -15.504929  -1.9813843
1493837865398 -5.4796906  -14.381805  6.887253
1493837865418 -8.704834 -14.341476  8.252167
1493837865438 -11.198975  -15.092773  0.54452515
1493837865457 -9.37323  -15.808731  -1.2285919
1493837865474 -4.692871 -13.12912 -0.65597534
1493837865497 -0.16056824 -9.849838 2.2085266
1493837865516 3.112976  -7.805893 4.737198
1493837865536 3.5212097 -6.8563538  3.4310455
1493837865556 0.4694214 -6.2430267  1.4120789
1493837865575 -1.7961731  -5.1987762  1.0117645
1493837865595 -3.3726501  -4.1669006  2.0390472
1493837865615 -4.03244  -3.2789917  2.8826752
1493837865635 -3.4332275  -2.1382294  3.3018646
1493837865655 -2.5809174  -0.88616943 3.8280182
1493837865674 -1.9793854  0.045455933 4.188263
1493837865694 -1.3594818  -1.0364075  3.215622
1493837865714 0.09651184  -4.6227875  -1.777832
1493837865733 2.3635712 -13.251587  -15.3694
1493837865753 2.8801117 -18.530365  -19.722397
1493837865773 5.5924683 -19.474823  -8.0468445
1493837865795 3.924942  -12.50206 -6.4789124
1493837865812 -0.04940796 -5.3650665  -3.4486084
1493837865832 -8.198975 -11.522858  1.2017517
1493837865854 -4.6901703  -17.896545  6.2885284
1493837865871 -3.8023682  -10.840027  1.6266174
1493837865891 -2.5490417  -1.4505768  10.143036
1493837865913 -4.8259125  -0.5432892  16.94664
1493837865931 -7.1535797  -10.727997  7.5919647
1493837865950 -1.5292053  -12.592209  3.1029816
1493837865970 -0.31105042 -14.7217865 1.7597198
1493837866006 2.2244263 -13.477219  -0.2268982
1493837866025 6.421463  -11.060623  0.10189819
1493837866045 4.5236664 -7.7897034  1.1931152
1493837866065 -0.29614258 -7.2086945  3.0355988
1493837866082 -3.7827911  -7.760315 1.4530792
1493837866102 -5.5015564  -8.296127 -1.1421967
1493837866123 -4.381958 -8.140167 -1.3477478
1493837866147 -1.5772858  -7.6710663  -0.7922363
1493837866167 0.4764557 -7.499542 -1.3999176
1493837866187 1.1407471 -8.444199 1.1401672
1493837866206 1.0343475 -10.349838  3.695938
1493837866226 1.2634735 -11.315689  1.9499817
1493837866246 1.5088196 -10.961288  -0.7537079
1493837866265 0.8629303 -11.603317  -2.5355377
1493837866285 -0.87286377 -12.91861 -2.4371338
1493837866305 -0.96669006 -12.748886  -0.5000305
1493837866325 1.3888092 -12.796341  -0.45159912
1493837866344 3.50737 -13.6716  -2.5601501
1493837866364 5.217911  -15.415909  -3.845337
1493837866379 5.8080597 -17.120392  -2.8291626
1493837866399 1.7178345 -17.024033  -4.053772
1493837866419 -2.3371735  -14.890152  1.9585266
1493837866438 -4.866211 -13.760117  9.465652
1493837866457 -8.582733 -14.3250885 5.4593506
1493837866477 -9.506058 -15.785309  0.58828735
1493837866496 -7.2502136  -15.414932  0.29066467
1493837866522 -3.3728485  -12.330566  0.94369507
1493837866542 1.0506287 -9.147369 3.383194
1493837866561 2.996231  -7.431259 3.2985077
1493837866581 2.1882782 -6.29039  1.0653687
1493837866601 0.32559204  -5.412674 0.84095764
1493837866621 -1.7987518  -4.8068237  1.7297821
1493837866634 -3.083847 -3.8279266  2.5125275
1493837866660 -3.659607 -3.185257 3.239334
1493837866679 -3.518692 -2.1768036  4.105057
1493837866698 -3.0650787  -0.42564392 4.6849823
1493837866719 -2.7304688  0.15124512  4.684967
1493837866737 -0.92985535 -2.3332367  2.8551788
1493837866757 -1.2050476  -7.5790863  -4.9369354
1493837866777 -0.92329407 -17.375366  -17.197159
1493837866797 9.161682  -19.474823  -7.393524
1493837866817 8.569595  -19.474823  -5.0709076
1493837866833 3.1968384 -8.453735 -5.0010834
1493837866856 -3.46109  -10.503632  0.2984314
1493837866877 -7.364792 -17.272034  6.56427
1493837866897 -9.915894 -13.155106  -11.356125
1493837866917 -5.4783325  -4.1445465  13.513016
1493837866936 -5.339325 -0.26080322 15.289383
1493837866956 -5.1973114  -3.9608765  10.650879
1493837866995 -4.2036285  -13.232895  3.1583557
1493837867015 -0.6737671  -14.6692505 3.2660675
1493837867035 1.8687286 -14.410797  1.6174622
1493837867055 5.73114 -13.012817  0.25932312
1493837867076 5.493866  -9.548874 -0.28666687
1493837867094 2.0198822 -7.053543 1.9891815
1493837867114 -1.653244 -6.943939 2.5406036
1493837867134 -3.9390411  -7.9808044  0.8668976
1493837867153 -4.3924255  -9.060699 -0.7645874
1493837867173 -1.7610016  -9.587479 -0.69522095
1493837867193 0.60357666  -9.496323 -0.7064972
1493837867214 1.4416656 -8.83844  0.6508026
1493837867232 1.2100983 -8.727539 3.0393066
1493837867250 0.82025146  -9.502182 1.8959045
1493837867274 1.3531494 -10.807404  0.052322388
1493837867291 1.5225677 -12.555054  -2.3717957
1493837867311 -0.2803192  -13.082672  -2.636383
1493837867333 -2.6141205  -12.14534 -2.3980865
1493837867348 0.6429596 -12.072052  -1.6839447
1493837867368 5.899246  -12.990036  -1.0843048
1493837867390 6.948105  -15.403717  -3.2886963
1493837867410 4.4980774 -17.594925  -5.0260468
1493837867429 -0.22982788 -17.250443  -3.0227966
1493837867449 -3.300293 -15.041397  4.907089
1493837867469 -5.980423 -13.764984  8.072723
1493837867489 -8.593201 -14.054016  2.7564697
1493837867508 -8.941635 -15.487396  0.002670288
1493837867528 -7.574753 -15.344452  1.3057861
1493837867548 -4.1578674  -12.387863  1.7848816
1493837867568 -0.5762024  -9.270218 4.238144
1493837867587 2.5887604 -7.4320526  4.394989
1493837867607 2.168213  -6.720337 2.5852509
1493837867627 -0.08106995 -5.695511 1.0203705
1493837867646 -2.154541 -4.784256 1.183548
1493837867664 -3.1976776  -3.8842926  2.3037872
1493837867686 -3.531433 -2.6378632  3.431839
1493837867706 -3.4595642  -1.0874634  4.356552
1493837867725 -2.9660492  0.7703247 5.061157
1493837867745 -2.744522 0.6930847 4.8559113
1493837867765 -1.1169739  -2.4394073  1.6269836
1493837867783 0.3665924 -8.868027 -15.267334
1493837867800 2.1908722 -18.679947  -19.578629
1493837867820 7.6876373 -19.474823  -4.482849
1493837867838 4.575287  -15.63266 -4.895569
1493837867858 2.390625  -3.5539856  -7.039093
1493837867882 -7.612686 -8.72789  -1.2574158
1493837867902 -8.941849 -17.868408  8.318283
1493837867941 -3.7120667  -13.260117  -4.7266083
1493837867962 -1.4414978  -4.6644135  8.703476
1493837867981 -5.4644775  -3.2674866  15.487488
1493837868001 -6.2262726  -9.0686035  10.012299
1493837868021 -2.4411316  -12.51149 3.135498
1493837868047 -0.4007721  -13.934036  2.4995117
1493837868061 2.7592316 -12.5199585 0.6108093
1493837868081 6.5063934 -11.359665  0.48649597
1493837868096 5.8129272 -9.265396 0.570343
1493837868120 0.93518066  -8.005005 1.7462006
1493837868140 -3.5173798  -8.450287 1.1373138
1493837868159 -5.6429443  -8.63858  -0.58418274
1493837868179 -5.564392 -8.47937  -1.8074036
1493837868199 -2.7195435  -8.171677 -1.0409851
1493837868219 0.4940338 -7.7254944  -0.7097168
1493837868238 2.195053  -7.9602966  0.66070557
1493837868255 1.9906616 -9.273651 3.2981873
1493837868279 1.4951019 -10.749771  3.1909943
1493837868293 1.8483887 -11.733322  -0.6218262
1493837868315 2.2188568 -12.169647  -3.6832275
1493837868335 0.5802307 -12.262756  -4.7532196
1493837868357 -0.89733887 -12.319778  -3.180359
1493837868376 0.095718384 -13.191101  -1.3417664
1493837868396 2.4750671 -15.0589905 -2.0739899
1493837868416 5.481247  -16.464539  -1.5887146
1493837868436 4.1430817 -17.92778 -1.5101318
1493837868455 -1.8050842  -17.150757  -1.689148
1493837868475 -5.7045593  -14.468689  3.8975677
1493837868495 -8.007935 -14.036591  7.558548
1493837868514 -8.181168 -14.9900055 4.436676
1493837868534 -6.2646637  -15.479019  0.99794006
1493837868554 -3.787918 -13.996811  -0.35707092
1493837868574 -0.5490875  -11.038391  1.3481903
1493837868593 3.6786957 -8.096619 4.783615
1493837868613 2.4239655 -7.200897 3.9075012
1493837868633 -0.16818237 -6.103012 0.71447754
1493837868654 -1.7446136  -5.1334534  1.6728821
1493837868670 -2.7463837  -3.9153137  3.101059
1493837868691 -3.3940735  -3.3088531  3.3032837
1493837868713 -3.6005707  -2.879303 3.6661224
1493837868729 -3.361267 -1.5803986  4.227783
1493837868747 -3.4669647  0.019012451 4.5267944
1493837868769 -3.4248352  -0.41033936 4.031952
1493837868792 -1.7066956  -2.9103851  1.2505951
1493837868810 -2.6425323  -8.624283 -9.186432
1493837868828 1.5996704 -19.44107 -19.690628
1493837868850 13.079407 -19.474823  -3.0308075
1493837868886 7.1468506 -18.382965  -4.274353
1493837868909 3.194046  -2.9381409  -4.9264526
1493837868929 -5.029648 -3.0717468  7.8201294
1493837868948 -9.119476 -16.076706  12.751419
1493837868968 -4.1540985  -18.575256  -17.753403
1493837868985 -5.2472534  -7.957123 5.1015778
1493837869008 -5.976959 -0.8104706  17.644669
1493837869027 -5.2282257  -5.4645844  13.0837555
1493837869047 -2.2403107  -10.841843  0.6986542
1493837869067 -2.0881042  -13.823883  0.09489441
1493837869087 1.8338013 -13.2881775 1.1496887
1493837869106 7.4497375 -12.4631195 1.2240448
1493837869124 6.216751  -9.2413025  -1.7807312
1493837869147 1.2693176 -7.20459  0.8365326
1493837869165 -1.7303009  -6.7195587  2.3532562
1493837869185 -4.2474976  -7.8374176  0.23869324
1493837869205 -3.90802  -8.747894 -1.1289063
1493837869225 -1.38974  -8.726746 -0.85369873
1493837869244 0.8600769 -8.727158 -0.018692017
1493837869264 1.9883118 -9.264664 2.0751953
1493837869283 2.2802734 -9.912857 2.1338043
1493837869303 1.8142242 -10.783539  -0.61720276
1493837869323 0.5793915 -12.33699 -2.18956
1493837869343 -1.7413177  -13.063217  -2.9931793
1493837869364 -1.9102631  -12.9219055 -2.644989
1493837869382 1.8528748 -13.100296  -0.7719879
1493837869402 4.8778687 -12.789307  -2.3858185
1493837869424 5.1356964 -13.839737  -4.590271
1493837869442 3.8631744 -16.530457  -5.2971497
1493837869461 0.97927856  -16.83879 -2.0450134
1493837869483 -0.8412628  -15.125229  4.7441864
1493837869501 -4.0811462  -14.492233  8.481888
1493837869520 -8.569962 -15.928848  2.9153442
1493837869539 -9.983078 -17.742798  1.0828094
1493837869560 -8.534622 -16.229889  0.92814636
1493837869580 -3.8914795  -11.864365  1.2303314
1493837869599 1.3714142 -8.281708 4.125656
1493837869619 4.349518  -6.7735596  3.5286865
1493837869639 3.1483002 -6.160553 1.4962463
1493837869659 0.5091095 -5.0598297  1.4373627
1493837869678 -2.310379 -4.226471 2.2675629
1493837869698 -4.175812 -2.7335815  3.2065887
1493837869718 -5.0832977  -1.687561 4.6209564
1493837869736 -4.421692 0.077545166 5.2251587
1493837869753 -4.296936 1.5606079 5.533478
1493837869773 -3.6705475  -0.62872314 3.955307
1493837869816 -2.0539093  -5.4162903  -3.6945953
1493837869835 1.5317993 -14.50444 -19.722397
1493837869855 2.8225098 -19.474823  -19.487976
1493837869874 9.477783  -19.223434  -3.1112823
1493837869895 3.2926178 -11.918686  -8.235825
1493837869914 1.0788269 -4.861084 -1.8373413
1493837869934 -4.207123 -13.11174 4.0974426
1493837869954 -2.5457458  -18.570374  6.008957
1493837869974 -5.204468 -10.459061  -5.1191864
1493837869993 -6.709671 -1.4371948  9.5699005
1493837870013 -8.7043915  -1.1433258  17.18489
1493837870033 -6.1411743  -7.7609253  6.11438
1493837870052 -2.7623749  -11.949326  0.034103394
1493837870072 -1.8648224  -14.63179 1.3267975
1493837870092 3.6622314 -12.922653  2.5483246
1493837870112 9.5238495 -11.83284 1.5761719
1493837870131 6.2042236 -8.715256 -0.028915405
1493837870151 0.8771515 -7.3258057  1.3054962
1493837870171 -2.7702332  -7.375763 2.0558014
1493837870191 -5.067215 -8.164978 -0.29031372
1493837870217 -4.7577515  -8.782654 -1.8089294
1493837870231 -1.3725128  -8.787796 -0.45654297
1493837870250 1.515213  -8.92627  0.89590454
1493837870272 2.5194092 -9.696976 1.8292389
1493837870290 2.549408  -10.422058  1.1286011
1493837870309 1.9688568 -10.825562  -1.0659485
1493837870329 0.49090576  -11.892349  -1.977066
1493837870349 -1.8406677  -12.580215  -1.7814178
1493837870369 -2.9931183  -12.692978  -2.6795654
1493837870388 -0.48783875 -13.532852  -2.2481384
1493837870408 4.2885895 -14.205048  -0.9365845
1493837870424 7.7366943 -15.5841675 -0.9239197
1493837870448 7.8966217 -16.672913  -2.5217133
1493837870467 1.8488159 -16.96962 -5.800232
1493837870487 -3.8612976  -15.49057 -0.3581543
1493837870507 -6.2271576  -14.134216  9.751984
1493837870526 -10.354584  -13.2892  5.59256
1493837870546 -12.04657 -14.953506  -0.62158203
1493837870566 -9.335892 -14.630005  -0.42378235
1493837870586 -4.2241516  -12.058853  0.3001709
1493837870605 1.2980042 -9.453171 4.1770935
1493837870625 5.337143  -7.940674 5.6765747
1493837870643 3.7723389 -7.3296356  1.6116486
1493837870660 0.98361206  -6.441391 0.17271423
1493837870681 -1.130722 -4.930298 1.3889618
1493837870704 -3.3773956  -3.557022 2.7922058
1493837870723 -4.6623383  -2.4466095  4.098816
1493837870744 -4.479416 -0.9413605  4.7908936
1493837870763 -3.407013 1.4577637 5.0822144
1493837870804 -2.7073822  1.6287994 4.5842285
1493837870823 -1.579956 -2.1310425  1.7724304
1493837870842 -1.2671967  -8.482697 -11.156067
1493837870860 1.8671722 -19.474823  -19.03453
1493837870884 3.4799957 -19.474823  -9.07782
1493837870902 4.9709473 -17.983612  -6.0507813
1493837870921 1.2863007 -5.675186 -7.626709
1493837870943 -4.7448883  -7.7454224  2.6318817
1493837870961 -6.327881 -13.067612  6.791504
1493837870980 -5.0841217  -11.427704  -0.32035828
1493837871000 -1.0882721  -6.15683  8.247681
1493837871020 -1.7570953  -4.9295654  11.455658
1493837871039 -4.0894623  -9.691589 7.3503876
1493837871059 -2.236557 -11.841888  2.5994263
1493837871079 -0.35031128 -11.663849  1.3440857
1493837871111 1.1397247 -9.878555 0.7646179
1493837871114 3.4796906 -9.43779  1.0075531
1493837871134 4.169113  -9.058243 0.96414185
1493837871152 0.9437256 -8.63945  1.2666321
1493837871177 -1.8040314  -8.196854 1.4602356
1493837871197 -3.5776062  -8.200562 0.01272583
1493837871216 -4.086197 -8.652664 -1.0449829
1493837871236 -2.0339203  -8.864563 -0.59262085
1493837871256 0.6628723 -9.055923 -0.18240356
1493837871276 1.8992767 -9.887009 1.6869507
1493837871295 2.0296326 -10.75238 2.9495392
1493837871315 2.1393127 -10.873398  1.0517731
1493837871335 2.0682983 -11.731125  -1.4698334
1493837871354 0.97299194  -13.190048  -2.2029724
1493837871374 -1.3981323  -12.612152  -2.8727875
1493837871394 -2.288681 -12.431778  -4.335312
1493837871414 1.1032257 -13.060974  -2.6381073
1493837871433 5.0758667 -14.625473  -1.3187408
1493837871453 7.485199  -16.345444  -0.9459839
1493837871473 4.1074066 -17.8266  -4.027069
1493837871493 -2.499466 -15.828964  -1.3760223
1493837871512 -5.3330536  -13.968765  9.626831
1493837871532 -8.772995 -13.135162  6.6701508
1493837871552 -10.857574  -16.182953  -0.5275879
1493837871571 -9.121902 -17.181274  0.4297638
1493837871591 -4.9037476  -13.444885  0.77809143
1493837871611 -0.016784668  -9.693527 2.9038544
1493837871631 4.0863495 -7.872574 4.8467712
1493837871646 3.4337006 -6.9179077  3.7499847
1493837871675 0.68167114  -5.812439 0.42256165
1493837871691 -1.9250336  -5.010147 2.410965
1493837871710 -3.302124 -3.3955688  2.778305
1493837871749 -4.5664825  -2.255188 3.7539825
1493837871769 -4.247711 -1.0868378  4.224457
1493837871789 -3.0003204  0.8509674 4.3059387
1493837871809 -2.317688 1.2076111 4.191635
1493837871828 -1.0795746  -1.5033264  2.0514984
1493837871848 -0.14108276 -7.267212 -7.075943
1493837871868 2.897644  -18.369827  -19.34555
1493837871888 7.1811066 -19.474823  -14.82486
1493837871908 9.025085  -17.869781  -4.9173737
1493837871927 3.2513885 -8.093277 -6.6514893
1493837871947 1.1296387 -3.444748 2.2690735
1493837871967 -4.570053 -11.5784  7.1329956
1493837871986 -7.1342773  -15.300232  1.1269073
1493837872006 -7.912384 -8.4014435  -2.1304016
1493837872026 -8.399918 -4.450821 13.441986
1493837872045 -7.2876587  -5.806198 11.496674
1493837872065 -4.913391 -10.296555  2.8821259
1493837872085 -0.77211  -11.221481  2.845642
1493837872105 2.7642975 -11.743195  3.1732635
1493837872124 7.585724  -12.250214  1.6868591
1493837872144 8.317093  -11.944717  -0.14202881
1493837872164 3.4371948 -9.053482 -0.47602844
1493837872184 -0.81399536 -7.3763733  1.7457275
1493837872203 -4.070526 -7.1780853  1.6379395
1493837872223 -6.259659 -8.122772 -0.972641
1493837872244 -5.8222656  -9.126938 -1.3956146
1493837872262 -2.5514984  -9.104813 -0.26467896
1493837872282 0.7757721 -8.948029 -0.049697876
1493837872304 2.614975  -9.235794 2.2064667
1493837872322 2.5123596 -10.006424  3.0689392
1493837872341 2.135376  -11.196564  0.09573364
1493837872363 2.2597961 -12.793655  -1.5530243
1493837872381 1.3769836 -13.407257  -2.7727966
1493837872401 -0.314682 -12.801666  -4.382553
1493837872422 0.24125671  -12.904129  -1.4259796
1493837872440 1.938446  -13.794662  -1.9267426
1493837872460 3.3523865 -15.176575  -1.6300354
1493837872479 6.144928  -15.881073  -1.1203613
1493837872499 1.5863953 -16.711761  -3.9167175
1493837872519 -4.0371857  -14.811478  -1.3822327
1493837872538 -5.521637 -13.003433  8.931473
1493837872558 -7.9196014  -12.618561  6.788452
1493837872578 -9.316849 -15.53096 -0.81770325
1493837872598 -7.2728424  -15.954514  -0.97042847
1493837872617 -3.3627472  -13.094559  0.54089355
1493837872637 0.40664673  -9.721588 3.2740173
1493837872657 3.2658386 -8.012009 5.0168304
1493837872677 2.1247406 -6.696106 2.2628326
1493837872696 0.75668335  -5.425873 0.27926636
1493837872735 -1.0746918  -4.6194153  2.2493286
1493837872756 -2.0866852  -3.4658966  2.6105957
1493837872775 -3.0765228  -2.7920685  3.639923
1493837872795 -3.4059448  -1.8374634  4.1311493
1493837872814 -2.8953247  -0.14111328 4.4635315
1493837872835 -2.6536255  0.55726624  4.3409576
1493837872854 -2.795456 -1.4370728  1.4444733
1493837872874 -1.7130737  -6.9033203  -10.082062
1493837872894 2.6929474 -15.941742  -19.722397
1493837872913 3.2369385 -19.474823  -16.283829
1493837872933 5.707382  -17.246536  -4.4263
1493837872953 1.5614319 -7.328018 -7.7910156
1493837872974 -0.32510376 -1.5935059  -4.0736694
1493837872992 -6.2169647  -8.431549 4.9439087
1493837873012 -5.775238 -14.211441  7.687027
1493837873034 -2.7423553  -11.99501 -1.1184692
1493837873049 -3.6583862  -7.478714 5.6585693
1493837873071 -5.928833 -7.6453247  10.036438
1493837873093 -3.6892395  -8.830292 6.3645782
1493837873111 -0.856308 -9.777786 3.6314697
1493837873130 0.37443542  -11.164215  1.7044373
1493837873152 3.2826385 -11.471283  0.32757568
1493837873170 5.1020966 -11.598709  0.17192078
1493837873190 3.5394592 -9.685684 1.0960999
1493837873209 0.29675293  -7.8545227  2.027008
1493837873233 -2.942154 -7.2830353  0.70581055
1493837873249 -5.0262604  -7.7380066  -1.5753021
1493837873268 -3.8752594  -8.483704 -2.3484955
1493837873288 -0.5032501  -8.48201  -0.42173767
1493837873308 1.7613983 -8.166931 2.2411041
1493837873328 1.9883118 -9.384033 5.080475
1493837873347 2.763733  -11.716309  2.472641
1493837873367 3.445343  -12.603943  -3.8232422
1493837873387 0.9293823 -13.564819  -4.4718475
1493837873407 -4.6633606  -14.006699  -3.675064
1493837873426 -4.8020477  -13.675613  -3.8681793
1493837873446 2.188324  -13.132645  0.05921936
1493837873466 7.4770813 -13.997498  -0.36686707
1493837873486 8.151474  -15.3090515 -2.4758453
1493837873505 3.352234  -16.982285  -6.4128876
1493837873525 -2.2591248  -16.020172  -4.467911
1493837873545 -2.4054718  -14.106613  10.107269
1493837873564 -5.706497 -13.753632  9.485718
1493837873584 -8.25412  -14.637894  0.8369751
1493837873604 -8.190308 -15.724609  0.6969452
1493837873624 -5.3277435  -13.613693  0.5600128
1493837873643 0.64590454  -9.996277 2.6859741
1493837873684 5.540741  -7.557663 3.495575
1493837873700 4.4781036 -7.196686 2.0627441
1493837873722 0.98773193  -6.450409 0.9323578
1493837873740 -1.8725739  -5.5233765  2.3163605
1493837873758 -4.0192413  -3.5521545  3.6679077
1493837873779 -5.298874 -2.5144196  3.837616
1493837873797 -4.79039  -1.4449158  4.442505
1493837873815 -3.8576355  0.33148193  4.4718018
1493837873834 -2.6237335  0.24609375  2.885727
1493837873854 -0.49223328 -3.1384583  -1.2994232
1493837873874 -0.009338379  -10.8441925 -11.570007
1493837873894 2.6251068 -19.474823  -16.164215
1493837873914 8.247574  -19.474823  -6.619583
1493837873933 6.3332825 -15.655655  -6.486923
1493837873953 2.9113464 -4.6968536  -4.0672455
1493837873973 0.19393921  -3.040985 3.770813
1493837873993 -7.272049 -13.212143  4.978607
1493837874012 -8.890152 -16.302536  -1.9210358
1493837874032 -7.965393 -9.788513 -2.3417969
1493837874052 -7.02919  -4.632904 12.410828
1493837874073 -5.259262 -5.4044647  12.587326
1493837874091 -1.8596039  -9.346817 5.218094
1493837874111 0.93618774  -11.696533  1.777298
1493837874131 3.3082275 -13.163406  1.5667725
1493837874150 6.808655  -13.169998  1.4890137
1493837874170 6.224594  -10.795837  -0.08305359
1493837874190 1.8028259 -7.758301 0.6663666
1493837874209 -2.0256348  -6.4976196  2.2066498
1493837874229 -5.236969 -7.320938 0.7079468
1493837874249 -6.3782806  -8.896927 -1.6410065
1493837874269 -3.272812 -9.229721 -0.543808
1493837874288 -0.027191162  -8.493301 0.6642151
1493837874308 1.5007019 -8.173355 0.5745239
1493837874328 2.4299164 -9.386993 3.1578522
1493837874347 2.7946625 -10.920746  1.9306183
1493837874367 2.2535553 -11.618286  -2.655899
1493837874387 -0.49002075 -13.006821  -2.4306488
1493837874407 -3.485489 -13.389679  -2.502533
1493837874426 -1.2213745  -13.698715  -2.8996735
1493837874446 3.8969727 -12.9760895 -0.9743805
1493837874466 5.6031036 -13.028778  -2.73732
1493837874486 5.9465027 -16.094955  -3.1333313
1493837874505 3.9884796 -18.042603  -5.857437
1493837874525 -1.8695679  -15.944412  -1.8987122
1493837874545 -2.6626892  -13.76387 7.9249268
1493837874565 -5.432968 -13.764938  7.779114
1493837874604 -7.7034607  -16.056396  1.9483795
1493837874624 -7.882675 -17.417023  0.7250061
1493837874644 -7.1770477  -15.45137 1.4190063
1493837874663 -1.9790192  -10.880463  2.0143585
1493837874683 3.075821  -8.006836 3.633255
1493837874703 3.4216766 -6.6440277  2.205841
1493837874722 1.3909454 -5.5281982  0.5345917
1493837874742 -0.3426056  -4.537506 2.5899048
1493837874762 -2.1755981  -3.6480713  3.0453644
1493837874782 -3.8448792  -2.964676 3.1088562
1493837874801 -4.226074 -2.2721863  3.9091797
1493837874821 -3.849762 -0.83418274 4.5239105
1493837874841 -3.9169617  0.4864502 4.3164215
1493837874861 -3.3200836  -0.62693787 2.3167572
1493837874881 -1.700943 -4.9840393  -6.317047
1493837874900 -0.08847046 -12.738358  -18.601974
1493837874920 4.366211  -19.474823  -14.644455
1493837874940 8.307465  -18.365768  -5.2874146
1493837874959 4.5728455 -11.59407 -7.055481
1493837874979 1.052414  -3.478836 -3.4273376
1493837874999 -3.382431 -8.206253 4.728409
1493837875019 -6.3218536  -16.595963  2.1980286
1493837875038 -4.9564514  -13.570343  -1.7228088
1493837875058 -4.6248016  -5.324417 7.3807983
1493837875078 -6.071121 -4.1914673  12.400604
1493837875098 -4.1014404  -8.112793 8.360428
1493837875117 -0.9677582  -11.581543  4.023224
1493837875137 2.4898224 -12.525803  2.1438904
1493837875157 5.1838684 -12.396606  0.41622925
1493837875176 4.5630493 -11.549118  -1.4001007
1493837875196 2.1663818 -8.721848 -0.056167603
1493837875216 -1.2048187  -7.096939 4.0214233
1493837875236 -4.221344 -6.973831 2.4866638
1493837875255 -6.1484985  -7.913681 -0.77108765
1493837875275 -3.9495392  -9.03627  -0.23832703
1493837875295 -1.4840088  -8.996719 0.41099548
1493837875315 -0.043640137  -8.419022 2.5659027
1493837875334 1.5322723 -9.12294  2.2925262
1493837875354 1.8777161 -10.749222  0.2363739
1493837875374 1.081955  -11.785324  -2.1300812
1493837875394 0.025970459 -12.554749  -2.6790314
1493837875413 -0.19561768 -13.705948  -0.7605896
1493837875433 0.5918274 -12.993195  -1.6030884
1493837875453 3.720993  -13.24147 -2.6569366
1493837875472 5.2952576 -12.371368  -3.4662323
1493837875493 3.349884  -14.392792  -2.0572205
1493837875512 3.8830261 -16.639618  -5.508606
1493837875532 -0.22972107 -18.089615  -0.19161987
1493837875551 -2.4467926  -14.34967 2.3447113
1493837875591 -3.4484406  -12.971451  6.6679688
1493837875611 -6.6281433  -12.824921  5.43161
1493837875631 -7.021988 -15.589813  1.5599213
1493837875650 -8.371292 -17.431442  1.4097595
1493837875670 -6.1104126  -14.383575  0.8037567
1493837875690 -1.1122894  -10.01886 2.8454132
1493837875709 2.6118011 -7.4262543  3.5612946
1493837875729 2.035553  -6.5065155  1.27034
1493837875749 0.8046112 -5.454529 0.66830444
1493837875769 -0.9923096  -4.668976 2.1430054
1493837875788 -3.0422974  -3.9123688  2.2311554
1493837875808 -4.2548676  -3.0919952  3.1282806
1493837875828 -4.0285187  -2.1547852  4.2332
1493837875847 -3.3320465  -0.4106903  4.904114
1493837875867 -2.978531 0.9355469 4.208252
1493837875887 -2.3727875  -0.47511292 1.7194214
1493837875907 -0.97158813 -5.3000183  -6.616928
1493837875926 1.864563  -13.414627  -18.246368
1493837875946 6.660187  -19.474823  -13.904251
1493837875966 7.481674  -18.371735  -5.5156555
1493837875986 3.7637482 -11.087921  -6.8659363
1493837876005 0.67837524  -1.6536865  -0.94906616
1493837876025 -4.7016907  -5.595459 7.6746674
1493837876045 -9.219711 -15.771515  4.0420227
1493837876065 -6.5188904  -15.036392  -0.8114929
1493837876084 -3.880371 -8.63118  5.5970306
1493837876104 -4.8694763  -6.2797546  13.150116
1493837876124 -5.022995 -7.914139 8.848984
1493837876145 -2.3180542  -9.9809265  2.6851196
1493837876168 1.0118713 -10.574081  1.2903595
1493837876188 4.10849 -11.570328  1.3908539
1493837876207 5.8021545 -12.358231  0.82647705
1493837876224 4.0219574 -10.3658905 -0.14846802
1493837876248 0.053512573 -7.857666 0.64967346
1493837876268 -2.9492798  -6.888321 1.4975128
1493837876288 -5.2676544  -7.5799713  0.25482178
1493837876307 -5.028122 -8.9361725  -1.5146484
1493837876327 -1.9901123  -9.214371 -0.74635315
1493837876347 1.1270752 -8.335983 0.58973694
1493837876367 2.2394562 -8.318878 3.189865
1493837876386 1.7787628 -9.566742 3.5975952
1493837876406 1.9942169 -10.498444  0.5858612
1493837876426 2.773117  -11.110138  -2.2643127
1493837876446 1.8309479 -12.723145  -0.25912476
1493837876465 -1.2857208  -13.170715  -1.6766205
1493837876485 -2.5363464  -12.888382  -4.934677
1493837876505 0.9002838 -13.359573  -1.4136963
1493837876524 3.5909576 -13.894241  -2.1418152
1493837876544 5.1842346 -15.719208  -1.6438904
1493837876564 6.748184  -16.175522  -2.8397675
1493837876603 -0.4124756  -16.755402  -5.2774963
1493837876623 -3.715088 -14.536545  0.47395325
1493837876643 -4.528946 -13.757126  7.8308563
1493837876664 -7.6181335  -16.261215  8.807678
1493837876682 -8.475647 -16.713577  3.230957
1493837876702 -6.9549103  -15.681808  -1.0376892
1493837876723 -3.39328  -11.918777  -1.0139313
1493837876739 1.3396606 -9.006271 2.376709
1493837876761 4.0837708 -7.4631042  4.3279877
1493837876783 1.9062347 -6.9798584  2.1036682
1493837876801 -0.1709137  -5.755005 1.4355011
1493837876820 -2.1391296  -4.58313  2.5704498
1493837876842 -3.798996 -3.5107117  3.2780151
1493837876860 -4.3945007  -2.5662537  4.039871
1493837876880 -3.6581268  -1.2734528  4.421463
1493837876899 -3.2548676  0.55467224  4.6257324
1493837876919 -2.7163239  0.7998352 4.2572327
1493837876939 -1.5579834  -2.082611 0.8952484
1493837876958 -0.39379883 -8.100861 -10.082535
1493837876978 1.2157288 -15.88829 -19.722397
1493837876998 5.931198  -19.474823  -11.772156
1493837877018 7.758377  -15.842712  -5.803421
1493837877035 2.5524445 -7.5091553  -8.704269
1493837877057 -1.5833588  -7.287903 3.2108612
1493837877077 -5.773102 -13.79274 7.222397
1493837877097 -5.8994446  -13.556213  1.5756531
1493837877116 -4.934555 -7.493866 7.1712494
1493837877136 -5.9460907  -3.7940216  14.069122
1493837877156 -6.0325775  -6.673279 7.6574097
1493837877175 -2.6731873  -9.944809 2.7194977
1493837877195 0.7418518 -11.642044  2.3600159
1493837877215 3.7841492 -12.97525 1.0714569
1493837877235 5.137314  -12.535599  -0.11830139
1493837877254 3.7185364 -9.626114 0.45481873
1493837877276 0.2418518 -7.487381 2.1844482
1493837877294 -2.3069916  -6.933838 1.4712524
1493837877314 -4.755066 -7.6086426  -0.24665833
1493837877333 -4.386551 -8.478882 -1.4812775
1493837877353 -1.9341125  -8.943115 -0.5009613
1493837877373 -0.07498169 -8.772278 0.5126953
1493837877394 1.0398712 -9.391922 2.0355835
1493837877412 1.6840973 -11.044022  3.4802094
1493837877432 2.1194458 -12.367401  0.5838318
1493837877453 3.0196228 -12.684036  -3.47258
1493837877472 2.0322266 -13.185074  -2.3744507
1493837877491 -0.9954529  -12.218796  -3.4827576
1493837877513 -0.54119873 -12.728287  -2.0405579
1493837877531 1.5712433 -12.74559 0.28877258
1493837877570 2.2512054 -13.805603  -4.349945
1493837877590 5.1134796 -15.902634  -2.4012756
1493837877610 6.0325317 -17.180618  -1.3821106
1493837877629 -1.0792389  -16.283371  -2.3616333
1493837877647 -4.953354 -13.626083  4.8126526
1493837877669 -6.845047 -14.124451  9.2417145
1493837877688 -9.358017 -15.335297  2.6865234
1493837877708 -8.758377 -17.673004  -0.1612091
1493837877728 -6.8836365  -15.210983  0.51078796
1493837877748 -2.0613403  -10.382126  1.9347382
1493837877767 2.4664001 -7.625641 3.777649
1493837877787 3.3383484 -6.8527985  2.767334
1493837877807 1.8118744 -6.2654266  1.0526733
1493837877827 -0.3699646  -5.258438 0.7957611
1493837877846 -2.2570953  -3.7894287  1.7956543
1493837877864 -3.7645416  -2.866623 3.136734
1493837877885 -4.026474 -2.0441284  4.3654633
1493837877905 -3.5604095  -0.8737488  4.9897003
1493837877925 -2.795868 0.67300415  5.2661285
1493837877945 -2.0457458  0.32888794  4.3115845
1493837877965 -1.1913757  -3.576828 -2.0498047
1493837877984 1.5188293 -11.8927  -13.5399475
1493837878004 3.441681  -18.981415  -18.057922
1493837878024 5.0156403 -19.474823  -10.161102
1493837878044 4.8181763 -13.451553  -5.860794
1493837878063 -1.9949036  -7.679489 -3.9919586
1493837878083 -7.4316864  -11.519104  3.188736
1493837878102 -6.489563 -14.000107  1.615448
1493837878118 -3.5340118  -8.994232 3.2130432
1493837878142 -2.5583038  -3.4769135  8.007874
1493837878164 -4.127716 -4.221283 11.753525
1493837878182 -3.049759 -9.619141 8.070969
1493837878201 -0.051956177  -12.810074  2.704422
1493837878223 1.5928192 -12.070877  -0.24589539
1493837878241 2.9053345 -10.688202  0.40068054
1493837878261 3.986023  -9.578705 0.855484
1493837878282 1.8338928 -8.154556 1.695755
1493837878298 -1.3826752  -7.3935547  2.4200134
1493837878321 -3.4314575  -7.9176636  1.6642456
1493837878340 -4.760147 -8.898376 -0.12886047
1493837878359 -3.1485748  -9.47406  -1.0265961
1493837878377 0.027648926 -9.311142 -0.61027527
1493837878399 2.0585175 -9.389511 0.73394775
1493837878418 3.105667  -10.070541  1.5740509
1493837878438 4.1606445 -11.788666  1.8522186
1493837878458 3.0139465 -12.2139435 0.22209167
1493837878477 0.8292084 -12.1892395 -6.397049
1493837878498 -1.9709778  -13.310394  -1.6905365
1493837878537 -4.0731964  -12.8776245 -1.7057953
1493837878557 -0.7682648  -13.148987  -2.642105
1493837878576 6.1091766 -13.663895  -2.1038055
1493837878596 7.9838715 -14.639496  -4.3180084
1493837878616 2.7643585 -16.761475  -6.5017242
1493837878633 -1.1049194  -16.574738  0.5960541
1493837878656 -2.5015259  -14.058716  7.8753815
1493837878673 -5.6894836  -13.929352  8.128067
1493837878692 -7.9164886  -14.941132  0.5500641
1493837878715 -7.918579 -16.285187  1.2624512
1493837878734 -5.7760468  -14.670868  1.6919556
1493837878754 -0.0756073  -10.538986  2.5153656
1493837878790 4.206543  -8.106384 3.3388672
1493837878790 3.5283813 -7.134659 1.6853027
1493837878809 1.135376  -6.0703735  0.8421173
1493837878827 -0.6829376  -4.9837036  2.1136475
1493837878852 -2.1937714  -3.4771576  2.556244
1493837878869 -3.3375092  -2.8094788  3.146164
1493837878892 -3.6139984  -2.3780975  3.8437653
1493837878911 -3.4197693  -0.93414307 5.008499
1493837878926 -3.6375275  0.47660828  5.277237
1493837878946 -3.3126373  -0.57162476 3.31073
1493837878966 -2.9725342  -5.6679688  -4.2465515
1493837878984 -2.628891 -14.623901  -15.17514
1493837879011 5.4164734 -19.474823  -13.510712
1493837879025 9.924332  -19.474823  -9.062759
1493837879045 6.2485657 -11.350586  -7.7055206
1493837879064 2.2022552 -4.406006 3.4700317
1493837879083 -4.5615234  -11.95639 10.680511
1493837879103 -5.205536 -17.803177  -7.8525543
1493837879123 -5.833969 -10.788483  -2.7914886
1493837879146 -7.4374695  -2.1841888  12.658844
1493837879166 -6.8300323  -2.2949371  13.485458
1493837879183 -5.089966 -10.378601  6.0007477
1493837879208 -1.2646637  -14.288422  2.5781708
1493837879227 1.7780304 -14.276978  1.0193024
1493837879247 5.5119324 -13.552811  0.5138855
1493837879267 6.615402  -10.622589  -0.7872772
1493837879286 3.8389282 -6.984955 0.4310913
1493837879306 -0.71894836 -6.3526306  2.3056488
1493837879321 -3.806427 -7.687332 1.5769348
1493837879344 -4.9090576  -9.352371 -0.4059906
1493837879364 -3.9281158  -9.646057 0.4754486
1493837879384 -1.3703156  -8.520721 1.3753967
1493837879404 0.4519043 -8.314804 0.19743347
1493837879424 1.5513  -9.373383 0.69129944
1493837879443 1.6048889 -10.6250305 2.0847473
1493837879463 0.8427429 -11.635223  0.16479492
1493837879483 0.818573  -11.75235 -2.7450562
1493837879522 1.563324  -12.697296  -2.9845886
1493837879542 1.3631592 -12.780014  -1.7962494
1493837879562 1.1516113 -12.12001 -3.4679565
1493837879582 1.8634796 -12.249268  -2.0852814
1493837879607 2.8551636 -13.538422  -4.197937
1493837879623 4.0809326 -16.668488  -2.7097778
1493837879642 2.0195923 -17.78865 -0.6074524
1493837879664 -3.0035248  -15.3216095 0.43858337
1493837879682 -5.819565 -13.39888 4.888214
1493837879702 -8.18219  -14.7738495 7.2556
1493837879723 -9.805801 -16.384552  1.3497467
1493837879738 -8.734726 -16.119583  -0.1694336
1493837879756 -5.454788 -12.671631  0.115722656
1493837879778 -0.64364624 -9.12558  2.000595
1493837879797 2.757248  -7.17601  4.2950134
1493837879817 3.001297  -6.4404755  3.064682
1493837879837 1.2503815 -5.7048187  1.528595
1493837879857 -0.8019104  -4.8612976  1.4818726
1493837879876 -2.9551086  -4.0691376  2.6193542
1493837879895 -3.853485 -2.8764038  4.160965
1493837879916 -3.5083466  -1.4203491  4.810028
1493837879936 -2.3010864  0.05883789  4.8365784
1493837879954 -1.1371002  0.13000488  4.1605225
1493837879977 -0.43963623 -2.36409  1.1575165
1493837879995 -1.4059753  -7.99588  -11.195526
1493837880017 -0.86105347 -15.7747345 -19.722397
1493837880037 5.7534637 -19.474823  -9.3506775
1493837880057 7.036148  -17.703827  -5.664444
1493837880076 3.8913116 -8.458099 -8.696854
1493837880096 1.149292  -2.23938  1.7225342
1493837880116 -5.560852 -8.036728 11.700882
1493837880135 -11.662811  -15.203827  -8.146744
1493837880155 -8.133667 -11.795731  -0.8270416
1493837880175 -4.392395 -6.6249237  12.145203
1493837880195 -3.3683472  -8.108185 10.231491
1493837880214 -1.0019836  -10.935379  4.361084
1493837880234 0.55371094  -11.656036  2.6352234
1493837880254 1.8657684 -11.596237  1.7904663
1493837880274 5.12027 -12.595322  1.265564
1493837880293 4.2929077 -11.3980255 -0.1817627
1493837880313 1.1872559 -8.599884 0.6676483
1493837880333 -2.3690186  -7.224228 2.0748138
1493837880354 -5.177841 -7.096756 0.66856384
1493837880372 -6.3636475  -8.422806 -1.738266
1493837880392 -2.4234314  -8.969727 -0.5604553
1493837880413 0.50834656  -8.028076 -0.8712921
1493837880431 1.065506  -7.894745 2.328888
1493837880451 1.6077118 -9.237152 6.3287506
1493837880492 2.573578  -10.7690735 1.0094452
1493837880510 2.1222534 -11.166153  -4.034317
1493837880528 0.052139282 -12.277267  -2.5233612
1493837880550 -3.2270813  -13.345871  -2.1110535
1493837880570 -0.73327637 -13.0169525 -1.7670135
1493837880589 5.1348877 -12.736588  -0.35221863
1493837880609 6.5865326 -12.03891 -2.3635254
1493837880629 2.4322357 -13.773727  -4.1168823
1493837880649 2.7926178 -16.893204  -5.0889435
1493837880668 0.38612366  -17.927414  -5.5644226
1493837880688 -1.6278381  -14.626465  3.2978668
1493837880708 -3.094574 -13.42952 7.7011414
1493837880727 -6.521942 -15.049683  3.9162445
1493837880747 -7.9655457  -18.459366  2.5911713
1493837880768 -8.5634 -17.97673 2.451767
1493837880787 -5.051697 -13.2148285 0.97994995
1493837880804 0.52934265  -8.780045 1.7589417
1493837880826 3.523285  -7.2513275  2.1231232
1493837880843 2.270401  -6.990265 1.9664001
1493837880864 0.32151794  -6.450058 1.7707062
1493837880885 -1.4172058  -5.3208923  2.2919922
1493837880905 -3.2236786  -3.8134155  3.0923767
1493837880925 -4.229828 -2.6744385  3.916092
1493837880944 -4.026718 -1.1379242  4.8083344
1493837880964 -3.8744507  0.7931671 5.6344147
1493837880984 -3.6203613  1.4116364 5.40625
1493837881004 -2.3392487  -0.8618927  2.428009
1493837881023 -1.3248596  -5.9684296  -10.97319
1493837881043 0.4203949 -14.988403  -19.722397
1493837881063 5.4335785 -19.474823  -10.6341095
1493837881084 6.242279  -19.474823  -5.9615784
1493837881102 3.795868  -10.372147  -8.242569
1493837881122 -1.0626526  -5.108032 -4.7326508
1493837881144 -5.021408 -11.839508  3.4976044
1493837881159 -5.7570953  -15.144897  3.258545
1493837881177 -2.3414154  -8.62294  4.096588
1493837881201 -3.406845 -3.6428528  9.548599
1493837881221 -5.812729 -5.629959 11.415283
1493837881241 -4.7192993  -10.957733  5.3708344
1493837881262 -2.3369598  -13.298904  3.414322
1493837881280 -1.016983 -11.954956  2.3536835
1493837881300 2.5018768 -11.611206  1.4039459
1493837881320 5.7444  -10.381653  1.0553284
1493837881337 3.092682  -8.3576355  0.14012146
1493837881355 -0.8377075  -7.5474854  1.4159088
1493837881375 -3.3868256  -7.5878143  1.4905853
1493837881396 -5.0512085  -7.990677 -0.089538574
1493837881432 -3.379364 -8.567139 -0.0033721924
1493837881453 -0.25430298 -8.809784 1.3725281
1493837881472 1.5205231 -9.076447 0.107803345
1493837881492 2.0886078 -10.411591  0.7152252
1493837881512 2.805069  -11.677658  0.6715698
1493837881531 2.6659393 -11.858505  -0.51652527
1493837881551 0.51322937  -12.22493 -3.3957367
1493837881575 -1.8604431  -12.899307  -3.2095795
1493837881595 -1.4556274  -12.659164  -1.139328
1493837881615 0.1451416 -13.100464  -1.6687012
1493837881635 2.9554138 -13.337265  -1.7035065
1493837881654 6.100708  -15.413086  -2.6812286
1493837881674 6.3768463 -17.4637  -3.8338013
1493837881694 -0.50686646 -17.776169  -4.876938
1493837881714 -5.0253906  -14.313477  3.665985
1493837881729 -6.3121643  -13.0412445 9.299316
1493837881753 -9.198532 -14.81192 2.5498962
1493837881773 -9.036942 -17.234436  0.4913025
1493837881793 -7.3762817  -16.014954  1.20047
1493837881812 -3.1557312  -11.677856  1.3874359
1493837881832 1.3153229 -8.36528  3.3092804
1493837881852 3.8276672 -6.6023254  3.6730652
1493837881872 2.5136566 -5.587143 2.3494873
1493837881891 0.33670044  -4.6490936  2.2022705
1493837881911 -1.5030365  -3.7826843  2.6211853
1493837881931 -3.1594849  -2.9821625  3.1104736
1493837881955 -3.867569 -2.1365204  4.2606964
1493837881970 -3.4241028  -0.93070984 4.6967316
1493837881990 -2.5054016  0.19865417  4.434189
1493837882010 -1.6330109  -0.7608185  3.8825073
1493837882029 -1.0704956  -4.539505 -2.620102
1493837882049 1.4866791 -12.946014  -14.772339
1493837882069 1.6133575 -18.569138  -19.722397
1493837882088 5.650833  -19.474823  -9.682816
1493837882108 4.200485  -12.420029  -8.001724
1493837882128 3.3700867 -2.055664 -5.1279297
1493837882148 -1.7359467  -3.6638794  4.747162
1493837882167 -9.490799 -14.605499  8.682846
1493837882187 -6.5690765  -17.239273  -11.9075165
1493837882204 -3.0962372  -9.520599 3.453186
1493837882227 -3.451233 -4.191513 13.899307
1493837882247 -3.8805695  -5.918442 9.662369
1493837882267 -0.9255371  -9.331345 3.6763306
1493837882286 -0.38775635 -11.882156  3.209793
1493837882306 0.8341217 -12.890671  2.7963562
1493837882326 4.7454224 -13.39505 0.010940552
1493837882346 3.8958588 -10.90831 -1.1941376
1493837882366 1.1679382 -7.9311676  1.8880005
1493837882385 -1.5844574  -7.18631  3.4330444
1493837882405 -3.843567 -7.6690216  0.56108093
1493837882444 -4.9587097  -9.270203 -0.98735046
1493837882464 -2.4960785  -9.522369 -2.120041
1493837882484 -0.79400635 -8.497681 -0.038024902
1493837882504 0.9862671 -7.8115997  3.1407776
1493837882523 1.6961212 -9.337875 2.639267
1493837882543 1.820816  -11.563309  0.39614868
1493837882563 1.7566833 -11.915848  -2.9620514
1493837882584 0.2852173 -12.3042145 -2.5946808
1493837882602 -1.8206482  -13.037918  -1.3983002
1493837882622 -0.3914032  -12.728226  -2.0501556
1493837882643 4.3374023 -12.660812  -2.545105
1493837882662 5.85141 -12.733826  -3.932373
1493837882681 3.9094238 -15.849121  -4.2873077
1493837882703 2.3218231 -17.891937  -6.6355896
1493837882718 -0.950531 -16.525436  0.09744263
1493837882740 -1.9846497  -14.100952  6.9262543
1493837882760 -4.8871613  -14.599396  5.7972717
1493837882780 -7.8304443  -16.230606  2.6833954
1493837882800 -8.404587 -16.740768  2.2522125
1493837882817 -6.848221 -14.858856  1.8375092
1493837882839 -1.8053894  -11.053177  1.8243103
1493837882859 2.6623535 -8.470917 3.1617737
1493837882877 3.349411  -7.247772 2.0957794
1493837882898 1.2309875 -6.310501 1.2157745
1493837882918 -0.56547546 -5.239746 2.1540222
1493837882938 -2.369522 -4.024826 2.8018036
1493837882957 -3.8400269  -3.0562897  3.0796356
1493837882977 -4.007324 -2.225357 3.7961884
1493837882997 -3.421692 -0.6724396  4.6026154
1493837883017 -3.2624817  0.8273773 5.022644
1493837883036 -2.6641693  -0.06552124 4.036133
1493837883056 -2.054016 -4.0821533  -4.0315247
1493837883076 1.2818909 -12.708984  -15.827011
1493837883096 3.1469421 -18.438217  -19.722397
1493837883115 6.728119  -19.474823  -8.125168
1493837883133 3.640808  -12.269348  -8.2634735
1493837883155 0.1315918 -5.7281647  -3.1672668
1493837883175 -6.640259 -11.248413  2.2251587
1493837883194 -4.8611755  -16.485214  0.9114075
1493837883216 -2.7414856  -12.068314  2.844513
1493837883234 -0.99850464 -3.6015625  8.940567
1493837883254 -4.0287933  -1.8879089  12.303986
1493837883273 -7.0427856  -9.707016 7.1537323
1493837883293 -1.6411438  -10.067856  3.623886
1493837883313 -0.053375244  -12.9071045 1.3049774
1493837883334 2.5009766 -11.625687  -0.3782196
1493837883352 6.1895294 -10.604904  1.069107
1493837883394 4.4915924 -8.88382  -0.7503662
1493837883394 0.3138733 -7.492798 1.7230682
1493837883431 -3.0628052  -7.051697 2.0170746
1493837883453 -5.2438354  -7.6714935  0.2895813
1493837883471 -5.588028 -8.725708 -0.7868805
1493837883491 -1.990387 -8.787933 0.50549316
1493837883512 1.0185242 -8.997635 1.161026
1493837883530 2.2713013 -10.196716  2.0135345
1493837883550 2.6316528 -11.319458  1.592926
1493837883569 2.640625  -11.654404  -0.5467987
1493837883589 1.4020233 -12.575714  -2.4964752
1493837883609 -1.2756653  -13.257309  -3.5259094
1493837883629 -2.2001953  -12.866425  -2.934784
1493837883648 1.3077393 -13.255157  -1.0227661
1493837883668 4.058487  -12.975845  -0.47239685
1493837883688 4.2664795 -13.461182  -3.0365448
1493837883708 4.92247 -15.701019  -3.277298
1493837883727 2.5404053 -16.678635  -4.664627
1493837883747 -2.2976837  -15.415024  -1.5623474
1493837883767 -3.8025208  -13.747299  7.5820007
1493837883786 -6.348999 -14.218231  8.455261
1493837883806 -8.535965 -15.787888  1.1442566
1493837883826 -7.5602417  -16.75885 -0.015640259
1493837883843 -4.896744 -14.274307  1.4897614
1493837883863 -0.33828735 -10.247314  3.3392334
1493837883885 2.9938507 -7.927109 4.446945
1493837883905 3.0865479 -6.998398 2.5666046
1493837883925 0.49499512  -6.34256  1.2909241
1493837883944 -1.6888123  -5.583847 2.079071
1493837883964 -2.9841766  -4.352539 3.27565
1493837883984 -3.6993256  -2.641037 3.8981323
1493837884004 -3.611374 -0.76161194 4.3200836
1493837884023 -3.2274323  1.1349945 4.473755
1493837884043 -2.82872  1.0841827 3.8072968
1493837884063 -1.7443848  -2.1169128  -0.916626
1493837884084 -0.52142334 -8.700226 -14.530502
1493837884102 1.9476471 -17.01529 -19.722397
1493837884122 8.234833  -19.474823  -6.550247
1493837884144 5.8107605 -16.69484 -6.3184357
1493837884162 2.6733246 -6.872864 -6.831543
1493837884181 -4.847824 -9.616913 -1.3227386
1493837884199 -6.661545 -17.015259  7.465912
1493837884222 -5.2434998  -11.219788  -1.5441132
1493837884241 -4.9806366  -3.3886414  3.0928192
1493837884260 -6.783478 -1.967102 13.890396
1493837884280 -5.8600616  -9.595398 7.9142914
1493837884300 -1.393219 -12.584854  3.648941
1493837884319 0.61213684  -14.630066  2.7552185
1493837884339 3.5541382 -12.046783  1.6270752
1493837884360 7.2951813 -11.51709 0.91659546
1493837884379 4.9990845 -9.487061 -1.1107025
1493837884416 1.364624  -7.576523 1.5405121
1493837884438 -2.5082397  -7.387268 3.0568542
1493837884458 -4.7861786  -7.794037 0.72535706
1493837884477 -6.2479095  -8.643784 -1.3244629
1493837884497 -3.8494263  -8.940292 -1.0196686
1493837884517 -0.20802307 -8.250732 0.23106384
1493837884537 1.5781403 -7.891449 1.2814789
1493837884556 1.7139282 -9.214859 3.2612
1493837884576 1.5001678 -11.219818  1.7906647
1493837884596 1.5560455 -11.95047 -0.9217529
1493837884616 1.3096771 -12.511719  -3.0356598
1493837884635 -0.11604309 -12.981979  -3.2228851
1493837884655 -1.0375519  -12.976227  -2.4446716
1493837884675 1.042923  -13.1353  -2.4005432
1493837884694 3.3658142 -12.863327  -3.1214294
1493837884714 4.372711  -14.272217  -4.218796
1493837884734 4.931778  -17.15747 -4.5608063
1493837884754 1.0137329 -17.642319  -4.11438
1493837884778 -2.4830017  -14.926437  3.309906
1493837884790 -4.9209595  -14.029083  7.7598724
1493837884810 -8.111237 -16.259415  4.2600403
1493837884830 -9.173065 -18.199295  2.0819855
1493837884850 -7.8555756  -16.461365  1.5753174
1493837884868 -3.6232147  -11.807938  1.6081238
1493837884889 1.3000336 -8.226746 2.958969
1493837884909 3.8025055 -6.278839 2.9866943
1493837884929 2.1242523 -5.296417 2.507965
1493837884948 -0.24523926 -4.778015 2.8759155
1493837884968 -1.5208282  -4.288788 2.9741821
1493837884988 -2.8003082  -3.6328888  3.0365448
1493837885011 -3.4561005  -2.926773 3.5722198
1493837885030 -3.0787048  -1.4705658  4.161072
1493837885050 -2.2795715  0.5629425 4.340912
1493837885069 -1.8356628  -0.11778259 3.520111
1493837885089 -1.6125183  -3.5723267  -3.8500519
1493837885109 2.078476  -11.08107 -16.248932
1493837885129 -0.7962799  -17.978409  -19.722397
1493837885148 4.4259796 -19.474823  -7.694046
1493837885168 2.5126343 -13.461304  -8.4170685
1493837885188 1.0236511 -4.267914 -6.4877167
1493837885208 -2.6249542  -3.2210236  1.0684204
1493837885227 -7.5238037  -12.436951  8.801849
1493837885247 -5.097992 -17.929977  -4.109009
1493837885267 -2.0684814  -11.992935  0.6507721
1493837885286 -2.585678 -7.0771027  9.615723
1493837885306 -4.3858795  -6.507721 11.729767
1493837885326 -1.7528839  -8.521194 6.2880554
1493837885346 0.61405945  -10.010071  2.9750824
1493837885385 1.792984  -11.243057  0.9721832
1493837885405 3.8737946 -12.430344  1.0183105
1493837885425 4.4636383 -11.447296  -0.9658661
1493837885444 1.7950897 -8.43454  0.62849426
1493837885464 -1.5450134  -7.024597 2.3961487
1493837885484 -4.121063 -7.4983063  1.2962036
1493837885504 -5.579239 -8.34993  0.036087036
1493837885523 -3.2071838  -8.843369 -0.18174744
1493837885543 0.2441101 -8.858307 0.6245117
1493837885563 1.6095886 -8.697601 1.1393738
1493837885584 1.6166687 -9.449554 2.4253387
1493837885602 1.6847534 -10.993622  2.5149078
1493837885622 1.9772949 -11.640518  -0.9996338
1493837885643 1.5150146 -12.316376  -3.3184967
1493837885662 -0.3397522  -13.220642  -3.0711517
1493837885681 -1.6581879  -13.042267  -1.992691
1493837885703 0.92370605  -12.745041  -1.3778992
1493837885721 3.7290344 -12.454269  -2.4719543
1493837885741 3.5585175 -13.501251  -4.536194
1493837885760 3.3409424 -16.450958  -4.291855
1493837885780 1.4925232 -17.081604  -3.9697723
1493837885799 -1.861023 -14.444199  1.6030426
1493837885819 -3.3440857  -12.614899  7.4379883
1493837885839 -5.341507 -14.455429  4.8298798
1493837885859 -6.6102448  -17.711533  1.4488678
1493837885879 -7.3274994  -18.629303  1.5934143
1493837885898 -5.3839264  -14.793808  1.0871124
1493837885918 -0.7909088  -9.932266 2.0877075
1493837885938 2.7353516 -7.4509735  3.0711975
1493837885957 2.5897522 -6.670883 2.2477875
1493837885977 0.49440002  -5.933243 1.8575134
1493837885997 -1.5777435  -5.0670166  2.4040985
1493837886017 -2.9589996  -3.6896057  2.8694
1493837886036 -3.5029755  -2.43219  3.506363
1493837886056 -3.0819855  -1.1329803  4.1232758
1493837886076 -2.734146 0.67803955  4.772812
1493837886096 -2.635788 0.943985  5.021637
1493837886115 -1.1843262  -1.533371 2.4831238
1493837886135 -0.27944946 -6.720871 -8.994873
1493837886155 -1.4560547  -17.228363  -18.202911
1493837886174 5.0773163 -19.474823  -10.239761
1493837886194 6.8834534 -19.474823  -5.7638702
1493837886214 2.6158142 -10.585449  -7.579056
1493837886234 3.0789337 -2.7103577  -0.38996887
1493837886253 -5.0498505  -11.388031  1.7365417
1493837886273 -5.8355713  -18.31308 3.21492
1493837886293 -6.148926 -13.722748  -8.520309
1493837886313 -6.429245 -7.887497 10.311798
1493837886334 -7.277664 -3.4785461  14.159744
1493837886371 -4.7835693  -6.1619415  7.7555084
1493837886393 -0.730011 -7.70047  4.3260193
1493837886409 0.43701172  -11.2765045 3.4146729
1493837886442 4.822113  -14.116348  1.120163
1493837886447 7.14357 -14.132019  -0.29763794
1493837886466 3.1171875 -9.285614 -1.4649353
1493837886486 -0.70280457 -6.3254395  2.4478455
1493837886509 -3.56073  -5.983444 2.1701202
1493837886529 -6.570236 -8.026367 -1.1656952
1493837886549 -4.524826 -9.144699 -0.5195923
1493837886569 -1.2910614  -8.811249 0.7216797
1493837886588 0.5213928 -8.653549 -0.0864563
1493837886608 1.1657257 -9.66777  1.8986664
1493837886628 0.9103699 -11.218948  2.9129639
1493837886648 1.0422211 -11.085037  0.0231781
1493837886667 1.2362823 -11.470749  -2.4685822
1493837886687 0.12875366  -12.869614  -2.3242493
1493837886707 -0.92840576 -13.02681 -0.89701843
1493837886722 1.353714  -12.86441 -0.71910095
1493837886747 4.8258667 -12.302231  -0.934906
1493837886767 5.165512  -13.31636 -2.915985
1493837886786 4.549698  -16.276367  -4.2535706
1493837886806 2.3126526 -17.516846  -4.569824
1493837886826 -1.8608246  -15.841537  -0.8535156
1493837886846 -3.3467712  -13.298325  5.8437653
1493837886865 -5.75029  -13.067139  6.46257
1493837886885 -7.8915863  -15.520325  2.5797577
1493837886905 -8.506454 -17.598267  2.0735474
1493837886925 -6.8098755  -15.561584  1.4072113
1493837886944 -2.203064 -11.412552  1.5844269
1493837886966 2.4142609 -8.396927 2.8725433
1493837886984 2.9253845 -7.156845 2.5849304
1493837887003 1.0160675 -6.062149 1.7069244
1493837887023 -0.6345825  -5.130539 1.3387451
1493837887043 -2.2447815  -4.0693817  1.702301
1493837887064 -3.6633148  -3.461319 2.392517
1493837887082 -3.8240662  -2.8775482  3.7659302
1493837887102 -3.4547424  -1.8436279  4.614731
1493837887124 -3.295807 -0.06892395 4.9232483
1493837887142 -2.8406982  0.447464  4.22937
1493837887161 -1.288269 -2.043274 1.2033386
1493837887183 -0.26490784 -8.320999 -15.4939575
1493837887201 -1.6758881  -18.199387  -19.546417
1493837887221 7.5520782 -19.474823  -7.176117
1493837887238 5.954544  -18.312592  -7.877533
1493837887258 1.6452637 -6.9056244  -8.951965
1493837887280 -4.532593 -11.444321  0.2259674
1493837887319 -2.1079712  -17.13501 5.8044434
1493837887320 -2.1852264  -9.984604 1.9880829
1493837887358 -4.111496 -1.6341858  5.083618
1493837887378 -7.2937775  -0.618103 13.46286
1493837887398 -6.443344 -8.136597 6.7335052
1493837887418 -2.3574524  -13.576813  3.2253723
1493837887438 -0.06562805 -14.547134  2.4066772
1493837887457 1.5612488 -11.955475  0.6892395
1493837887477 4.8938446 -11.34816 0.9195404
1493837887494 4.9615173 -8.68927  0.009506226
1493837887517 1.3949585 -7.205475 1.5281067
1493837887536 -1.9178314  -7.6862946  2.2995453
1493837887556 -3.6359863  -8.262299 1.1649628
1493837887576 -4.1970367  -8.751633 -0.5565338
1493837887596 -3.028122 -9.013321 -0.33384705
1493837887615 -0.4189911  -8.773499 1.6136322
1493837887635 1.3024902 -8.916275 2.488037
1493837887655 1.5476837 -10.263733  3.002365
1493837887674 1.4168549 -11.496124  0.8239441
1493837887696 1.8138275 -11.828476  -2.5403595
1493837887714 1.568512  -12.5121765 -2.670929
1493837887734 -0.13900757 -12.935043  -1.242279
1493837887754 -2.424591 -12.59581 -1.2059174
1493837887773 -1.6922913  -12.799271  -2.4746246
1493837887793 1.5885468 -13.003693  -1.8786774
1493837887813 4.5307617 -14.005096  -1.4063568
1493837887834 7.037323  -16.39383 -0.9362335
1493837887852 4.7975006 -17.096832  -3.7068481
1493837887869 -1.9458466  -15.18364 -5.1871796
1493837887893 -4.297119 -13.084503  5.470169
1493837887911 -5.5831757  -12.675568  10.610016
1493837887931 -7.804291 -14.89418 3.9316254
1493837887953 -8.038635 -16.731491  -0.61001587
1493837887971 -5.475128 -14.717072  -0.5856781
1493837887991 -1.1692505  -11.020462  1.2844238
1493837888012 2.8613129 -8.629135 3.8301392
1493837888030 3.1742096 -7.6743774  2.9489136
1493837888050 1.3216705 -6.614441 1.1079407
1493837888069 -0.47561646 -5.356949 1.7647552
1493837888089 -1.9849548  -3.9353027  2.0707703
1493837888109 -3.379013 -2.8704681  3.2719269
1493837888126 -3.658554 -1.9468384  4.0252686
1493837888148 -3.1658478  -0.46594238 4.2468414
1493837888168 -2.7716827  0.8632965 4.434555
1493837888188 -1.8323975  -0.030334473  4.227951
1493837888207 -0.91108704 -3.7305298  -0.23703003
1493837888227 -2.066803 -11.355576  -18.165695
1493837888247 -0.26223755 -19.012695  -19.722397
1493837888269 10.085663 -19.474823  -3.7546692
1493837888286 2.585678  -14.745728  -10.718658
1493837888306 1.8715515 -6.0486603  -3.234146
1493837888346 -3.1175995  -11.644867  7.0665894
1493837888365 -6.638687 -15.540268  -0.16127014
1493837888385 -4.363022 -10.118164  1.0776215
1493837888404 -3.6803894  -3.4319153  13.060837
1493837888425 -4.8731995  -2.991623 11.438583
1493837888444 -5.6962585  -9.892593 2.8932648
1493837888464 -0.70487976 -11.146988  1.9037323
1493837888484 0.6127167 -13.738052  1.9420471
1493837888504 2.9016876 -12.74115 1.8941803
1493837888523 4.9602966 -10.239975  1.1254578
1493837888543 2.5635986 -7.8725586  0.87135315
1493837888563 -0.8563385  -7.371292 2.0249481
1493837888583 -3.3264008  -7.8450623  1.9363098
1493837888604 -4.7698975  -8.396774 0.50968933
1493837888622 -4.6516113  -8.790787 -0.7255554
1493837888642 -2.064804 -8.788544 0.20013428
1493837888663 0.9263153 -8.808243 0.6723175
1493837888679 2.3889008 -10.08168 1.5335541
1493837888698 1.9598083 -11.796707  2.018036
1493837888722 1.9692688 -11.83931 -0.55947876
1493837888741 2.293335  -11.870483  -3.2953491
1493837888760 0.9840698 -12.795898  -3.0104828
1493837888780 -1.8429871  -12.729996  -2.2394257
1493837888799 -2.7797241  -12.850098  -2.8521118
1493837888819 0.8021393 -13.971802  -3.2233276
1493837888839 5.232483  -15.3585205 -1.979126
1493837888859 7.4107513 -16.33374 -1.62677
1493837888877 4.144623  -16.132736  -3.1194153
1493837888898 -1.2818298  -14.726913  1.2725372
1493837888918 -4.4850464  -13.711227  8.613861
1493837888938 -8.698029 -14.803604  6.800125
1493837888957 -9.627716 -17.328629  1.3728638
1493837888977 -7.9199066  -17.016693  -0.41323853
1493837888997 -4.144058 -12.906616  0.8116455
1493837889017 0.34570313  -9.235367 3.3756866
1493837889036 2.7816467 -7.7519226  3.8045502
1493837889056 2.794342  -6.628525 1.5725708
1493837889076 1.374115  -5.700226 1.0359039
1493837889096 -0.7713623  -4.967102 1.4718475
1493837889115 -2.2892303  -3.4574738  2.47406
1493837889133 -3.5772705  -2.7978058  4.190933
1493837889155 -3.2803345  -2.0148773  5.253769
1493837889174 -3.1840973  -0.4387207  5.094986
1493837889194 -2.9333801  0.47381592  4.7644806
1493837889214 -1.5273743  -1.5770874  3.3316498
1493837889234 -1.7978516  -6.7936554  -7.843094
1493837889254 0.13383484  -18.11023 -19.306442
1493837889273 2.2878723 -19.460266  -10.923111
1493837889314 7.144882  -19.420654  -5.1479187
1493837889333 0.44309998  -7.930313 -9.948944
1493837889352 -1.1228027  -5.6846466  4.004257
1493837889374 -6.858658 -13.693924  6.2032013
1493837889392 -6.2199707  -16.178604  -2.7619934
1493837889411 -1.895874 -8.546982 4.3580017
1493837889433 -2.5015564  -4.3760834  9.998428
1493837889451 -4.7630157  -6.5871735  8.954758
1493837889471 -1.3681183  -9.561996 4.840851
1493837889492 1.8227234 -10.854507  3.294403
1493837889510 2.633316  -11.165161  0.6833496
1493837889530 2.396881  -10.711975  0.6169739
1493837889550 1.6562347 -9.620697 0.1446991
1493837889569 -0.89845276 -8.245575 2.1554718
1493837889589 -2.6328888  -7.6766663  2.3133698
1493837889609 -4.0490875  -8.016647 0.6334381
1493837889628 -4.00296  -8.90535  -0.83218384
1493837889648 -1.9095459  -9.54422  -0.5778198
1493837889668 0.15951538  -9.418396 0.26013184
1493837889688 1.4033508 -9.385788 1.0545807
1493837889707 2.3301544 -10.2901  2.1489868
1493837889727 2.5827026 -11.401855  1.6604614
1493837889747 2.149231  -11.816818  -1.295166
1493837889767 1.2183533 -12.301636  -3.176773
1493837889786 -0.7129364  -12.6311035 -2.7357025
1493837889806 -2.1737213  -12.335571  -2.1692505
1493837889826 -0.62939453 -12.553558  -2.0778198
1493837889846 2.8922577 -13.43071 -2.9454498
1493837889865 5.725403  -15.45192 -2.9121246
1493837889885 5.7599487 -17.4292  -2.5979767
1493837889905 1.0532379 -16.410965  -2.2675476
1493837889925 -3.0364685  -13.696564  3.9530182
1493837889944 -5.825638 -13.404556  9.109543
1493837889964 -8.101227 -15.153702  4.010025
1493837889984 -8.228882 -16.921982  0.7038727
1493837890004 -6.422867 -15.751633  0.25846863
1493837890023 -1.8871613  -11.963638  1.6667328
1493837890043 3.0067596 -8.920258 4.0969696
1493837890063 3.490219  -7.888916 2.7841797
1493837890084 1.6674042 -6.5893555  0.69810486
1493837890102 -0.60017395 -5.5474854  1.6868439
1493837890122 -2.1460266  -3.9224396  2.7390594
1493837890144 -3.5071259  -2.7068176  3.5449677
1493837890162 -4.369583 -2.179779 4.233139
1493837890181 -4.1951294  -0.668396 4.573303
1493837890203 -3.641861 0.93258667  4.4068756
1493837890221 -2.8486786  -0.062149048  3.2699127
1493837890241 -0.97302246 -3.695877 -1.6428528
1493837890262 0.6231537 -11.13147 -19.417969
1493837890299 -3.473343 -19.474823  -19.66893
1493837890319 9.039383  -19.24614 -3.0829926
1493837890339 3.958374  -13.821869  -9.2512665
1493837890359 0.8221588 -4.238159 -7.9453125
1493837890376 -2.6525269  -6.9707184  1.6812134
1493837890394 -1.5601501  -13.470245  6.712372
1493837890414 -2.7999878  -12.747421  -0.015365601
1493837890436 -3.3242493  -6.6023865  4.8050537
1493837890451 -5.841751 -4.532654 11.944504
1493837890471 -5.846863 -7.7999115  7.6976013
1493837890491 -2.6593933  -10.960403  3.6034698
1493837890511 -0.14108276 -12.466019  2.4249268
1493837890530 2.3684845 -12.36792 1.0251923
1493837890550 5.162262  -12.257248  0.6356201
1493837890570 4.580414  -9.859833 0.5709076
1493837890590 1.0666504 -8.007263 1.5336761
1493837890609 -2.0413513  -7.659256 1.4893036
1493837890629 -4.286026 -8.110275 0.14245605
1493837890649 -5.1401825  -9.027084 -1.5852814
1493837890669 -3.0963593  -9.211197 -1.4486542
1493837890688 0.22784424  -8.498169 0.18255615
1493837890708 1.9708099 -8.436661 2.2867126
1493837890728 1.6596832 -9.779022 4.0355225
1493837890747 0.7446594 -11.490555  1.8529663
1493837890767 0.75668335  -12.19957 -3.0583496
1493837890787 1.154007  -12.42923 -3.6526337
1493837890807 -0.023361206  -12.299561  -2.5084686
1493837890826 -1.3362122  -12.413269  -2.5724487
1493837890846 0.03677368  -12.86171 -2.7523956
1493837890866 2.7749023 -13.4729  -4.3507843
1493837890885 5.120346  -16.040695  -2.8992615
1493837890905 5.7694397 -17.842285  -2.5493622
1493837890925 1.3594055 -16.031174  -2.3256836
1493837890945 -1.794754 -13.731003  5.0345306
1493837890964 -5.1732483  -14.758438  9.138702
1493837890984 -8.544861 -17.82547 4.133606
1493837891005 -9.51236  -18.82132 1.1460114
1493837891029 -7.3918 -15.2556  0.63157654
1493837891048 -2.2975311  -10.611435  2.4030457
1493837891068 2.9641876 -7.829956 3.6920013
1493837891084 2.9898376 -7.0364075  2.4914703
1493837891108 1.355545  -5.764618 1.2921753
1493837891129 -0.51091003 -4.9445343  2.0048065
1493837891148 -2.0504608  -3.574234 2.4884796
1493837891168 -3.4354095  -2.4545135  3.7691803
1493837891188 -4.1877594  -1.8848724  4.389923
1493837891208 -3.8812103  0.09020996  5.1163177
1493837891227 -3.5173645  1.3338776 4.8565063
1493837891247 -1.9973145  -0.96499634 3.4268646
1493837891286 -0.82569885 -5.4376526  -4.947235
1493837891306 2.9217682 -13.917328  -19.722397
1493837891326 -0.78427124 -19.474823  -18.92981
1493837891346 8.623962  -19.011765  -2.5933838
1493837891365 2.5752869 -11.480072  -10.325607
1493837891385 1.8722076 -2.3811188  -6.011139
1493837891405 0.11088562  -5.231491 5.545578
1493837891425 -2.9842377  -15.7140045 8.981293
1493837891444 -6.532898 -17.516006  -8.387573
1493837891463 -6.1897583  -8.4309845  4.577347
1493837891484 -6.3835907  -3.6372833  12.761154
1493837891504 -4.2341003  -5.742584 8.310181
1493837891523 -1.2086182  -11.063599  3.237671
1493837891543 1.3881226 -12.659363  1.9799194
1493837891563 3.4172058 -12.891602  1.2373505
1493837891585 4.753845  -13.088455  1.0186615
1493837891603 2.7326202 -9.979904 -0.1892395
1493837891622 -0.17704773 -7.2815094  1.7748413
1493837891644 -2.6603088  -6.764694 2.6010132
1493837891662 -4.1869507  -7.4721985  1.1539001
1493837891682 -3.8922882  -8.6528015  -0.59129333
1493837891703 -1.4467163  -9.26619  -0.9398804
1493837891718 0.49824524  -9.204468 0.052017212
1493837891740 1.3471375 -9.20726  1.9148254
1493837891762 1.4097137 -10.421341  2.5998077
1493837891780 1.5469513 -12.23233 0.70669556
1493837891800 2.3605347 -12.949753  -2.7033691
1493837891819 2.5000916 -13.110764  -3.0459747
1493837891839 0.49806213  -12.594025  -1.4929504
1493837891859 -1.2320557  -12.455383  -3.129074
1493837891879 0.70043945  -12.687439  -2.5740967
1493837891898 3.651352  -13.378296  -2.5008545
1493837891918 5.0370636 -15.726852  -2.879242
1493837891937 4.9398804 -17.305939  -4.344696
1493837891958 0.40019226  -16.448761  -2.9819489
1493837891977 -2.665985 -14.123535  4.290329
1493837891997 -5.0514374  -14.380402  9.068069
1493837892017 -8.069626 -16.316528  5.165924
1493837892037 -8.476425 -17.729248  0.9929962
1493837892056 -7.2005615  -16.297424  0.02168274
1493837892076 -3.4256592  -11.917252  0.7550049
1493837892096 1.6634521 -8.906235 2.909195
1493837892116 3.388855  -7.3479004  3.8023682
1493837892135 1.3287964 -5.8043823  2.0999146
1493837892155 -1.0553741  -4.411667 1.5786133
1493837892175 -2.0508575  -3.2624054  1.8317871
1493837892194 -2.8940735  -2.0953217  2.9992676
1493837892214 -3.6654968  -2.0659027  4.0102386
1493837892234 -3.0219727  -0.977417 4.966049
1493837892273 -3.3254852  0.55519104  4.7814484
1493837892293 -3.205017 0.24125671  4.296341
1493837892313 -1.3838959  -3.1162567  -0.29449463
1493837892333 -0.6859894  -9.809402 -19.722397
1493837892354 -1.2190399  -19.474823  -18.366837
1493837892372 6.7895355 -19.245377  -4.596817
1493837892392 3.6854858 -15.672333  -7.200592
1493837892413 0.32400513  -3.664917 -8.950104
1493837892431 -1.2120819  -2.2961273  0.09411621
1493837892451 -3.1870422  -12.9800415 9.395828
1493837892473 -4.4664917  -15.607712  3.5753937
1493837892491 -2.7763062  -8.170853 -1.0161896
1493837892510 -5.3876495  -5.0526886  10.308105
1493837892530 -5.2929077  -7.146118 10.501129
1493837892550 -2.014511 -10.935669  4.496155
1493837892570 0.0010681152  -11.999893  2.4076996
1493837892589 1.8481903 -12.290863  1.2520142
1493837892609 4.767166  -11.751236  0.9858246
1493837892629 4.710449  -9.985107 0.38249207
1493837892649 1.1962433 -8.185486 0.8196564
1493837892668 -1.8197479  -7.4559937  1.4329376
1493837892688 -4.2211 -7.8653107  0.66381836
1493837892708 -5.042206 -8.663208 -0.56004333
1493837892727 -3.164627 -9.171783 -0.7068176
1493837892747 -0.39370728 -9.077698 -0.091308594
1493837892767 1.4438171 -8.99176  0.33450317
1493837892787 2.3369598 -9.913147 1.9360809
1493837892806 2.640274  -11.151978  1.9294739
1493837892825 2.844818  -11.898239  -0.79267883
1493837892846 2.0278473 -12.4079895 -2.9502258
1493837892866 -0.4969635  -12.537598  -3.8385773
1493837892885 -1.7377625  -12.713699  -2.9337616
1493837892905 0.25367737  -12.5481415 -1.7176971
1493837892925 2.1136627 -12.942795  -3.350708
1493837892945 4.044281  -15.72403 -2.285492
1493837892964 4.8936005 -18.326538  -3.6035156
1493837892984 0.23231506  -16.51384 -4.179184
1493837893004 -2.890152 -13.43309 4.1594086
1493837893024 -3.8450012  -12.905365  8.005829
1493837893043 -6.449173 -15.798386  4.9198
1493837893063 -6.990555 -18.262787  1.559555
1493837893083 -6.5944977  -17.051346  -0.12036133
1493837893104 -2.8174896  -12.335266  0.8454895
1493837893122 2.3129578 -8.749008 3.1060333
1493837893142 3.2431335 -7.441452 3.585434
1493837893163 1.1755371 -6.6655884  2.0585632
1493837893182 -0.69493103 -5.7538757  2.0343475
1493837893201 -2.4154816  -4.813141 2.6371307
1493837893223 -3.5820618  -3.0184937  3.2642822
1493837893260 -4.396164 -2.3877563  3.9678345
1493837893282 -3.730072 -0.6311798  4.2571106
1493837893300 -3.1844482  1.3285217 4.321472
1493837893320 -2.5885162  0.6286011 4.2417297
1493837893339 -0.8636322  -3.0844269  -0.85432434
1493837893359 -1.5427246  -9.979919 -18.51506
1493837893379 -1.7384644  -19.474823  -17.408203
1493837893399 8.597992  -19.18991 -2.342163
1493837893418 5.470627  -15.474487  -8.000656
1493837893438 2.0085754 -4.201599 -8.407043
1493837893458 2.6787567 -1.8815155  3.5302277
1493837893478 -3.0598907  -12.801422  8.396591
1493837893497 -7.5755615  -17.157639  -0.7416992
1493837893517 -6.044327 -8.592545 2.4224548
1493837893537 -7.230484 -4.1634216  12.526688
1493837893556 -6.0962067  -6.1408386  8.971191
1493837893576 -3.4522552  -11.453552  3.733841
1493837893596 -0.06391907 -12.018814  2.7514954
1493837893616 2.980835  -12.715485  1.5179596
1493837893635 6.274002  -12.57579 0.7902832
1493837893655 5.7177124 -10.843185  -0.13059998
1493837893675 1.888504  -8.529968 0.30014038
1493837893695 -1.3593445  -7.6399384  1.0443115
1493837893714 -3.604538 -7.8499756  1.0141907
1493837893734 -4.522751 -8.534836 -0.104522705
1493837893754 -3.0130005  -8.988907 -1.6520538
1493837893774 -0.41818237 -8.72525  -1.6827393
1493837893793 1.1178131 -8.398788 0.61195374
1493837893813 1.4128418 -8.912903 3.198227
1493837893833 1.1947021 -10.751846  3.778595
1493837893854 1.5111542 -11.631226  1.5562439
1493837893872 1.6208801 -11.594299  -2.2100372
1493837893892 -0.27001953 -12.115814  -2.4595032
1493837893914 -3.063324 -12.62381 -2.2619934
1493837893932 -1.1709747  -13.288437  -2.527237
1493837893951 4.0793304 -12.918976  -1.5659027
1493837893992 5.798111  -14.635956  -2.510437
1493837893993 6.0433197 -16.827713  -3.9062042
1493837894010 3.4190063 -17.03331 -7.225464
1493837894027 -1.8955536  -14.340134  -2.602005
1493837894045 -2.51828  -12.683762  10.099976
1493837894064 -5.711258 -13.230286  7.742386
1493837894083 -7.23143  -17.284409  1.7511749
1493837894103 -7.575302 -18.921967  0.35961914
1493837894128 -5.817169 -15.710358  0.0030975342
1493837894143 -0.9649658  -10.549713  2.239914
1493837894163 3.4461212 -7.6753387  3.5844116
1493837894202 2.3378906 -7.063141 2.5024567
1493837894221 0.48744202  -5.820511 1.7452545
1493837894241 -1.1451263  -4.774765 2.3349
1493837894261 -2.281067 -3.6057281  2.442505
1493837894281 -3.1682434  -2.672409 2.9760437
1493837894300 -3.7006989  -2.5162811  3.2914581
1493837894320 -3.159958 -1.1371918  4.036194
1493837894340 -3.2287903  0.6931915 4.5304565
1493837894360 -2.8259125  -0.1252594  3.8536682
1493837894379 -0.9079895  -4.0534515  -0.6411133
1493837894399 -1.0786133  -11.182861  -12.1297
1493837894419 1.0741119 -19.474823  -16.491638
1493837894439 8.86824 -19.412537  -5.7169647
1493837894458 6.323181  -15.600037  -6.479141
1493837894478 1.6260376 -5.0192566  -5.2033997
1493837894498 -0.44229126 -6.93869  4.864731
1493837894518 -3.3980713  -16.357483  3.962143
1493837894537 -5.9786835  -14.306992  -1.451767
1493837894557 -6.651718 -5.001236 7.3703003
1493837894577 -7.0002594  -2.065506 12.268814
1493837894596 -4.7447205  -7.097229 6.2565765
1493837894616 -2.0434875  -13.101181  2.6947327
1493837894636 0.5463257 -12.896027  2.6266174
1493837894656 2.9867249 -12.007889  1.7807617
1493837894675 5.1912384 -11.185791  0.42668152
1493837894695 3.936203  -9.148544 0.0071258545
1493837894715 0.7064209 -7.626877 1.7194366
1493837894735 -1.9988403  -7.552887 2.415985
1493837894754 -3.9159088  -8.198898 0.9347229
1493837894774 -4.458084 -8.787781 -0.48989868
1493837894794 -2.8334808  -9.264526 -0.5570679
1493837894814 -0.78027344 -9.422363 -0.51268005
1493837894833 1.0499878 -8.858948 0.5541382
1493837894853 1.9278564 -8.8485565  3.1687927
1493837894873 1.6213531 -10.302368  2.9138641
1493837894893 1.6480103 -11.598145  -0.107543945
1493837894912 2.091629  -12.388184  -2.133316
1493837894932 0.8259735 -12.62883 -1.846283
1493837894952 -1.6814575  -12.240799  -2.1564026
1493837894972 -1.0979614  -12.6861725 -1.8217163
1493837894991 1.8117371 -13.513901  -1.4146729
1493837895011 4.0693817 -15.51123 -1.7819977
1493837895031 7.2078705 -15.880844  -1.4482574
1493837895051 4.2748566 -17.139038  -4.3645935
1493837895071 -2.446579 -15.502975  -4.1826477
1493837895091 -4.223648 -12.790176  6.4393616
1493837895110 -6.0690765  -13.031158  10.855621
1493837895130 -9.464615 -15.47316 2.066864
1493837895151 -8.026733 -16.872314  -0.891037
1493837895171 -5.79924  -14.561066  -0.76963806
1493837895211 -0.88648987 -10.323822  1.6773224
1493837895232 3.8079681 -7.8441925  4.7421722
1493837895255 2.8120728 -7.5415955  2.9673462
1493837895274 1.0234222 -6.0717926  0.6159668
1493837895294 -0.79837036 -5.031082 1.5069427
1493837895314 -2.055542 -4.0866547  2.41893
1493837895333 -3.120453 -3.1433716  3.0666046
1493837895353 -3.7585297  -2.800232 3.5533752
1493837895373 -3.103241 -1.7476959  3.8946228
1493837895394 -2.7445679  -0.021072388  4.1963654
1493837895412 -2.4317627  0.19334412  4.0938873
1493837895432 -1.2546082  -2.8356323  1.3313141
1493837895462 -0.5783081  -9.343689 -8.046799
1493837895467 0.760437  -18.282455  -19.722397
1493837895486 6.834488  -19.474823  -15.223404
1493837895506 7.5766296 -16.313171  -6.160721
1493837895528 2.5320587 -6.8243256  -5.5876007
1493837895545 -1.245163 -4.593979 1.0711517
1493837895567 -5.1929626  -13.940872  3.017624
1493837895587 -4.9182587  -15.830612  0.50276184
1493837895607 -5.1060486  -6.781357 3.836197
1493837895627 -5.427185 -1.4138489  13.97435
1493837895646 -6.823471 -5.527054 10.688446
1493837895666 -4.587677 -11.054794  4.5384064
1493837895683 -0.5105438  -12.828354  3.698059
1493837895708 2.557663  -13.376083  2.333191
1493837895723 5.583786  -12.187988  -0.14674377
1493837895746 5.485382  -9.897324 -0.94615173
1493837895767 2.651001  -7.826126 0.92811584
1493837895787 -0.85476685 -7.5136566  2.160324
1493837895806 -3.6625977  -8.287155 1.1218109
1493837895826 -5.3829193  -9.1119995  -0.8257599
1493837895846 -4.3294983  -8.961563 -0.8967743
1493837895866 -1.2833252  -8.261597 -0.5917816
1493837895885 1.2094574 -8.274979 0.072402954
1493837895907 2.0878296 -9.049789 2.4642334
1493837895926 1.3101501 -10.329773  3.6587524
1493837895945 0.31866455  -11.332672  0.95251465
1493837895965 1.1454773 -11.568405  -1.8081055
1493837895985 1.2267303 -12.296082  -2.764862
1493837896005 -0.35354614 -12.337982  -2.7634735
1493837896024 -0.34184265 -12.242676  -1.1472168
1493837896044 1.1178894 -12.219482  -1.2580414
1493837896064 1.4047546 -13.771896  -5.096115
1493837896083 4.2762146 -16.804626  -2.2369537
1493837896103 4.4862823 -18.51239 -4.7091675
1493837896123 -1.0420685  -15.566238  -1.2818451
1493837896144 -2.9646149  -13.217743  7.283142
1493837896162 -6.151001 -13.525635  7.0938263
1493837896182 -8.511078 -17.164429  1.8075409
1493837896204 -8.598038 -18.232483  1.3116608
1493837896241 -6.363861 -15.000061  0.64282227
1493837896263 -1.2750092  -9.997238 1.7467651
1493837896281 2.8690948 -7.8101044  3.5300598
1493837896300 2.5276947 -7.1183624  3.3230743
1493837896322 0.52215576  -6.2007904  1.5111694
1493837896340 -0.8460388  -5.4992676  1.724472
1493837896360 -2.2167816  -4.5850067  2.3004608
1493837896379 -3.161789 -3.223175 2.8678436
1493837896399 -3.6998749  -2.2480927  4.2346344
1493837896419 -3.1534424  -0.70339966 5.014923
1493837896439 -2.9241486  0.74072266  4.722748
1493837896458 -2.2964935  0.08068848  3.9610443
1493837896478 -1.2045593  -3.6540985  -0.20443726
1493837896498 -0.792572 -11.183563  -11.885895
1493837896518 1.4803772 -19.474823  -16.790268
1493837896537 5.4953156 -19.474823  -8.66394
1493837896557 5.025406  -15.0477295 -7.733658
1493837896577 2.6448517 -2.8282166  -4.093109
1493837896596 0.86642456  0.1798706 10.251938
1493837896616 -9.0633545  -11.114243  6.298218
1493837896636 -10.777405  -17.418365  -1.64151
1493837896656 -3.1392822  -11.041595  7.401703
1493837896675 -1.3818665  -5.4129486  13.432663
1493837896695 -2.9000702  -6.657852 8.833786
1493837896715 -1.5604553  -10.189255  5.0979614
1493837896734 1.0086975 -11.591583  3.1335297
1493837896754 1.7225342 -12.205505  1.0606232
1493837896774 3.473053  -11.478516  -0.34187317
1493837896794 3.7555237 -9.433853 -0.4703064
1493837896814 0.971756  -7.7335815  1.3854218
1493837896833 -2.0683289  -7.2504425  2.08609
1493837896853 -4.4623413  -8.019638 0.21139526
1493837896872 -5.222351 -9.221008 -1.3704681
1493837896893 -2.807846 -9.310852 0.015274048
1493837896913 -0.11463928 -8.93898  0.40168762
1493837896934 1.3710785 -9.180389 0.6617737
1493837896952 1.6612244 -10.094543  0.8528595
1493837896972 2.1679535 -10.916565  -0.1583252
1493837896993 2.5442963 -11.4374695 -0.35862732
1493837897011 1.406662  -12.267975  -1.1359406
1493837897031 -1.6521149  -12.561356  -3.4726105
1493837897052 -2.318451 -12.117889  -3.7301636
1493837897070 1.2667389 -12.1440735 -1.2789001
1493837897090 3.5036469 -12.170563  -1.5320587
1493837897110 4.5529327 -14.776627  -5.2309723
1493837897129 6.8505707 -17.357712  -1.7409973
1493837897149 2.722351  -17.83638 -1.6650543
1493837897169 -2.8825073  -14.72699 1.0043945
1493837897189 -5.2754517  -14.063095  10.655106
1493837897228 -9.779938 -16.93657 5.711014
1493837897248 -9.76709  -18.893448  1.9538269
1493837897268 -8.003494 -16.37741 0.042419434
1493837897287 -2.8623505  -11.056824  0.23608398
1493837897305 2.0630188 -7.7599792  3.3371124
1493837897327 4.3245697 -6.665436 3.0442657
1493837897347 2.0783691 -6.3455505  1.5713654
1493837897366 -0.17445374 -5.281082 1.776947
1493837897386 -1.4996338  -3.9982147  2.1155243
1493837897406 -3.0139618  -2.6848297  3.2374573
1493837897426 -3.8316193  -2.3560333  4.5706024
1493837897445 -3.84729  -1.742691 5.4697876
1493837897465 -3.9826965  -0.45918274 5.6922913
1493837897485 -3.517517 -0.26371765 4.9403687
1493837897505 -2.2471313  -2.9730377  0.98973083
1493837897524 -0.18218994 -8.597137 -9.583893
1493837897544 1.2037811 -16.163269  -19.722397
1493837897559 3.432312  -19.474823  -12.306442
1493837897580 5.733383  -15.529358  -3.5825806
1493837897599 0.92500305  -6.415512 -8.727768
1493837897617 -1.1838837  -5.295578 -1.9438477
1493837897637 -2.4240112  -13.105576  8.885712
1493837897656 -2.6282806  -14.405792  3.579834
1493837897682 -3.2775726  -8.88324  2.6297302
1493837897702 -6.0941925  -5.1957245  10.642731
1493837897721 -7.3808746  -6.8937836  8.418121
1493837897740 -4.8125916  -9.053436 5.5845337
1493837897761 -2.0360107  -11.026627  3.8421173
1493837897781 1.3472748 -11.992538  1.5632629
1493837897800 6.9637604 -11.879883  1.1256866
1493837897820 6.9938507 -10.894226  0.5422058
1493837897840 2.4984436 -8.874664 0.17926025
1493837897859 -1.3635559  -7.5488434  0.44631958
1493837897876 -4.006836 -7.5738983  0.25805664
1493837897899 -4.9582214  -8.373383 -0.7475891
1493837897919 -3.447586 -9.016449 0.17106628
1493837897938 -0.83135986 -9.323486 0.87187195
1493837897958 1.0667572 -9.748627 1.2983704
1493837897978 2.0092773 -10.124039  1.4672546
1493837897998 2.5676117 -10.622757  0.27848816
1493837898017 2.4738617 -11.18512 -0.72465515
1493837898037 1.829071  -11.623886  -1.0063171
1493837898057 -0.28424072 -12.34967 -0.60757446
1493837898077 -2.1406097  -12.328354  -1.5749207
1493837898096 -1.3096466  -12.5451355 -1.2534332
1493837898116 1.1864777 -12.335785  -0.7873688
1493837898132 1.6767273 -12.650711  -4.8515015
1493837898156 4.5680084 -16.313507  -3.2160187
1493837898195 7.242981  -18.02034 -1.3759003
1493837898215 1.7406616 -15.374039  -4.462158
1493837898235 -3.064972 -12.70726 3.1692657
1493837898256 -4.1335144  -13.241074  11.756424
1493837898274 -7.815094 -15.900162  5.0674896
1493837898293 -7.5444946  -18.248245  0.085998535
1493837898313 -5.8832397  -15.858566  -0.8911438
1493837898333 -1.5312805  -10.825897  1.2300415
1493837898353 2.7387238 -7.920471 2.6186829
1493837898373 3.2883148 -7.0722046  2.7392883
1493837898392 1.2133331 -6.4839935  2.2828522
1493837898409 -0.9858246  -5.0694733  1.1011658
1493837898430 -2.4831238  -3.8466034  2.3091888
1493837898452 -3.2804565  -3.0976257  3.5500336
1493837898474 -3.9491272  -2.936737 4.472473
1493837898492 -4.2057037  -1.9114838  5.034561
1493837898511 -4.141464 -0.52456665 5.2158203
1493837898533 -2.9066467  -0.7939911  4.1338806
1493837898551 -1.0940857  -4.032028 0.7917938
1493837898571 -1.1780701  -11.35405 -9.541534
1493837898592 1.9238586 -18.438126  -19.722397
1493837898610 10.469376 -19.474823  -12.64415
1493837898630 9.514893  -15.710693  -4.5604706
1493837898650 4.1440735 -5.998886 -3.257019
1493837898669 -0.45025635 -4.145447 2.732788
1493837898687 -5.7819214  -13.891495  4.0194244
1493837898705 -6.6511383  -16.656174  -5.127075
1493837898729 -6.0594482  -9.5858 0.21046448
1493837898748 -6.654114 -3.2107697  13.64502
1493837898768 -6.9322968  -4.2118073  10.876099
1493837898788 -4.4173126  -8.718048 4.1441345
1493837898807 -2.1038818  -12.18927 3.0464325
1493837898827 1.4860992 -13.125641  3.1165924
1493837898847 7.456238  -13.733124  1.7615814
