accelerometer_timestamp	accelerometer_x_data	accelerometer_y_data	accelerometer_z_data
1493792997789	0.36775208	6.8936005	6.120926
1493792997810	0.42823792	7.0833435	6.5644073
1493792997831	0.36857605	6.9386444	7.0321198
1493792997848	0.7840271	6.9701233	7.0377655
1493792997868	1.5391693	7.3010406	6.6756287
1493792997887	1.8725891	7.290924	6.1213074
1493792997908	1.7515717	7.384613	6.20697
1493792997928	2.312683	7.693817	6.087082
1493792997947	2.666214	7.9286194	5.692322
1493792997966	2.3453522	7.973297	5.5860596
1493792997986	1.5546417	7.725937	5.6996613
1493792998005	1.1940155	7.8432617	5.4501495
1493792998025	1.2505798	8.170502	5.7418365
1493792998045	0.727829	8.234619	7.0195007
1493792998064	0.19343567	8.092667	8.154434
1493792998084	0.6904602	8.104233	8.634537
1493792998104	1.4544373	7.945572	9.466232
1493792998124	1.8095856	7.2724	11.562561
1493792998144	1.8050232	6.5747986	13.234726
1493792998165	1.8639374	6.406082	12.46727
1493792998183	2.41362	6.7327576	10.725479
1493792998202	2.8717957	6.7213135	9.987701
1493792998222	2.7713165	6.3437805	10.282013
1493792998242	3.0601654	5.856842	10.641266
1493792998261	2.8085632	5.4881897	10.101364
1493792998281	2.5014343	5.3031006	8.337006
1493792998301	3.4625244	5.7897797	7.5082397
1493792998320	4.060135	6.1134033	7.547821
1493792998340	3.2453003	5.590927	7.728592
1493792998360	2.6188507	4.952591	8.2074585
1493792998379	2.425293	4.960129	8.046555
1493792998399	3.1366882	5.138794	7.312668
1493792998419	4.4761047	5.950363	7.8541565
1493792998438	4.4846954	5.9951477	8.345932
1493792998459	3.5675964	5.6497345	7.205017
1493792998478	4.135956	4.9969177	6.771042
1493792998497	4.723938	5.076523	7.691559
1493792998518	4.460312	4.78331	8.287384
1493792998537	3.8607635	4.3758087	8.937851
1493792998557	3.1806183	4.127655	7.688156
1493792998596	3.8101196	3.747818	5.6914215
1493792998616	4.1556396	4.2640076	5.528778
1493792998636	4.1377563	4.849304	5.6347504
1493792998655	3.9143066	4.2607574	5.402252
1493792998675	3.5102692	3.3591766	5.693802
1493792998694	2.0564728	2.1559448	6.1119537
1493792998715	1.5027313	2.1470795	6.620285
1493792998734	2.2873535	2.791916	5.8522797
1493792998753	3.0768585	2.527649	3.5924835
1493792998773	3.9453735	1.4129181	3.0483093
1493792998793	3.612503	-0.2624054	2.5521393
1493792998812	3.255844	-0.9732208	1.5438232
1493792998832	2.9549866	-0.8645325	2.5683289
1493792998852	3.8043823	-1.2159576	3.272232
1493792998871	4.5404205	-0.4326172	2.086563
1493792998891	4.1602783	-0.8075714	0.6665039
1493792998911	3.706833	-1.9433746	1.293747
1493792998930	4.0495453	-2.1989746	1.8475952
1493792998950	5.6651154	-1.8102722	2.7659607
1493792998970	6.9197845	-1.432724	3.4997559
1493792998989	6.8528137	-1.4918976	3.4593964
1493792999009	6.555649	-1.9193726	3.9489746
1493792999029	8.859955	-0.9708252	4.454117
1493792999048	11.863419	0.56944275	3.9317627
1493792999068	13.508148	1.4434814	3.2037506
1493792999088	13.380615	1.8058472	5.557083
1493792999108	13.4109955	2.172699	9.324387
1493792999128	13.887299	2.138382	8.121628
1493792999147	14.406235	2.2636719	4.2776947
1493792999167	15.616287	2.3997955	2.1141968
1493792999186	16.055328	3.2893066	1.9305878
1493792999206	14.478088	2.504837	1.5893707
1493792999226	13.427429	1.798233	0.43624878
1493792999246	11.674728	1.1946564	-0.933609
1493792999265	10.778244	0.7152252	-1.295166
1493792999285	10.72084	-0.65483093	-1.7584229
1493792999305	12.757721	-1.2027588	0.07247925
1493792999324	15.237976	-0.33615112	1.8459015
1493792999344	14.098648	-1.688324	3.4828491
1493792999363	13.055389	-3.4021912	2.4548492
1493792999383	12.083221	-4.4321136	0.72306824
1493792999405	10.099136	-5.287735	-2.327896
1493792999442	9.12294	-5.5290985	-2.3268433
1493792999462	10.26712	-4.5086975	-3.5512238
1493792999481	13.139633	-3.2194061	-1.2024231
1493792999501	13.519089	-2.6259918	0.32965088
1493792999521	11.775879	-2.5466156	0.2604065
1493792999540	10.611633	-2.1542969	-0.8220215
1493792999560	10.634781	-1.95224	-1.0576019
1493792999580	11.044022	-0.57499695	1.3542328
1493792999599	11.265305	-0.15560913	-0.3521576
1493792999620	9.678299	-0.84529114	3.7659302
1493792999639	5.6199493	-2.1814728	1.4936981
1493792999658	5.343872	-2.3562622	2.268219
1493792999678	6.713669	-1.9290619	-1.1324158
1493792999698	9.446365	-0.7919922	-2.715149
1493792999718	9.654709	-0.3959961	-4.656128
1493792999737	8.9292755	-0.4788208	-0.9894409
1493792999757	7.4388123	-1.0138397	2.098587
1493792999777	6.639801	-1.7049713	2.1545868
1493792999796	7.1927643	-1.4259644	1.2926941
1493792999816	7.039749	-1.2081757	-0.672287
1493792999836	6.837158	-1.258194	-0.76065063
1493792999855	7.3544464	-0.7103729	-0.6168213
1493792999875	7.0413513	-0.77412415	0.026016235
1493792999895	5.5314484	-1.7537079	0.7046356
1493792999914	5.824295	-1.861908	0.8170624
1493792999934	6.509094	-2.7374878	0.26445007
1493792999954	7.990677	-3.2595062	0.21780396
1493792999973	7.389206	-4.7063446	0.16777039
1493792999993	8.201294	-5.621643	-0.6588898
1493793000013	9.515869	-5.9389496	-1.6024475
1493793000033	10.423218	-5.137863	-2.0623016
1493793000052	10.444916	-5.548172	3.4647827
1493793000072	8.790588	-6.4513245	2.8132172
1493793000091	7.602478	-6.1409454	0.7423706
1493793000111	7.7444916	-6.916458	-1.2265167
1493793000131	4.3523865	-8.526459	2.2161102
1493793000151	4.6719055	-10.372192	0.550354
1493793000171	7.060486	-8.937454	0.29267883
1493793000190	5.5037384	-8.524445	-0.6427765
1493793000210	2.7774963	-5.670685	0.8030853
1493793000229	5.3626404	-4.8734436	1.8746948
1493793000249	4.65094	-7.440689	-0.3431244
1493793000269	7.831238	-11.197525	0.75712585
1493793000312	7.135315	-13.872162	0.7484436
1493793000328	7.967224	-10.61705	-1.1412048
1493793000347	18.693527	3.7430267	1.9229431
1493793000367	4.821457	-14.9761505	-0.090927124
1493793000387	-6.0485077	-13.000839	1.1186218
1493793000406	-8.530167	-13.086929	-1.9409637
1493793000427	4.8602905	-6.9276733	-2.36438
1493793000446	4.1681976	-6.130249	-3.1850739
1493793000465	4.64563	-4.6315002	-1.7810516
1493793000485	3.1016083	-4.6414185	-1.8778992
1493793000505	1.5585632	-5.337097	-2.2952728
1493793000524	-0.012832642	-6.3578796	-3.2089386
1493793000544	1.9473877	-5.813843	-1.504364
1493793000564	0.5735626	-7.2654114	-4.2815857
1493793000584	1.9848328	-7.1384277	-1.0746155
1493793000603	4.824753	-11.6914215	-2.9166107
1493793000624	12.439011	-19.474823	-3.848877
1493793000643	9.885315	-15.409653	2.286377
1493793000662	-2.7660522	-8.767044	-1.1573029
1493793000682	-3.3821716	-7.7190094	-0.68785095
1493793000702	-2.4829254	-8.625992	-1.3667908
1493793000721	-0.74823	-10.261963	-1.4585571
1493793000741	-0.38534546	-10.301651	-1.7194214
1493793000761	-0.32763672	-8.757462	-1.9929962
1493793000780	0.28129578	-7.7806396	-1.8220673
1493793000800	0.54740906	-8.545456	-1.9150238
1493793000819	0.5698395	-8.891403	-2.293808
1493793000839	0.35585022	-8.555222	-2.710205
1493793000859	-0.23196411	-8.273605	-2.870758
1493793000878	-0.55781555	-7.636963	-3.0801697
1493793000898	-0.8924713	-7.595093	-4.2169647
1493793000918	-1.217865	-7.6092377	-4.9276276
1493793000938	-1.368927	-7.546829	-5.431793
1493793000957	-1.4824371	-8.136185	-4.453781
1493793000977	-1.6339569	-7.8226166	-2.1701965
1493793000997	-1.7314148	-7.882721	-1.5287018
1493793001016	-1.970459	-10.849884	-0.3043518
1493793001036	-1.4391937	-15.93721	0.36650085
1493793001056	1.9369049	-16.004547	-2.9270325
1493793001076	2.234909	-10.870605	-2.370346
1493793001095	1.6302795	-6.7779694	2.6468048
1493793001115	0.8102417	-6.307129	5.0710297
1493793001135	0.70469666	-8.5147705	4.474182
1493793001174	-0.2953186	-11.547256	0.11529541
1493793001194	0.49993896	-11.832672	-0.21507263
1493793001216	1.2933655	-10.879211	0.57936096
1493793001233	1.0686188	-10.36528	1.7745667
1493793001253	-0.98205566	-10.042831	0.4316101
1493793001273	-0.22529602	-8.480347	1.4084167
1493793001292	0.6953583	-8.834763	1.2450409
1493793001312	3.0939941	-9.514679	1.1841125
1493793001332	4.3306427	-9.224152	0.97546387
1493793001351	2.4218292	-9.224594	0.4182434
1493793001371	1.1308746	-9.564468	-0.66511536
1493793001391	0.8546448	-9.669678	0.9514618
1493793001410	0.03933716	-9.629044	0.17315674
1493793001430	0.19503784	-9.73851	0.65223694
1493793001449	-0.24316406	-9.674973	0.9434204
1493793001469	-0.21095276	-10.163406	1.1961212
1493793001489	0.6192169	-10.700546	0.7614136
1493793001508	1.6031342	-11.132797	0.057128906
1493793001528	2.7014313	-10.863007	-0.25343323
1493793001548	3.3414154	-10.656662	-0.20266724
1493793001567	3.4571228	-10.830978	-0.04119873
1493793001587	3.504547	-10.863861	-0.1418457
1493793001607	3.575714	-10.988358	-0.618927
1493793001627	4.612503	-11.723984	-0.30822754
1493793001646	5.9201508	-12.533951	-0.25712585
1493793001666	4.9990234	-12.653137	-1.4826355
1493793001686	2.2516937	-12.142334	-2.8083038
1493793001705	-0.553833	-11.366852	-2.632309
1493793001725	-1.77388	-11.141006	-1.5290375
1493793001745	-2.6474	-12.990799	0.74513245
1493793001764	-5.039322	-16.606934	2.6949463
1493793001784	-6.6718597	-18.400803	2.190155
1493793001804	-3.7432709	-14.574417	-0.39309692
1493793001823	-2.5895996	-12.024902	-2.1514587
1493793001843	-0.42097473	-11.344284	-1.5808563
1493793001863	2.6627655	-11.059662	0.1328125
1493793001883	2.3362427	-10.341415	-1.2162018
1493793001902	2.7200775	-8.1940155	0.6349182
1493793001922	1.6889038	-6.8803864	1.7490234
1493793001941	0.46775818	-5.4449463	2.153946
1493793001961	-2.0388489	-4.9164734	2.6234436
1493793001981	-2.163681	-4.065796	1.6641693
1493793002020	-2.4485016	-3.6387177	1.0996246
1493793002040	-2.17247	-3.7556305	0.90423584
1493793002059	-1.3695221	-4.1144104	0.6387329
1493793002079	-1.0214386	-4.1494446	-0.56088257
1493793002099	-1.0413513	-4.66951	-1.421341
1493793002119	-2.097824	-6.2565613	-4.312454
1493793002139	-4.7151184	-10.979385	-11.276123
1493793002158	-6.2937164	-15.537979	-11.9769745
1493793002178	-5.3726807	-14.957153	-10.095047
1493793002197	-4.3088837	-12.730392	-6.406708
1493793002217	-3.554367	-10.614868	-4.9595947
1493793002237	-4.880768	-9.369293	-6.8408203
1493793002256	-7.7794037	-10.365875	-8.002487
1493793002276	-8.721664	-13.61087	-2.1405945
1493793002296	-6.5637817	-12.732849	1.0473633
1493793002315	-2.3523102	-8.880234	-0.36473083
1493793002336	0.46710205	-6.578415	3.39682
1493793002355	0.41958618	-8.139114	7.640854
1493793002374	2.8427277	-10.285202	8.780579
1493793002394	4.862747	-11.871307	4.8811646
1493793002415	3.609253	-12.87796	-1.0110931
1493793002433	1.9254761	-12.024399	-2.3098602
1493793002453	0.65270996	-10.638596	0.1023407
1493793002473	0.66111755	-9.790375	1.6270599
1493793002492	-0.01991272	-9.078842	0.3369751
1493793002512	-1.5973816	-8.592529	-0.1710968
1493793002532	-1.1693573	-9.395905	-1.13591
1493793002551	0.6139679	-10.01564	-1.7998352
1493793002571	1.454773	-8.902679	0.062408447
1493793002591	1.7486115	-7.284973	3.16687
1493793002610	1.4459991	-6.3697205	1.2589874
1493793002633	0.96440125	-6.90979	-1.0276947
1493793002650	0.006668091	-10.032379	-2.0247803
1493793002670	0.9960327	-11.023758	-1.0557404
1493793002689	2.1391907	-10.531036	-0.31311035
1493793002709	1.0854187	-11.349289	-0.5440216
1493793002729	-0.0211792	-12.48793	-1.0530243
1493793002748	2.6757813	-12.910385	-0.9116974
1493793002768	4.362732	-12.5611725	-1.0124207
1493793002788	3.1797028	-11.953629	-1.185379
1493793002807	1.7418518	-12.330032	-0.7449341
1493793002827	1.5759583	-12.749542	-3.06604
1493793002847	2.9170532	-12.632278	-3.0633698
1493793002886	5.0715637	-12.388168	-2.305252
1493793002906	3.271881	-11.763184	0.018966675
1493793002925	-2.7088165	-11.78273	-2.7315216
1493793002945	-5.3985443	-12.833481	1.6018372
1493793002965	-6.16864	-15.048843	4.53743
1493793002984	-6.7278595	-16.663818	2.7891388
1493793003004	-4.9998627	-15.807938	-0.28256226
1493793003024	-3.6303864	-14.57962	-0.881073
1493793003044	-2.6658173	-12.887253	-0.43922424
1493793003063	-0.8911743	-11.777267	-0.14215088
1493793003083	2.9477997	-11.072342	0.7136078
1493793003102	0.3058014	-9.756165	0.66748047
1493793003122	1.5421906	-6.387619	2.4020996
1493793003142	0.6035614	-5.068802	3.16214
1493793003161	-0.8503876	-3.5592651	3.5669098
1493793003181	-1.8107452	-2.0596771	3.2326355
1493793003201	-2.0183258	-1.6848755	2.7108307
1493793003221	-1.711441	-1.8409424	1.9387512
1493793003240	-1.4795227	-2.2824707	0.8750305
1493793003260	-1.8249207	-3.2907715	0.15130615
1493793003279	-3.454712	-6.366379	-3.1337738
1493793003306	-6.2067413	-12.678833	-9.776932
1493793003319	-8.079926	-17.456955	-14.116272
1493793003339	-7.4780273	-14.910904	-12.317276
1493793003358	-6.190155	-9.575409	-6.779663
1493793003378	-5.402832	-7.4320984	-2.4527588
1493793003398	-6.270706	-6.1553802	-1.4555359
1493793003417	-6.7906494	-6.6821594	-2.1521149
1493793003438	-7.0605927	-12.291534	-3.2342072
1493793003458	-7.7042084	-18.033325	-1.812439
1493793003478	-3.253952	-15.608566	-1.837143
1493793003498	2.660202	-7.9430847	7.7156525
1493793003519	2.497284	-6.824051	7.7379456
1493793003543	2.4584808	-8.312561	6.7969513
1493793003558	2.2914276	-9.634506	4.884308
1493793003578	-0.27389526	-11.899353	0.66189575
1493793003598	-0.19058228	-13.796982	-0.91127014
1493793003618	0.83958435	-12.782135	-1.2868195
1493793003638	0.5823364	-9.946564	0.84584045
1493793003653	-2.0744934	-8.737778	-0.275177
1493793003673	-4.4486847	-7.6303864	-2.3272858
1493793003693	-2.9558868	-7.9843445	-1.4037476
1493793003733	0.5649414	-9.121414	3.2316742
1493793003752	1.6553955	-9.484604	2.636673
1493793003771	0.7892914	-8.586899	0.07218933
1493793003791	0.09628296	-8.175613	-2.3361664
1493793003811	-0.07273865	-9.208572	-0.8835449
1493793003830	0.3432312	-9.934479	0.18859863
1493793003851	-0.2492218	-9.844299	0.3671112
1493793003870	-0.83699036	-10.04837	-0.111206055
1493793003890	-0.59458923	-10.915253	-0.8553314
1493793003909	-0.989563	-11.88916	-1.6527252
1493793003929	0.88575745	-12.03154	-1.1882629
1493793003948	2.8131256	-11.87529	-0.01399231
1493793003968	2.4654236	-11.884979	0.40644836
1493793003988	0.5051575	-11.655457	-0.50949097
1493793004008	-0.09593201	-11.830505	-1.6926422
1493793004027	0.83029175	-12.429642	-2.6105042
1493793004048	2.5172577	-12.591232	-3.0410614
1493793004067	3.952011	-12.200592	-1.6858826
1493793004086	1.5280762	-12.244812	-0.95628357
1493793004106	-2.6244354	-12.518982	-0.46463013
1493793004126	-5.007538	-13.370682	2.6918945
1493793004147	-6.8130035	-15.051788	3.5927124
1493793004165	-6.7887726	-15.108353	2.5180206
1493793004185	-6.5150146	-13.842667	0.32255554
1493793004208	-5.6653595	-12.439728	-1.3707123
1493793004224	-2.692566	-11.052597	-0.5688019
1493793004244	2.6582336	-11.0911255	1.010376
1493793004263	3.0042725	-10.768494	-0.04776001
1493793004283	0.694046	-8.110062	0.7309265
1493793004303	-0.40299988	-5.757416	2.6264343
1493793004322	-1.5510406	-4.4119263	3.1355286
1493793004343	-2.2428894	-3.3970947	3.0335846
1493793004362	-2.7320251	-2.760666	2.8722382
1493793004382	-3.019287	-3.1362152	1.9763184
1493793004404	-2.9860077	-3.4883575	1.2510681
1493793004423	-2.690506	-4.0684357	0.9148102
1493793004443	-3.1982422	-5.744705	0.034866333
1493793004462	-4.6375427	-9.715729	-2.5987244
1493793004482	-6.50737	-14.95549	-10.439941
1493793004502	-8.272842	-18.056854	-18.216599
1493793004523	-6.5869904	-13.402008	-11.269638
1493793004542	-3.1330414	-8.294067	-4.671631
1493793004561	-2.2993927	-5.4699554	-4.22435
1493793004598	-4.5572357	-4.301529	-2.2276764
1493793004618	-7.5920105	-11.602097	-1.4635315
1493793004638	-6.497711	-14.129974	-0.6431732
1493793004658	-5.4999084	-14.361938	-0.60717773
1493793004677	0.1842804	-9.493271	4.262207
1493793004697	0.40834045	-8.013351	6.1385193
1493793004716	1.1405792	-9.048447	7.2452545
1493793004736	1.7543945	-11.519669	4.912262
1493793004756	1.3622894	-12.206833	2.9479218
1493793004776	-0.3025055	-12.008789	-0.06750488
1493793004795	-0.16442871	-11.801453	-1.563736
1493793004816	-1.2438812	-10.414719	-0.8052826
1493793004836	-2.7697601	-8.268158	-0.52630615
1493793004855	-3.253357	-7.4980774	-0.529541
1493793004874	-2.557495	-8.170105	-0.03868103
1493793004893	-1.3722076	-8.62825	-0.2581482
1493793004913	0.34451294	-8.980438	0.67089844
1493793004933	0.15776062	-9.19722	-0.078552246
1493793004953	-0.6404724	-9.014175	-0.64401245
1493793004973	-1.5703278	-9.329361	-1.1544342
1493793004992	-1.5484619	-9.771286	-0.7104187
1493793005011	-0.5307312	-9.8098755	-0.018234253
1493793005033	-0.22264099	-10.126709	-0.45568848
1493793005051	-0.4260254	-10.614075	-0.97525024
1493793005071	-0.65830994	-11.108902	-1.5558777
1493793005090	-0.4677887	-11.290573	-2.0166016
1493793005111	0.010940552	-11.102814	-2.2688599
1493793005132	-0.21987915	-10.62291	-2.2810516
1493793005161	-0.1906128	-10.156265	-1.6542969
1493793005172	0.73843384	-9.996445	-0.819046
1493793005188	1.7593689	-11.046417	-1.4046631
1493793005208	2.3222961	-12.528595	-2.0737457
1493793005228	3.4683838	-13.34053	-0.9076233
1493793005248	3.2137299	-12.747025	1.1650085
1493793005268	-2.3111267	-12.961441	0.9704437
1493793005287	-8.334274	-12.275848	-1.0198059
1493793005307	-7.808304	-11.798828	2.324463
1493793005327	-6.35376	-13.123276	3.4310608
1493793005346	-5.150635	-14.1931	3.855301
1493793005368	-3.322052	-14.150772	0.76908875
1493793005385	-2.2103424	-12.199249	-0.35313416
1493793005405	-2.1476746	-11.1719055	0.64541626
1493793005427	-2.6631165	-11.086502	0.6720276
1493793005465	-1.858963	-10.179291	0.56951904
1493793005484	0.79055786	-8.531433	1.0742035
1493793005504	-0.20361328	-7.732254	0.6995392
1493793005524	-0.6389923	-5.632904	2.2708588
1493793005543	-1.008255	-4.426056	2.5355377
1493793005564	-0.7872467	-4.780594	2.2725677
1493793005582	-0.9115753	-4.9077606	1.8209534
1493793005602	-0.8877106	-5.15889	0.85839844
1493793005621	-0.8762665	-5.976242	0.014007568
1493793005641	-1.3987274	-7.933655	-2.1153717
1493793005661	-2.19339	-11.327118	-5.680374
1493793005681	-2.3508759	-14.173721	-8.465515
1493793005700	-2.3812408	-13.109482	-6.726822
1493793005721	-3.768982	-9.930283	-2.456604
1493793005739	-5.0579987	-8.929398	3.6681519
1493793005760	-6.0348053	-8.218384	8.712738
1493793005779	-7.4960175	-9.000732	6.474518
1493793005798	-6.7184296	-10.780975	3.977356
1493793005818	-3.4848785	-12.41571	2.2124023
1493793005838	-2.472763	-12.990875	-1.1144104
1493793005857	-0.7907715	-12.94751	-0.5267639
1493793005877	0.59736633	-12.126434	1.6129303
1493793005897	0.76345825	-10.764801	0.8381958
1493793005917	0.21871948	-9.497726	-0.3284912
1493793005936	-0.5143738	-8.764389	-0.31500244
1493793005956	-1.2357941	-8.42836	-0.2398529
1493793005976	-2.45018	-8.187317	-0.8479614
1493793005996	-2.9053497	-8.695007	-1.448822
1493793006017	-3.3486176	-9.870163	-1.169632
1493793006036	-3.8992157	-9.963242	-1.6644592
1493793006055	-3.3309937	-9.457581	-2.7188568
1493793006075	-1.8196411	-10.483536	-3.1678467
1493793006094	0.530426	-12.385773	-0.22558594
1493793006114	-0.39726257	-10.531464	3.4446716
1493793006133	-4.453949	-8.628021	2.5984344
1493793006153	-7.0777893	-7.682968	-0.99331665
1493793006173	-4.496048	-8.245972	-1.730545
1493793006192	-0.9674072	-8.034103	-2.4004974
1493793006214	0.66207886	-8.042114	-1.6539001
1493793006234	0.5352783	-10.00824	-0.95758057
1493793006254	-1.128418	-12.850708	0.0026550293
1493793006273	-2.1639252	-12.650986	1.0403137
1493793006314	-3.470749	-9.323547	-0.94906616
1493793006334	-3.719635	-8.56308	-2.1426544
1493793006357	-2.3844604	-9.396439	-1.0580292
1493793006375	-1.7776184	-9.699005	-1.0475311
1493793006389	-1.6596222	-9.3285675	-1.4903564
1493793006409	-1.7148895	-9.209778	-1.3102417
1493793006428	-1.9769745	-9.220184	-0.9276581
1493793006448	-2.212799	-9.35228	-1.1970062
1493793006469	-2.1715546	-9.616135	-1.5930176
1493793006488	-2.0530396	-10.019226	-1.8942566
1493793006508	-2.1774292	-10.131271	-1.605072
1493793006527	-2.2906342	-9.857971	-1.1880493
1493793006546	-2.3447723	-9.493469	-1.052185
1493793006568	-2.329239	-9.283096	-0.9546356
1493793006586	-2.3383179	-9.316269	-0.8147278
1493793006606	-2.2931366	-9.382156	-0.67541504
1493793006627	-2.4969177	-9.508057	-0.5762024
1493793006648	-2.5243378	-9.653534	-0.65586853
1493793006665	-2.3414154	-9.778336	-0.7180939
1493793006684	-2.2372742	-9.913849	-0.72901917
1493793006704	-2.3261108	-9.90625	-0.6565399
1493793006724	-2.6588287	-9.584763	-0.19378662
1493793006743	-2.852356	-9.468124	-0.32240295
1493793006763	-2.4741669	-10.004639	-0.93847656
1493793006783	-1.6087799	-10.573029	-1.0023956
1493793006803	-1.5277405	-10.415512	-0.77127075
1493793006823	-2.559143	-9.803497	-1.8947754
1493793006842	-3.1865845	-9.374222	-3.7814636
1493793006863	-3.0549622	-9.577469	-5.292511
1493793006884	-2.5662384	-10.176392	-6.8555145
1493793006909	-2.9636078	-10.202347	-7.708847
1493793006923	-2.2780304	-9.596466	-7.5047913
1493793006942	0.12619019	-9.352493	-6.935562
1493793006961	2.908554	-9.177185	-5.114731
1493793006979	2.618988	-9.264023	-1.5230103
1493793007000	-0.50183105	-8.5390625	-0.40057373
1493793007019	-2.4163513	-7.101654	-1.1023712
1493793007039	-4.3279114	-6.228882	-1.5286255
1493793007059	-6.529022	-6.0243073	-2.7861328
1493793007078	-6.7251434	-6.5279236	-3.507019
1493793007098	-5.1944275	-8.137146	-3.7037354
1493793007117	-4.779541	-8.627792	-2.940094
1493793007138	-2.8303986	-8.980804	-2.5125427
1493793007176	-2.157959	-9.617279	-3.5195465
1493793007196	-2.253479	-9.565262	-4.074707
1493793007217	-2.576706	-9.068237	-4.218643
1493793007239	-2.8264465	-8.669922	-4.2137146
1493793007255	-2.9591675	-8.3667755	-3.8609924
1493793007276	-3.3834686	-8.073898	-3.4150238
1493793007294	-3.6241913	-7.995285	-3.0945892
1493793007314	-3.6911316	-8.181137	-2.9014282
1493793007334	-3.761261	-8.3294525	-2.7752228
1493793007353	-3.9217224	-8.183228	-2.7575989
1493793007374	-4.133209	-7.786865	-2.7931366
1493793007393	-4.423126	-7.6296387	-2.8282013
1493793007413	-4.554779	-7.8083496	-2.797989
1493793007433	-4.567337	-7.9786224	-2.6593475
1493793007456	-4.3623505	-7.6440735	-2.9176788
1493793007474	-4.2342834	-7.4433746	-3.2227325
1493793007493	-3.9823608	-7.7656097	-3.623352
1493793007518	-3.8343658	-8.03775	-3.7118835
1493793007534	-4.2244873	-7.830551	-3.6940002
1493793007555	-4.8894196	-7.800064	-3.616516
1493793007573	-5.6957245	-10.329788	-3.1834564
1493793007589	-4.646042	-14.09729	-3.5067444
1493793007610	-1.5560913	-12.18161	-3.6152496
1493793007629	-1.301712	-7.966034	-2.7666168
1493793007649	-2.9348907	-7.177368	-0.33093262
1493793007668	-3.5745697	-8.298248	1.9214172
1493793007688	-3.0914764	-9.393768	1.9555054
1493793007708	-2.2679443	-9.839127	1.743393
1493793007728	-1.3182678	-10.021057	0.8284607
1493793007747	-0.37748718	-10.245743	0.12133789
1493793007767	-0.33299255	-10.656784	0.69081116
1493793007788	-0.37304688	-10.568146	0.18650818
1493793007807	-0.12446594	-9.672256	-0.2016449
1493793007827	-0.32395935	-10.153091	0.62716675
1493793007847	0.32348633	-10.13974	-0.020401001
1493793007866	-0.9811249	-10.132614	-1.0859833
1493793007885	-1.7124481	-9.566925	-1.0812225
1493793007905	-0.99250793	-9.5308075	-0.15576172
1493793007926	-0.88339233	-9.771133	0.66334534
1493793007944	-0.2422638	-9.712524	0.9083252
1493793007964	-0.8037262	-10.133316	-0.12083435
1493793007983	-1.3495026	-10.070053	-0.20777893
1493793008003	-1.4116974	-9.842178	0.45573425
1493793008042	-1.6131897	-9.736435	0.15270996
1493793008062	-1.4237671	-9.855408	1.1049805
1493793008082	-1.124649	-10.055725	0.4046173
1493793008107	-0.7402344	-9.929138	0.5092163
1493793008123	-0.7938843	-9.973785	-0.39852905
1493793008148	-0.85006714	-9.814972	-0.7356415
1493793008160	-0.7953491	-10.038284	-0.9313965
1493793008181	-0.5512543	-10.038208	-1.1459656
1493793008200	0.5423889	-10.097733	-1.2300262
1493793008219	1.3878937	-10.3007965	-1.4196167
1493793008239	1.121872	-10.482681	-1.4777985
1493793008262	0.60484314	-10.630142	-2.1410217
1493793008278	0.93592834	-11.084976	-2.9424133
1493793008298	1.2708282	-12.6107025	-2.7600555
1493793008318	-0.45195007	-14.023621	-2.3138275
1493793008338	-3.1263733	-13.3918915	-2.5166168
1493793008358	-4.8293	-11.445648	-2.4198456
1493793008378	-6.0051727	-9.656708	-1.938858
1493793008397	-7.4183807	-9.3134	-0.85928345
1493793008418	-8.141235	-10.779648	1.6804962
1493793008438	-4.1230774	-11.994064	2.786621
1493793008457	0.002243042	-11.871155	0.097335815
1493793008475	0.04446411	-11.403519	-2.8170776
1493793008495	-0.4718628	-10.653656	-2.4894257
1493793008515	-1.8253021	-10.080719	-0.5718994
1493793008534	-3.593155	-8.811783	-0.0014801025
1493793008554	-3.9538727	-6.8060303	0.12702942
1493793008574	-3.488266	-5.37471	-0.5185089
1493793008593	-3.5010376	-4.693222	-1.2201538
1493793008613	-4.017105	-5.0723877	-1.427002
1493793008633	-4.3849792	-5.815445	-1.2496185
1493793008654	-4.3722534	-6.4613953	-1.4906616
1493793008672	-3.7064667	-6.665024	-2.10849
1493793008693	-3.0474854	-6.423355	-2.4627533
1493793008712	-2.628189	-6.1796265	-2.8789673
1493793008734	-2.625473	-6.397629	-4.430313
1493793008753	-3.4960327	-7.799347	-6.842682
1493793008774	-4.225754	-9.700058	-8.854584
1493793008790	-4.139145	-10.3441925	-8.628693
1493793008810	-2.727951	-9.287369	-7.477127
1493793008830	-2.3072357	-8.135834	-6.3932953
1493793008850	-3.115921	-7.196167	-6.298706
1493793008889	-7.31662	-6.942032	-3.6101685
1493793008909	-11.112198	-12.091751	-1.0462952
1493793008928	-7.692581	-14.401154	-1.3709869
1493793008948	-3.9178314	-10.393341	-2.6886902
1493793008967	-2.1281433	-8.387192	1.2278595
1493793008988	-1.4844666	-7.246399	5.6535797
1493793009007	-1.4532318	-8.970581	5.010086
1493793009027	-0.403656	-10.818588	4.6322784
1493793009047	0.5378723	-12.101776	1.4597778
1493793009066	2.203659	-12.976257	-0.24247742
1493793009086	1.5254211	-13.229248	-1.0497589
1493793009106	0.23104858	-11.29631	0.46829224
1493793009125	-1.273819	-9.233185	0.49267578
1493793009146	-2.3939056	-8.388077	0.46296692
1493793009165	-2.9066467	-8.435226	0.3435974
1493793009185	-2.6898346	-8.767639	-0.32496643
1493793009205	-1.7799377	-9.303558	-0.3085022
1493793009224	-0.73568726	-9.740875	0.60723877
1493793009246	0.57655334	-9.934097	1.1030121
1493793009264	1.6645813	-9.936523	1.0357513
1493793009284	1.2722168	-9.742035	1.2090454
1493793009305	0.63243103	-9.774948	-0.027908325
1493793009324	0.32598877	-9.7929535	-0.6331482
1493793009344	0.5311127	-9.812637	-0.2915039
1493793009361	0.6090698	-9.326752	-0.09765625
1493793009380	-0.8942261	-9.148239	-0.7025299
1493793009400	-2.0809479	-9.954468	-0.59295654
1493793009420	-1.6577911	-10.643768	0.701004
1493793009439	-0.6622925	-11.233368	1.2687836
1493793009459	0.0028686523	-11.698853	1.0050049
1493793009479	0.49635315	-11.634735	1.6009521
1493793009498	-0.7018585	-11.516647	1.2375946
1493793009518	-2.973236	-11.425262	-0.79537964
1493793009538	-1.8190613	-11.633942	-0.8483887
1493793009557	0.23835754	-11.748169	-1.0472107
1493793009577	1.7529602	-12.396927	-1.1346741
1493793009597	2.8125458	-13.051514	-1.4066925
1493793009617	2.9049072	-12.647766	-1.8417053
1493793009638	0.41545105	-12.159546	-2.1198883
1493793009656	-2.7538147	-11.345398	-1.1130829
1493793009676	-4.0172577	-10.342712	-0.1109314
1493793009695	-5.5654144	-11.962219	2.5536957
1493793009715	-7.9253693	-14.437607	3.1257324
1493793009756	-7.7920227	-13.872986	1.6975708
1493793009775	-4.6010437	-12.634537	-1.0176392
1493793009796	-3.8294678	-11.711029	-1.593811
1493793009815	-1.8964691	-11.604446	-0.2164917
1493793009838	4.397583	-11.553009	-0.17713928
1493793009859	1.7401428	-11.411621	-0.29354858
1493793009876	0.17382813	-8.048096	-0.292984
1493793009901	0.6118164	-6.6019897	2.2893372
1493793009914	0.032577515	-5.418747	3.4142303
1493793009934	-1.4786987	-4.81279	2.3739014
1493793009956	-2.0827942	-4.1339874	2.7135773
1493793009971	-2.8745422	-4.35231	2.330719
1493793009993	-3.3996582	-4.367859	1.4407043
1493793010011	-3.263504	-4.4765472	0.5767517
1493793010030	-3.2653198	-4.953598	-0.3093872
1493793010050	-3.433487	-5.959778	-1.73703
1493793010069	-3.961563	-8.228027	-4.6474304
1493793010089	-4.7712708	-11.377716	-8.340622
1493793010109	-5.1097565	-12.543594	-9.823959
1493793010129	-4.8189545	-11.368042	-8.608475
1493793010148	-4.268448	-10.856598	-6.72052
1493793010169	-3.843933	-10.710739	-5.441437
1493793010188	-4.398773	-8.983582	-5.089203
1493793010208	-5.6595306	-6.2977905	-4.630829
1493793010229	-8.187225	-7.961441	-4.3474426
1493793010248	-10.78511	-13.968796	-4.513214
1493793010266	-7.9351196	-14.195679	-0.9958191
1493793010286	-5.4438477	-8.982712	0.6059265
1493793010305	-3.0296173	-5.5113983	4.059189
1493793010325	-1.431488	-5.8599854	6.038986
1493793010345	-1.0495605	-8.318146	6.7407227
1493793010364	1.2698822	-10.831711	6.808319
1493793010384	2.2321014	-12.72403	3.0310059
1493793010404	2.7281342	-13.414398	0.2927246
1493793010424	1.8318634	-12.720459	-2.219757
1493793010443	-0.582428	-10.846619	-1.0958252
1493793010463	-2.7977142	-8.544022	0.18502808
1493793010484	-3.9668884	-7.5594177	2.4144287
1493793010503	-3.2192688	-8.381454	1.1357574
1493793010523	-1.6847687	-9.8281555	-1.0187836
1493793010543	-0.6528473	-10.063248	0.16186523
1493793010562	-0.24853516	-9.621063	0.9999237
1493793010581	1.4180145	-8.568832	2.248764
1493793010620	0.6461487	-8.923569	0.25863647
1493793010641	0.8106384	-9.801529	-1.1669464
1493793010660	0.41036987	-10.237946	-0.12608337
1493793010679	0.57121277	-9.876617	-0.8845062
1493793010700	0.26338196	-10.0569	-0.89123535
1493793010719	-0.8058014	-10.690857	-0.9625244
1493793010739	-1.6676483	-11.451904	-0.84498596
1493793010758	-0.977478	-11.452377	-0.092300415
1493793010778	0.36853027	-11.617493	0.5783081
1493793010798	1.5130463	-11.856461	1.518753
1493793010820	-0.27705383	-11.599518	0.4208374
1493793010839	-1.4131165	-11.634933	-1.6363678
1493793010857	-0.5315552	-11.809937	-2.2725067
1493793010876	1.1876373	-12.454376	-3.0303802
1493793010896	3.4043121	-12.790909	-3.1215668
1493793010916	1.972702	-12.155197	-1.6401978
1493793010935	-2.1589966	-11.768509	-0.10028076
1493793010955	-5.2261505	-12.070358	2.1739502
1493793010974	-7.094803	-13.94278	4.4350433
1493793010994	-8.394501	-15.003571	3.67247
1493793011014	-8.067596	-14.426376	0.62849426
1493793011033	-6.7684784	-13.35228	-1.5863953
1493793011053	-4.634033	-12.361176	-1.5193787
1493793011074	-1.6353302	-11.822922	-0.44560242
1493793011094	0.7957001	-11.762375	-0.13815308
1493793011118	1.2662048	-9.489395	0.18005371
1493793011133	0.6342926	-6.7046814	1.671341
1493793011161	-0.30467224	-5.4292755	2.734604
1493793011173	-1.3895111	-4.249527	4.650131
1493793011191	-2.335205	-2.6805878	4.1684723
1493793011211	-2.586029	-1.9868469	3.2781067
1493793011230	-2.3364563	-2.2579346	2.388504
1493793011251	-2.2466125	-2.7563019	1.1933899
1493793011270	-2.411255	-3.8500214	3.0517578E-4
1493793011290	-3.1020813	-6.057434	-1.9818268
1493793011310	-5.284195	-10.970261	-8.002396
1493793011329	-7.7753754	-15.647415	-12.444824
1493793011350	-7.8144073	-13.549805	-12.666702
1493793011368	-6.7891235	-9.738861	-9.063553
1493793011388	-4.6520386	-8.932022	-4.376953
1493793011408	-5.4900055	-10.148941	-3.787201
1493793011429	-9.749695	-13.784973	-6.925308
1493793011467	-11.2487335	-15.349258	-8.540497
1493793011488	-6.2227173	-7.431198	1.3088989
1493793011506	-4.2728424	-2.6311646	3.2954712
1493793011527	-2.2214355	-3.176361	6.555191
1493793011546	-2.1519012	-8.734192	3.9530334
1493793011565	1.7111816	-12.395218	7.1257477
1493793011587	3.523285	-13.354797	6.515335
1493793011606	2.5332336	-14.036362	-0.8170166
1493793011625	1.14151	-12.685669	-3.4036713
1493793011644	-0.6212921	-10.797501	0.18421936
1493793011667	-0.91819763	-9.932617	0.9895172
1493793011684	-1.678009	-8.831543	1.5357513
1493793011704	-3.6039276	-8.120377	1.6855164
1493793011725	-3.6392212	-8.875946	-0.5205078
1493793011743	-2.719986	-9.698563	-2.0621033
1493793011764	-1.6029053	-9.260681	0.17010498
1493793011782	-0.37431335	-8.713165	2.0510712
1493793011802	0.5825348	-8.74791	2.1216888
1493793011821	0.40234375	-9.169174	0.036834717
1493793011841	0.40849304	-9.086243	-0.7283783
1493793011861	0.60401917	-9.051666	-0.3270874
1493793011880	0.3955536	-8.941254	-1.2565002
1493793011900	-0.2579956	-9.533096	-1.6912842
1493793011922	-1.9942627	-10.860291	-1.113739
1493793011940	-2.556427	-11.893982	-0.48796082
1493793011959	-0.65382385	-12.169434	0.28285217
1493793011978	1.4824982	-12.284561	0.92658997
1493793011999	1.903244	-12.2539215	0.95199585
1493793012021	0.3513794	-11.861588	-0.5715027
1493793012039	-0.025405884	-12.343384	-2.4417725
1493793012059	1.6010437	-13.323441	-2.6791534
1493793012077	3.785904	-13.823837	-2.8782501
1493793012096	2.996292	-13.211029	-2.5674438
1493793012117	-0.9610138	-12.159637	-1.8413696
1493793012136	-3.557602	-11.453918	0.6005249
1493793012157	-5.2292786	-12.66037	3.3108673
1493793012175	-8.527573	-15.091614	3.8255615
1493793012195	-9.848679	-16.255737	0.7950134
1493793012214	-7.7440796	-15.147018	-0.84814453
1493793012234	-5.15683	-12.952713	-1.0982666
1493793012254	-3.7368011	-11.912643	0.1688385
1493793012276	1.4966125	-11.215317	1.3144989
1493793012295	0.8276062	-10.379364	-0.30064392
1493793012334	1.4702759	-7.296646	0.8270111
1493793012353	1.2667084	-7.1559753	2.4569244
1493793012374	-0.07246399	-4.507202	3.0946045
1493793012392	-0.77867126	-3.235794	4.4036407
1493793012412	-1.7396698	-1.676239	4.3014984
1493793012431	-2.210434	-1.7813721	3.5083313
1493793012451	-2.674591	-1.957428	1.8019257
1493793012473	-2.7076874	-2.1568298	1.1483002
1493793012490	-3.4957733	-3.612381	-0.5341644
1493793012511	-5.619461	-7.675659	-5.222519
1493793012530	-9.190781	-14.320541	-13.080399
1493793012550	-10.8797455	-17.052017	-13.666138
1493793012569	-8.505951	-13.198776	-10.687973
1493793012588	-5.5855713	-9.011536	-5.054947
1493793012611	-6.7716217	-7.6531067	-4.122818
1493793012629	-10.234955	-10.512985	-7.19133
1493793012651	-9.005203	-13.924896	-6.8326263
1493793012667	-5.1428223	-9.213303	-0.4817505
1493793012687	-1.3934631	-4.3672943	3.7962341
1493793012707	-1.2935181	-4.672333	7.206299
1493793012726	-2.136734	-8.879272	7.1170654
1493793012746	-0.38627625	-11.951263	7.450424
1493793012766	1.8168945	-13.821991	4.3229218
1493793012785	2.875824	-14.809555	-0.9641113
1493793012805	1.1208038	-14.093384	-2.1858978
1493793012825	-0.01725769	-12.341049	0.2537079
1493793012844	-1.1474304	-9.987137	1.469162
1493793012864	-2.52742	-7.8668976	0.88497925
1493793012884	-3.7720337	-7.468811	-0.19041443
1493793012903	-3.5328827	-8.844589	-2.570633
1493793012926	-1.7528839	-10.14122	-1.623352
1493793012944	-0.13731384	-9.431473	1.8169098
1493793012964	-0.35112	-8.241745	1.0831604
1493793012982	-0.5832367	-7.6417847	0.38656616
1493793013002	-1.5150146	-7.9608154	-0.27226257
1493793013022	-2.1733093	-8.811005	-0.2550354
1493793013041	-0.9469147	-9.543594	1.7791595
1493793013062	-0.10609436	-9.992645	0.022827148
1493793013082	-0.04888916	-10.865738	-1.0072327
1493793013101	-0.20776367	-11.928284	-1.9351349
1493793013120	-0.45014954	-12.104355	-1.625351
1493793013140	0.8485718	-12.546112	-1.0686646
1493793013159	1.962738	-12.956558	-0.75323486
1493793013199	1.727829	-13.056961	-0.4776001
1493793013219	0.92326355	-13.259415	-1.9615021
1493793013241	2.7820435	-13.816162	-1.192688
1493793013259	2.198288	-13.083725	-1.5497894
1493793013278	0.9653015	-12.86438	-2.1842651
1493793013299	-4.246582	-10.73793	-1.6043396
1493793013318	-4.622345	-9.621445	-0.19023132
1493793013336	-5.0516815	-12.163269	4.004776
1493793013356	-6.6509247	-15.151474	5.3644257
1493793013376	-8.676987	-16.833893	2.8531036
1493793013396	-7.981079	-15.63768	-0.6716156
1493793013415	-5.7847443	-12.99115	-0.958725
1493793013435	-5.579376	-12.699356	0.5116577
1493793013454	-2.1655884	-11.66127	1.0415192
1493793013474	3.3413544	-10.938431	0.066833496
1493793013495	2.0241394	-8.637344	0.10018921
1493793013516	0.7454529	-5.3634033	2.6456451
1493793013534	-0.013397217	-4.6009827	3.3705597
1493793013555	-0.5801544	-3.7266846	3.967514
1493793013574	-1.9899445	-2.176422	4.1652985
1493793013592	-2.871338	-1.495697	3.6758575
1493793013612	-2.634842	-1.6348419	2.7336273
1493793013632	-2.17305	-2.148285	1.6665039
1493793013651	-1.9316711	-3.4183197	0.7190857
1493793013671	-3.0218048	-7.325897	-2.5941772
1493793013691	-5.8035583	-14.609039	-10.372726
1493793013710	-9.023178	-18.020676	-16.108688
1493793013730	-8.916092	-13.101959	-13.626114
1493793013750	-6.470154	-8.720337	-7.075348
1493793013769	-5.235962	-7.913849	-3.8101654
1493793013789	-7.3180695	-7.9917603	-4.7324677
1493793013810	-9.026688	-13.657974	-8.18779
1493793013829	-7.6337433	-15.07814	-4.6539917
1493793013849	-4.4830475	-8.8129425	0.87384033
1493793013868	-0.94563293	-4.7476196	7.485016
1493793013888	-3.000122	-6.255707	6.543091
1493793013907	-1.7802887	-9.216324	7.73526
1493793013927	1.5136871	-11.868637	7.408905
1493793013947	0.938385	-14.00737	3.3419647
1493793013966	0.21182251	-14.135101	-2.7348938
1493793013987	0.94929504	-12.458282	-1.884903
1493793014007	-0.45378113	-12.161621	0.18222046
1493793014026	-0.8373871	-9.511597	-0.44502258
1493793014065	-1.7976837	-7.2516327	2.1274872
1493793014084	-1.853714	-7.040924	1.0924835
1493793014107	-2.876068	-9.35643	-0.1063385
1493793014127	-2.4756012	-9.991547	-1.6918182
1493793014153	-1.1516724	-9.621613	0.106781006
1493793014167	-0.6054077	-8.399597	2.155304
1493793014183	-0.74339294	-7.940033	0.69976807
1493793014202	-0.32989502	-7.668625	-1.3923798
1493793014223	0.5611572	-8.089294	0.22102356
1493793014242	0.23448181	-9.30571	-0.115249634
1493793014262	-0.05657959	-10.193222	-0.94158936
1493793014282	-0.98287964	-11.216888	-1.1498871
1493793014302	-2.293747	-11.330933	-0.20280457
1493793014321	-1.7515106	-11.82634	0.4234619
1493793014341	0.4736328	-12.609879	0.8044739
1493793014360	2.021698	-13.103134	0.7496338
1493793014382	0.6476898	-12.945847	-0.35734558
1493793014401	0.42329407	-13.234909	-1.4726257
1493793014422	1.7581024	-13.972809	-1.3777161
1493793014439	2.353714	-13.723846	-2.5238037
1493793014459	1.3164368	-12.6944275	-2.8295135
1493793014478	-2.2837067	-10.7395935	-2.0720062
1493793014498	-3.3777008	-9.353653	0.2959442
1493793014518	-4.1263275	-11.10141	2.938324
1493793014537	-6.9129486	-14.160538	3.6074677
1493793014557	-9.046417	-16.115158	1.5443878
1493793014577	-8.075684	-15.60762	-0.4471283
1493793014596	-7.041168	-13.464951	-0.89715576
1493793014616	-5.8971252	-12.383957	-0.13154602
1493793014636	-2.351059	-11.683655	-0.11248779
1493793014656	1.1382599	-11.111374	-0.48416138
1493793014675	1.953659	-8.893402	0.5765381
1493793014695	1.4346161	-7.0845795	1.6969299
1493793014727	0.6540985	-6.7177277	2.0612946
1493793014737	0.30023193	-5.235626	3.4987183
1493793014755	-1.5438538	-2.6753693	3.950058
1493793014774	-1.9992218	-1.6504059	3.677719
1493793014793	-2.3580475	-1.6444397	3.0882416
1493793014813	-2.173523	-1.8418274	1.8197021
1493793014832	-2.6889038	-2.0312805	0.68193054
1493793014852	-3.5456848	-3.5561676	-0.32029724
1493793014872	-6.2701416	-8.846512	-7.617752
1493793014891	-8.957031	-15.710541	-11.733734
1493793014931	-10.895096	-19.36232	-16.317673
1493793014951	-7.8783875	-12.052261	-10.404617
1493793014976	-4.57164	-8.033707	-4.619568
1493793014993	-5.6028595	-6.2312927	-3.7483215
1493793015013	-9.531113	-8.285156	-7.359604
1493793015032	-9.784775	-15.664886	-7.7215424
1493793015050	-4.975601	-10.911987	0.98583984
1493793015069	-1.6890259	-4.902893	2.623993
1493793015089	-0.9417877	-4.8884125	7.5632477
1493793015108	-3.1348877	-8.961594	6.60791
1493793015128	-0.21806335	-11.445236	7.6655426
1493793015148	2.473236	-13.228775	5.8504333
1493793015167	1.9676514	-14.613144	-0.43171692
1493793015187	1.1243134	-14.119995	-3.1685486
1493793015206	0.11451721	-12.4231415	0.29789734
1493793015226	-0.5572815	-10.555771	0.91459656
1493793015246	-2.350113	-8.149536	-0.061676025
1493793015266	-3.2201843	-7.4095306	-0.3500824
1493793015286	-2.9337006	-8.593018	-0.5670471
1493793015305	-2.7065887	-9.661728	-1.677887
1493793015326	-1.7472839	-9.281143	-0.6471405
1493793015345	-0.85557556	-8.256287	1.6121216
1493793015365	-0.67204285	-7.946701	1.3634796
1493793015384	-1.2200775	-7.9956055	-0.25628662
1493793015403	-1.6742859	-8.202744	-0.35707092
1493793015423	-0.95880127	-8.702499	0.381485
1493793015443	-0.664505	-9.191956	0.7568512
1493793015463	-0.66311646	-10.2034	0.13821411
1493793015482	-0.6444397	-11.510635	-1.0338287
1493793015502	-1.026535	-12.290131	-1.2308197
1493793015522	0.40612793	-12.727737	-0.36210632
1493793015541	2.0795135	-13.132248	0.72184753
1493793015561	2.1993713	-13.166214	0.42242432
1493793015581	0.9784851	-12.92215	-1.5456085
1493793015600	1.7597351	-12.863602	-2.3240051
1493793015623	1.5600586	-12.325577	-2.021698
1493793015641	1.8913727	-12.713089	-3.1070862
1493793015667	2.1178436	-12.41835	-2.315918
1493793015680	-1.5057831	-11.907928	-0.52124023
1493793015698	-4.6815643	-10.788956	0.08068848
1493793015718	-5.410019	-11.081787	3.9382324
1493793015738	-7.959305	-13.956406	4.272339
1493793015758	-9.013672	-15.742935	2.4299774
1493793015797	-8.290955	-15.867157	-0.3928833
1493793015816	-5.96463	-13.974106	-0.6382141
1493793015836	-4.658951	-11.950195	-0.14709473
1493793015856	0.68489075	-11.489151	0.6463928
1493793015876	3.6318054	-12.519653	-2.6628723
1493793015895	1.1867981	-9.565292	-0.5913696
1493793015916	0.3700409	-5.3785095	3.2621155
1493793015935	0.04522705	-5.075821	4.317642
1493793015954	-0.9059906	-3.4253693	4.2173767
1493793015974	-1.6397705	-2.1844177	3.8912964
1493793015994	-2.469635	-1.716217	3.458374
1493793016013	-2.9818268	-2.01622	2.6815186
1493793016033	-2.7234344	-2.4495544	1.5736237
1493793016053	-3.0648193	-3.1414337	0.3222351
1493793016072	-3.4401855	-5.2564087	-1.6540527
1493793016092	-4.6023865	-10.498642	-6.8744965
1493793016112	-6.77742	-16.913101	-14.458633
1493793016132	-7.996704	-17.300858	-15.856155
1493793016153	-6.389267	-12.673492	-11.255951
1493793016178	-4.670746	-9.6892395	-5.7407074
1493793016193	-5.745102	-6.5152283	-3.458786
1493793016213	-7.1643677	-5.773651	-5.4033203
1493793016232	-8.275253	-10.677673	-6.574524
1493793016251	-6.538727	-13.442993	-1.0593567
1493793016271	-3.7300262	-10.62294	3.1405334
1493793016289	-3.0391998	-7.6633453	5.6324005
1493793016309	-2.9309235	-7.347687	6.749954
1493793016329	-0.4594574	-8.004593	7.438843
1493793016348	2.2440796	-10.252197	6.3899536
1493793016368	1.896225	-13.164719	2.7856445
1493793016388	0.9015045	-13.545685	-0.5443115
1493793016409	1.8228607	-12.288925	-2.0613708
1493793016427	-0.23124695	-10.969894	0.12460327
1493793016447	-2.9999847	-8.241074	-0.13053894
1493793016467	-4.587097	-7.096222	-1.714798
1493793016486	-3.5601807	-8.234467	-1.4223022
1493793016506	-1.4912872	-9.468094	-1.373291E-4
1493793016527	0.7024994	-9.67923	0.7661133
1493793016546	1.1763	-8.927322	1.0617676
1493793016566	-0.36975098	-8.573563	0.16056824
1493793016585	-0.99102783	-8.497742	0.17456055
1493793016604	-0.88243103	-8.621902	0.3048401
1493793016624	-0.74816895	-9.638199	-0.3558197
1493793016664	-0.048171997	-10.078537	-0.29405212
1493793016683	-0.15226746	-10.424652	-1.2558441
1493793016703	-1.556366	-11.942566	-1.7775116
1493793016722	-1.3824615	-12.438065	-1.2630768
1493793016742	1.3066559	-12.691391	0.26498413
1493793016762	1.9311371	-12.229492	0.4078369
1493793016781	1.2486572	-12.026474	0.23776245
1493793016807	0.5822296	-12.696274	-2.0958405
1493793016823	2.0905304	-12.726044	-1.8973846
1493793016844	2.127411	-12.465179	-2.4192657
1493793016860	2.1450806	-11.8965	-2.348297
1493793016880	-2.1001892	-11.112335	-1.5073395
1493793016899	-5.0541687	-10.263748	0.4685974
1493793016919	-6.3907013	-11.711472	3.8846283
1493793016939	-8.467743	-15.355209	4.1623535
1493793016959	-9.7183075	-17.417053	1.7380371
1493793016978	-8.645218	-16.406326	-0.6151581
1493793016998	-6.8130493	-14.028778	-0.6893463
1493793017017	-4.5637054	-12.668472	-0.4151764
1493793017038	-0.96006775	-11.880051	-0.10649109
1493793017058	1.6078949	-10.958191	-0.47688293
1493793017078	0.8273773	-9.061264	0.029312134
1493793017097	0.5907898	-6.545883	2.0609283
1493793017118	0.05882263	-4.317093	3.309845
1493793017138	-1.2157593	-2.3975525	3.703003
1493793017156	-2.0683594	-1.0739136	3.8166199
1493793017176	-2.1304626	-0.5547943	3.6374664
1493793017195	-1.9597778	-1.0315857	2.7532654
1493793017214	-1.6901855	-2.0496826	1.1936646
1493793017234	-1.5761566	-3.5701141	-0.26445007
1493793017254	-2.1713867	-7.14859	-3.6514893
1493793017273	-4.6873627	-13.673569	-10.333908
1493793017293	-8.651855	-16.933746	-14.999191
1493793017313	-8.66774	-13.108902	-13.765045
1493793017332	-6.5148315	-9.642029	-8.24321
1493793017352	-4.7102966	-9.335312	-4.2425385
1493793017372	-6.943573	-8.558044	-3.9714508
1493793017395	-9.460037	-11.225861	-8.365616
1493793017414	-11.1094055	-15.522888	-8.045837
1493793017432	-6.8960114	-10.596451	2.1018372
1493793017452	-3.0320282	-4.199997	3.9290771
1493793017472	-0.78759766	-2.7565613	7.424225
1493793017490	-2.724945	-7.5992584	6.3525543
1493793017509	0.67099	-11.326813	8.022614
1493793017549	2.3343658	-13.720032	6.457901
1493793017569	2.2650604	-14.902023	0.023040771
1493793017588	1.2276154	-13.625977	-3.9452515
1493793017608	0.5282593	-12.100159	-1.5054626
1493793017628	-0.5915222	-10.323593	1.0861664
1493793017648	-2.315384	-8.370972	0.60417175
1493793017667	-2.6051636	-7.742096	1.3687897
1493793017687	-3.7855682	-8.691177	-0.8201904
1493793017707	-3.3296509	-9.342865	-2.0612183
1493793017728	-2.1306152	-9.4713745	-1.0563812
1493793017747	-0.35658264	-8.469101	1.8016815
1493793017766	0.08905029	-8.379547	2.3031158
1493793017786	-0.047042847	-8.429504	-0.025466919
1493793017805	-0.7071228	-8.14328	-0.12893677
1493793017825	-0.48483276	-8.962341	-0.2508545
1493793017845	-0.3070984	-10.092789	-0.93292236
1493793017864	-0.06124878	-10.976379	-1.0494995
1493793017884	-0.34425354	-11.508453	-1.0789032
1493793017904	-1.1958466	-11.566238	-1.1206818
1493793017923	-0.45005798	-11.919937	-0.1543274
1493793017944	1.183609	-12.401993	0.7728882
1493793017962	0.4541626	-12.179016	0.43414307
1493793017982	-0.02772522	-12.014893	-1.165268
1493793018002	1.2068939	-12.2200165	-1.2405853
1493793018025	2.0346985	-12.832626	-1.7335968
1493793018043	2.5380096	-13.26619	-2.365326
1493793018063	-0.2829895	-12.640305	-1.5069885
1493793018081	-4.395645	-11.003906	-1.3583374
1493793018101	-5.5176544	-10.816498	1.6777649
1493793018120	-6.9162903	-13.206009	3.746521
1493793018140	-9.055634	-15.699753	2.821762
1493793018159	-9.236633	-16.53743	0.37556458
1493793018179	-6.7062073	-14.509537	-1.3342743
1493793018199	-4.956482	-12.407928	-0.97099304
1493793018218	-4.2304688	-11.758926	-0.10623169
1493793018238	2.866455	-10.786819	0.70137024
1493793018258	1.6225586	-10.414032	-0.7997284
1493793018277	1.122818	-7.4365845	1.2702942
1493793018299	0.4728546	-6.6438293	2.8930817
1493793018318	0.07647705	-4.978531	3.0005493
1493793018337	-1.5805664	-2.854004	3.7643127
1493793018357	-1.9670105	-1.2831268	3.723816
1493793018376	-2.5991058	-1.5799866	2.9133759
1493793018416	-2.5606842	-1.9667969	2.475525
1493793018435	-2.5352783	-2.737732	0.86424255
1493793018454	-3.0787506	-3.7649536	-0.65670776
1493793018474	-3.8451996	-6.3468018	-3.5464325
1493793018494	-6.768524	-13.065308	-11.822159
1493793018514	-9.615707	-17.303665	-14.145386
1493793018533	-8.646942	-15.873718	-13.544296
1493793018554	-5.99942	-10.74707	-8.036194
1493793018573	-5.4155884	-7.6601257	-3.919754
1493793018592	-6.997757	-6.132782	-4.4817047
1493793018612	-8.868332	-9.603012	-7.5277405
1493793018633	-8.33252	-13.649765	-4.486267
1493793018653	-4.7302704	-10.059723	3.0191498
1493793018676	-2.4982758	-6.0811462	4.6640625
1493793018692	-1.2381744	-6.5812683	6.943939
1493793018711	-0.7413025	-9.174698	6.4092712
1493793018730	1.8668671	-11.53653	6.6042633
1493793018750	2.359085	-13.347214	3.2220612
1493793018769	1.7929688	-13.482773	-1.1579132
1493793018789	0.9936676	-12.729584	-1.9781799
1493793018809	-0.45443726	-11.315811	-0.22087097
1493793018829	-2.8334503	-9.04422	0.78585815
1493793018848	-3.8801727	-6.545822	0.4683838
1493793018868	-3.9594727	-7.0850067	-0.71113586
1493793018888	-2.9978333	-9.177017	-1.1206055
1493793018907	-0.67936707	-10.350021	0.104400635
1493793018928	0.98005676	-9.801727	1.0133514
1493793018947	0.106552124	-8.745117	0.18092346
1493793018966	-0.41046143	-8.531937	-0.2134552
1493793018987	-0.6214142	-9.027374	0.14198303
1493793019006	-0.8038788	-9.63913	0.45936584
1493793019026	-0.599411	-9.792938	-0.03727722
1493793019046	-0.32281494	-10.078308	-1.0844727
1493793019065	-1.677002	-10.783707	-1.3023224
1493793019085	-2.4241638	-11.22879	-1.304184
1493793019105	-1.3840027	-11.497787	-0.1126709
1493793019124	0.072052	-12.0052185	1.0457001
1493793019144	1.4142456	-12.526154	0.79074097
1493793019167	0.8191376	-12.052887	0.28268433
1493793019183	-0.025527954	-11.671814	-1.9005585
1493793019203	1.6604156	-12.240601	-1.5145264
1493793019223	2.0042114	-13.024933	-2.8572388
1493793019242	3.982727	-12.461151	-2.4058228
1493793019281	0.5826874	-12.264893	-0.649765
1493793019301	-4.333145	-10.773193	-1.218216
1493793019321	-4.843643	-11.10498	2.9541779
1493793019341	-7.061966	-13.8341675	4.4571686
1493793019361	-9.065842	-15.746597	2.9411163
1493793019380	-8.451096	-16.169678	-0.17843628
1493793019403	-7.1809235	-14.913712	-1.3428345
1493793019423	-5.2385864	-12.65506	-0.889801
1493793019442	-3.3249512	-11.730225	0.107437134
1493793019467	1.2223663	-11.221756	-1.1094666
1493793019483	1.6982117	-10.540192	-0.37675476
1493793019501	0.044525146	-7.253708	1.6692963
1493793019524	0.5961304	-5.829483	2.9746094
1493793019540	-0.3348236	-4.5982056	3.4055786
1493793019560	-1.1321411	-2.849701	4.4162903
1493793019580	-2.2317352	-1.1837921	4.058716
1493793019596	-2.5364838	-1.0472717	3.3893433
1493793019618	-2.5753632	-1.5815735	2.2026215
1493793019636	-2.6580505	-2.346695	0.83251953
1493793019656	-2.9079895	-4.3287964	-0.90875244
1493793019680	-4.967911	-9.412674	-7.307495
1493793019695	-8.680939	-16.004684	-13.937515
1493793019715	-9.923187	-16.890228	-14.178604
1493793019734	-7.857971	-12.635864	-10.477615
1493793019754	-5.4416504	-8.91983	-5.537628
1493793019774	-6.2039795	-6.1969604	-3.9220734
1493793019793	-9.169205	-7.111328	-6.377899
1493793019814	-10.659378	-12.222748	-6.8457947
1493793019834	-8.106232	-13.025177	-1.732727
1493793019853	-4.718582	-9.901901	2.6682281
1493793019872	-1.8345947	-7.026108	6.0321655
1493793019892	-2.4559326	-7.663086	6.587509
1493793019911	-8.8500977E-4	-9.258881	6.36969
1493793019931	1.7914734	-11.695892	6.053665
1493793019951	1.8587952	-13.013062	1.4421844
1493793019971	2.0930023	-13.329102	-2.1255493
1493793019990	1.3783417	-12.8841095	-1.4459076
1493793020010	0.0602417	-11.893204	-0.6233978
1493793020030	-2.785431	-8.2789	0.24298096
1493793020050	-3.9891663	-6.7015076	-0.27262878
1493793020069	-3.427948	-7.571045	0.30825806
1493793020089	-1.8892975	-9.880997	-1.6022339
1493793020108	-0.9032593	-10.146774	-0.039398193
1493793020130	-0.978302	-9.294281	0.41130066
1493793020168	-0.40745544	-8.739853	1.6824493
1493793020187	-0.31063843	-8.549927	-0.34490967
1493793020207	-0.56427	-8.968033	-0.29296875
1493793020227	-0.17301941	-9.396576	-0.18035889
1493793020246	-0.20399475	-9.69693	-0.69744873
1493793020267	0.3396759	-10.065842	-1.512497
1493793020286	-0.6505585	-10.818115	-1.2133026
1493793020305	-2.1518707	-11.165634	-0.5422516
1493793020325	-1.4144897	-11.739792	-0.040618896
1493793020345	0.5228119	-12.303177	0.8089447
1493793020365	2.663208	-12.679169	1.3642273
1493793020385	0.4237976	-12.437103	-0.2774353
1493793020405	-0.5991516	-12.436005	-2.4959106
1493793020425	1.3768463	-12.352585	-1.8650818
1493793020444	2.3852234	-13.09874	-2.7947235
1493793020464	2.323227	-12.888229	-2.6367493
1493793020483	-1.0620728	-11.524918	-1.6279144
1493793020503	-3.3622284	-11.056946	-0.011291504
1493793020523	-4.228012	-12.194885	3.4872437
1493793020542	-6.883438	-14.654236	4.1401978
1493793020562	-8.960632	-16.124725	1.7897949
1493793020581	-8.347397	-16.022354	-0.6083679
1493793020601	-6.203903	-13.9313965	-1.5131226
1493793020621	-4.5512695	-12.049118	-0.8318176
1493793020640	-1.6777802	-11.2513275	-0.4239502
1493793020660	2.4841309	-11.278534	-0.95118713
1493793020681	2.4435272	-9.70929	-0.043548584
1493793020705	1.1256714	-6.809555	2.091446
1493793020720	-0.10166931	-5.7838287	3.4332733
1493793020739	-0.5949707	-4.123825	3.961731
1493793020758	-1.6039886	-2.1715546	4.161545
1493793020778	-2.4250793	-1.3097534	3.752716
1493793020798	-2.9943085	-1.4338684	3.0902863
1493793020818	-2.917328	-2.0233002	1.8499451
1493793020837	-3.187317	-2.8149567	0.20370483
1493793020857	-2.9439697	-3.9969482	-1.0085907
1493793020876	-5.1070557	-8.397827	-6.7794495
1493793020896	-8.633728	-14.310745	-10.113647
1493793020917	-11.1548	-19.010757	-15.066574
1493793020935	-7.0871277	-13.172867	-11.401855
1493793020957	-4.31514	-8.767746	-6.361252
1493793020977	-5.579956	-6.1516724	-4.673523
1493793020997	-7.8984528	-3.6330566	-5.322464
1493793021036	-9.114365	-9.677475	-6.850708
1493793021055	-9.0069275	-14.627914	-4.5883026
1493793021073	-6.5706635	-12.508087	0.19743347
1493793021093	-1.0643768	-7.678467	3.6811218
1493793021112	-0.7394409	-7.1764526	7.799515
1493793021132	-1.3450775	-7.82341	7.3962555
1493793021153	1.5409698	-10.030869	6.950638
1493793021173	0.88549805	-12.404541	4.002823
1493793021191	0.6492462	-13.287796	-0.38893127
1493793021211	1.1642456	-12.900803	-1.1637878
1493793021231	1.4881592	-11.751175	-0.38287354
1493793021250	-2.1726685	-9.616348	0.6448517
1493793021270	-3.561325	-7.204361	0.493515
1493793021291	-2.8315887	-7.6613464	-0.6779175
1493793021312	-2.1328735	-8.942932	-0.8056183
1493793021331	-0.7167969	-9.746429	-0.15530396
1493793021350	0.19770813	-9.381027	1.3128204
1493793021369	-0.42530823	-8.6436615	0.4724884
1493793021389	-0.73249817	-8.264175	-0.84033203
1493793021408	-1.2425079	-8.744034	-0.9252472
1493793021428	-0.93377686	-9.737518	-0.6615906
1493793021447	-0.34054565	-10.546814	-0.5170288
1493793021467	0.06925964	-10.636139	-0.39897156
1493793021487	-0.6438446	-11.131378	-0.69770813
1493793021506	-1.7790833	-11.6073	-1.1422424
1493793021526	-0.4296875	-12.003067	-0.030517578
1493793021546	1.6722565	-12.837082	0.6996918
1493793021565	1.0049133	-12.890167	-0.4400177
1493793021586	0.49087524	-12.634796	-1.8086243
1493793021605	1.4808655	-12.347229	-2.1977081
1493793021626	2.1776276	-12.913727	-2.4347076
1493793021647	3.1951447	-13.003326	-2.1934204
1493793021666	0.026397705	-12.04715	-1.6008759
1493793021683	-4.2575836	-10.494278	-0.47213745
1493793021703	-5.846649	-10.986954	3.0559235
1493793021723	-7.7051697	-14.111176	5.069275
1493793021743	-10.494217	-17.066452	2.7413177
1493793021762	-9.61113	-17.016953	0.020217896
1493793021782	-7.3559113	-14.506073	-1.3171997
1493793021802	-6.2717743	-12.82579	-0.1486969
1493793021821	-3.0339966	-12.093597	-0.86291504
1493793021841	3.1103668	-11.0759735	0.18954468
1493793021861	0.14463806	-9.85231	-0.37384033
1493793021882	0.8826599	-5.1571198	2.5529022
1493793021922	-0.06448364	-5.64917	3.0234985
1493793021941	0.52937317	-4.348709	5.0256805
1493793021961	-0.68847656	-2.1487732	4.547882
1493793021979	-1.8134003	-0.81980896	4.194824
1493793021999	-2.0825043	-1.0998077	3.4187317
1493793022018	-2.350174	-1.3808136	1.9400177
1493793022038	-2.1294556	-2.4523773	0.15246582
1493793022058	-2.6305237	-5.023819	-2.505783
1493793022078	-4.8984528	-10.808136	-9.004929
1493793022097	-8.386124	-16.727448	-11.911011
1493793022117	-10.167679	-16.915237	-14.398483
1493793022136	-8.09523	-12.067596	-10.067459
1493793022156	-5.493561	-8.985275	-4.6416016
1493793022185	-5.9719696	-6.1253204	-4.4282227
1493793022197	-7.417328	-6.088043	-7.231064
1493793022219	-8.803452	-12.32164	-10.11499
1493793022236	-7.3598022	-13.946075	-3.6283722
1493793022257	-2.631485	-8.450775	5.833374
1493793022274	-2.5998535	-6.802582	8.087692
1493793022294	-2.7984772	-8.284515	7.9740295
1493793022313	0.08345032	-9.853302	8.261505
1493793022333	2.2466125	-11.598434	6.1547394
1493793022353	1.5402069	-12.993912	1.0518799
1493793022373	0.50512695	-12.83371	-0.91342163
1493793022392	0.20420837	-11.362457	-0.82522583
1493793022412	-0.34387207	-9.880768	-0.33592224
1493793022432	-2.572525	-8.30658	0.19186401
1493793022451	-3.264862	-8.222977	0.071258545
1493793022471	-1.686264	-9.202759	0.32699585
1493793022491	-0.39537048	-9.898758	0.23284912
1493793022511	-0.24847412	-9.602112	-0.4031372
1493793022531	-1.6996918	-8.855057	1.2583771
1493793022554	-1.5081177	-8.690903	-0.68318176
1493793022571	-2.0202484	-8.30455	-0.9371338
1493793022590	-0.4646759	-9.008789	-0.13105774
1493793022610	0.31330872	-10.331512	-0.7969513
1493793022630	-0.0716095	-10.621826	-0.5758667
1493793022650	-0.8266907	-10.455536	0.09111023
1493793022671	-3.2728271	-10.542282	-0.16778564
1493793022693	-2.8153381	-11.516861	-0.2698822
1493793022717	1.4460907	-12.086807	1.9289093
1493793022727	2.1885834	-11.862305	2.0256195
1493793022747	-1.3481445	-12.003342	-0.07991028
1493793022786	-0.4768982	-12.235886	-1.5067139
1493793022806	1.7499847	-11.740265	-0.8751526
1493793022825	1.8759155	-12.895416	-2.5363312
1493793022845	3.4904327	-13.544403	-3.043991
1493793022865	1.1293335	-12.165588	-1.9466705
1493793022886	-2.9727173	-11.56337	-1.1041565
1493793022905	-4.9479675	-9.740753	2.3300629
1493793022925	-5.753357	-11.677948	4.2632446
1493793022945	-8.396835	-15.607208	3.2831573
1493793022971	-8.848465	-17.499863	0.7283325
1493793022986	-6.407501	-15.807968	-0.06251526
1493793023005	-4.5000916	-13.180542	0.05291748
1493793023026	-3.7164917	-11.976898	0.38452148
1493793023044	-1.6388245	-11.169235	0.8271332
1493793023068	1.4448242	-10.915375	-0.023162842
1493793023087	-0.91166687	-9.189011	0.118621826
1493793023104	-0.290802	-5.610138	2.3323212
1493793023129	-0.7342682	-4.0767365	3.2334747
1493793023143	-1.0548859	-2.6676788	3.147171
1493793023168	-1.806839	-1.2140656	3.8585358
1493793023186	-2.275116	-1.2034607	3.3626404
1493793023199	-2.0444183	-2.0475464	2.4906158
1493793023219	-2.1477966	-3.0969849	1.3044739
1493793023239	-2.5646515	-4.925827	-0.87812805
1493793023259	-3.6910706	-9.082794	-6.159912
1493793023278	-5.6129913	-14.524796	-10.849014
1493793023298	-7.168808	-15.56514	-12.173065
1493793023318	-7.551605	-11.881668	-10.987625
1493793023338	-5.8668976	-9.449875	-7.4726715
1493793023357	-4.2903137	-8.92186	-5.290161
1493793023377	-4.8948975	-7.0713654	-5.5197144
1493793023396	-6.896927	-6.030899	-6.394943
1493793023417	-9.417999	-10.037369	-4.1537933
1493793023437	-8.408966	-13.283035	-0.6902313
1493793023457	-7.039505	-12.029617	-2.0576172
1493793023475	-1.7324677	-8.587967	3.2018738
1493793023495	-1.5260162	-7.5477295	6.5006104
1493793023514	-0.90423584	-8.164078	6.9681396
1493793023536	2.8484344	-9.926483	6.639511
1493793023554	2.4658508	-12.600632	4.2951508
1493793023574	-0.17977905	-13.614349	0.33047485
1493793023593	-0.31950378	-12.055725	-2.0862122
1493793023613	-0.8043518	-11.01326	-0.5899048
1493793023633	-3.290863	-9.142136	-0.6465454
1493793023674	-3.4372406	-7.6739044	0.9615021
1493793023698	-3.1469421	-8.433441	1.1645355
1493793023717	-1.7057343	-10.006195	-0.5219574
1493793023733	-0.08312988	-10.313873	-1.2224731
1493793023753	-0.6676941	-9.205536	0.6006775
1493793023771	-0.38253784	-8.367798	2.2451782
1493793023791	-0.38923645	-8.38002	-1.0904541
1493793023810	-0.2980652	-8.570328	-0.71217346
1493793023830	-0.5842743	-9.86264	-0.8510742
1493793023850	-0.1103363	-9.8224945	-0.6834564
1493793023869	0.36997986	-9.4002075	-0.46081543
1493793023889	-0.4675598	-10.392181	-0.7310333
1493793023908	-2.111023	-11.698074	-0.48631287
1493793023928	-1.3801575	-12.064362	-0.37902832
1493793023948	1.1390991	-12.026962	0.6787262
1493793023968	1.9613647	-12.338135	1.2324371
1493793023990	-0.25804138	-12.201416	-0.3964386
1493793024008	-1.0003204	-12.100616	-1.572464
1493793024031	-0.14027405	-11.967255	-1.7970123
1493793024048	1.1890564	-12.465927	-2.5135803
1493793024066	2.4005737	-12.966995	-3.0903015
1493793024088	0.34440613	-12.123398	-1.632843
1493793024106	-3.4598236	-10.419754	-0.1764679
1493793024125	-5.0099335	-10.827011	2.3138733
1493793024145	-6.971054	-13.619537	4.2774353
1493793024164	-8.814392	-15.52919	2.685608
1493793024184	-8.077744	-15.575104	-0.05430603
1493793024204	-6.2347717	-14.195541	-1.3523865
1493793024223	-4.777008	-12.695221	-1.139267
1493793024243	-3.445694	-12.08165	-0.1631012
1493793024263	1.2854462	-11.997101	0.29414368
1493793024284	2.020523	-10.869354	-1.7366333
1493793024303	0.36476135	-7.5395966	0.32608032
1493793024324	0.27261353	-6.2218323	2.2648163
1493793024343	0.14953613	-4.6127167	3.6976013
1493793024362	-1.1999054	-2.7154999	4.1674194
1493793024381	-2.0751343	-1.7576447	4.1162415
1493793024401	-2.6213074	-1.9473419	3.1985016
1493793024421	-2.995407	-2.0740204	2.312851
1493793024441	-2.9631958	-2.49971	0.9239502
1493793024460	-2.9544678	-4.0545044	-0.95196533
1493793024479	-3.5368805	-7.723236	-4.376053
1493793024499	-6.647461	-14.765839	-10.752609
1493793024539	-8.290405	-19.433945	-16.867584
1493793024559	-7.716629	-12.74527	-12.275558
1493793024578	-5.090927	-8.436447	-6.2469177
1493793024602	-3.5743256	-7.159851	-3.389923
1493793024621	-4.1999207	-4.545624	-5.0677643
1493793024638	-5.2722015	-5.0713196	-7.320755
1493793024658	-9.601044	-12.960587	-6.562973
1493793024678	-7.263489	-16.977386	-1.6681213
1493793024702	-2.3555756	-13.799408	3.4691772
1493793024716	-1.9563599	-8.88736	4.386856
1493793024736	-2.829712	-6.071274	5.9509277
1493793024755	-0.9338379	-6.325653	6.6678925
1493793024775	0.09741211	-9.4086	6.571701
1493793024794	-0.18444824	-12.558014	4.3213196
1493793024814	-0.13015747	-13.525101	1.043457
1493793024834	1.0433044	-12.133347	-0.71406555
1493793024854	-0.87327576	-10.392578	-0.12542725
1493793024873	-3.7634277	-7.986496	0.38676453
1493793024893	-3.676941	-7.372238	1.2184143
1493793024914	-2.120407	-8.4969635	1.1786957
1493793024933	-0.56806946	-9.705795	0.3511963
1493793024956	0.42352295	-10.214432	0.25987244
1493793024972	-0.05555725	-9.514313	0.42060852
1493793024993	-0.50546265	-8.67897	0.13977051
1493793025014	-0.107925415	-8.466629	-1.6087952
1493793025031	-0.16763306	-8.9627075	-1.7066803
1493793025050	-0.23765564	-9.805664	-0.64289856
1493793025070	-0.3919525	-10.257828	-0.17286682
1493793025092	-1.2446136	-10.414566	-0.23365784
1493793025110	-1.9616852	-10.623398	-0.37374878
1493793025130	-1.1004639	-11.028564	-0.1025238
1493793025149	0.7825012	-11.774658	0.9362488
1493793025174	0.98168945	-12.044571	0.7731476
1493793025229	-0.3204651	-11.903549	0.43049622
1493793025229	-0.48651123	-11.9036255	-0.43304443
1493793025229	0.27035522	-12.139328	-1.3945465
1493793025249	0.72584534	-12.224808	-1.5470428
1493793025267	2.237915	-12.464355	-2.4514008
1493793025287	2.354599	-12.473877	-2.789505
1493793025306	-1.5394897	-11.336533	-1.1617737
1493793025326	-4.743149	-10.338791	-0.79315186
1493793025347	-5.5793915	-11.110947	2.664383
1493793025366	-8.365372	-14.615906	4.4465027
1493793025385	-10.225662	-16.446976	2.7506409
1493793025425	-8.488022	-14.489914	-0.52542114
1493793025444	-7.057312	-13.114212	-1.6074829
1493793025465	-5.0727997	-12.08905	-1.124115
1493793025484	-3.181656	-11.998871	-0.16697693
1493793025506	4.338257	-11.646652	0.3191986
1493793025524	0.63357544	-10.018982	-0.6471863
1493793025543	0.86505127	-7.1246033	1.4515228
1493793025563	0.7949066	-6.522537	3.285263
1493793025584	-0.7911835	-4.9803314	3.3218079
1493793025604	-1.282608	-3.0404968	3.8880005
1493793025623	-2.1301575	-1.7175598	3.7038574
1493793025643	-2.4902954	-1.6130676	2.7099304
1493793025667	-2.7254639	-2.04982	1.6411285
1493793025691	-2.8379364	-2.8891754	0.23034668
1493793025713	-3.417801	-4.4024506	-1.3308563
1493793025725	-5.18631	-8.605759	-5.7822113
1493793025740	-8.336395	-14.905945	-13.14061
1493793025759	-9.926224	-16.53949	-14.492355
1493793025779	-7.6123505	-12.274597	-10.764572
1493793025799	-4.6772003	-8.195053	-6.342087
1493793025818	-4.3382416	-5.945801	-4.9034576
1493793025839	-6.591446	-4.7224884	-5.1833344
1493793025858	-9.3806	-8.204742	-5.119858
1493793025878	-10.087784	-13.848999	-3.5529327
1493793025897	-7.927002	-13.884918	-1.760437
1493793025917	-3.2572937	-9.404785	3.2657776
1493793025937	-1.920105	-6.565567	6.3111267
1493793025957	-1.5383301	-7.2946167	6.32782
1493793025977	0.6728668	-9.538025	6.746887
1493793025997	1.2959137	-11.829117	5.463913
1493793026017	0.9691925	-13.839188	1.0824127
1493793026039	0.18774414	-14.030151	-2.509018
1493793026058	0.36532593	-12.080643	-0.6607208
1493793026078	-1.671341	-10.383179	0.11299133
1493793026099	-3.4515533	-8.133591	-0.37451172
1493793026118	-2.7727203	-7.1410065	0.16383362
1493793026137	-1.8360748	-8.346619	0.4086914
1493793026157	-1.2162476	-9.826965	-1.3051758
1493793026177	0.08628845	-9.828934	-0.4832611
1493793026193	-1.0901337	-9.1008	-0.815506
1493793026212	-0.7737274	-8.499252	0.8279877
1493793026232	-0.7470703	-8.721756	-0.5794983
1493793026252	-0.44277954	-9.1297	0.12657166
1493793026271	-0.42642212	-9.762817	0.16963196
1493793026311	-0.36421204	-9.768463	-1.053482
1493793026330	0.021636963	-10.124908	-1.5451202
1493793026351	-1.0749512	-11.042297	-0.46195984
1493793026370	-1.7486877	-11.454346	-0.5619812
1493793026391	-1.3042145	-11.493362	0.6039429
1493793026418	0.07621765	-11.965103	1.8616638
1493793026431	0.64082336	-12.297913	1.5692596
1493793026449	-0.79956055	-12.198135	0.4837494
1493793026469	-0.28834534	-12.784607	-0.772171
1493793026488	1.2690277	-13.373642	-1.0896759
1493793026508	2.2753448	-13.7798	-2.96727
1493793026527	0.92189026	-13.06308	-3.3947601
1493793026547	-2.3361053	-10.872421	-2.088791
1493793026567	-3.5024414	-10.112137	-0.52838135
1493793026587	-4.4129486	-11.649338	2.957489
1493793026607	-7.3286743	-14.097046	3.3704987
1493793026626	-9.886414	-15.591385	1.1311951
1493793026646	-8.6445465	-14.424683	-0.4393921
1493793026665	-6.1678925	-12.250809	-0.715683
1493793026696	-4.7618256	-11.344788	-0.7467804
1493793026707	-0.24090576	-11.596909	0.6778259
1493793026727	3.1864166	-11.360199	0.48373413
1493793026744	1.9268494	-8.955566	0.26190186
1493793026764	1.3224487	-6.523178	1.749466
1493793026783	0.27941895	-5.0657196	2.7430878
1493793026803	-0.96250916	-3.5872803	3.52565
1493793026823	-1.9426727	-2.3068085	3.8443756
1493793026842	-2.713028	-1.8595886	3.578598
1493793026862	-2.9280243	-1.9230957	2.4915771
1493793026883	-3.1139069	-2.3184662	1.0649719
1493793026901	-3.489975	-3.2210236	-0.38760376
1493793026923	-3.8549957	-6.03244	-3.112671
1493793026941	-5.530945	-12.074295	-8.78157
1493793026961	-9.01178	-17.409515	-14.268311
1493793026983	-9.481888	-15.448013	-13.796448
1493793027000	-6.420105	-11.382141	-8.77626
1493793027023	-5.0565796	-8.089645	-4.461609
1493793027041	-5.869751	-5.031952	-4.1438446
1493793027061	-8.168961	-5.68692	-6.222183
1493793027079	-9.323929	-12.962265	-5.413101
1493793027098	-7.241623	-14.551636	-0.655838
1493793027118	-3.7625427	-11.225098	1.7302551
1493793027138	0.06034851	-6.7352448	8.798126
1493793027158	-3.0061798	-6.914612	5.9160614
1493793027201	1.0548401	-7.606827	6.0976105
1493793027217	2.7042236	-11.536682	6.3687134
1493793027236	1.9144135	-13.001831	1.994461
1493793027256	0.59080505	-13.448547	-1.5063782
1493793027278	0.45687866	-12.163483	-1.4792175
1493793027298	-0.80677795	-10.417709	-0.48876953
1493793027318	-2.8890076	-8.0616455	0.10519409
1493793027338	-3.3485565	-7.9011993	-0.21827698
1493793027358	-3.684143	-8.855988	0.56492615
1493793027376	-2.0020752	-9.365051	-0.70106506
1493793027394	-0.21794128	-10.100021	-0.11579895
1493793027414	0.13113403	-9.755814	0.31459045
1493793027433	-0.30264282	-9.256821	0.22543335
1493793027453	-0.6754608	-8.674576	0.18400574
1493793027473	-0.67456055	-8.667419	0.24162292
1493793027493	-0.5695343	-9.070801	0.09565735
1493793027513	-0.5072174	-9.373123	-1.2024994
1493793027533	-0.29536438	-9.850204	-1.6113281
1493793027552	-0.6091156	-10.561844	-1.2841034
1493793027571	-1.2994843	-11.1914215	-0.7062683
1493793027591	-1.2692413	-11.603104	-0.17807007
1493793027615	0.15444946	-11.751526	0.7159729
1493793027631	1.2986298	-12.13945	1.3454437
1493793027652	0.008255005	-12.451172	0.12294006
1493793027671	-1.238266	-12.645935	-1.7836304
1493793027704	0.14195251	-12.960617	-2.182251
1493793027714	2.6969604	-12.998596	-2.33667
1493793027728	2.5928802	-12.914307	-2.3711548
1493793027804	-1.3430481	-11.949402	-1.7897644
1493793027804	-4.22023	-10.637451	-0.5883789
1493793027804	-5.5457916	-11.922668	2.2120667
1493793027811	-7.294937	-14.469559	4.296585
1493793027827	-7.992401	-15.179413	2.3379822
1493793027847	-6.989456	-14.353973	-0.08895874
1493793027866	-5.4918976	-13.274506	-1.3207245
1493793027886	-3.3374023	-11.919586	-0.3166504
1493793027906	1.7729492	-11.7716675	1.0779114
1493793027925	1.9751434	-11.615448	0.36927795
1493793027945	1.3065186	-8.782974	0.43577576
1493793027965	0.22624207	-6.951538	1.9822388
1493793027985	-0.4072113	-5.868683	3.6107788
1493793028004	-1.7057037	-3.548355	4.515518
1493793028024	-2.3970337	-2.7682953	4.695862
1493793028044	-3.3536682	-2.4561005	4.085022
1493793028083	-5.5065613	-2.9088898	3.0208893
1493793028104	-3.4001617	-3.238922	1.4209595
1493793028123	-3.4445343	-3.415512	-0.14564514
1493793028144	-3.17305	-5.357422	-2.471344
1493793028168	-4.7044983	-9.564682	-7.663742
1493793028185	-7.4019623	-14.291641	-11.796341
1493793028206	-8.3811035	-15.700134	-13.539291
1493793028236	-6.3850403	-12.240753	-10.427032
1493793028245	-4.081848	-9.510513	-5.58786
1493793028260	-3.8707886	-6.9224243	-4.817459
1493793028281	-5.4400787	-4.9069366	-5.343582
1493793028299	-8.583267	-8.936371	-4.0969543
1493793028320	-8.587418	-13.352402	-1.5806274
1493793028339	-6.0581055	-13.488907	0.39697266
1493793028359	-3.3286743	-11.388382	1.372055
1493793028379	-0.08409119	-7.374954	6.3354797
1493793028398	-0.54338074	-6.743469	6.3083954
1493793028418	0.36262512	-8.631912	6.11911
1493793028437	0.41386414	-11.194	4.3774414
1493793028457	0.08692932	-12.836334	2.1179657
1493793028477	0.77645874	-12.991089	-0.4780426
1493793028496	0.08421326	-11.857361	-1.6402893
1493793028518	-2.447174	-9.694351	-0.12939453
1493793028538	-3.6511993	-7.930252	1.2724609
1493793028556	-3.3805542	-8.093201	0.2157135
1493793028576	-1.894165	-9.187653	-1.1897888
1493793028601	-0.47799683	-9.90744	-0.8930054
1493793028617	0.37428284	-9.667648	0.9091797
1493793028636	-0.10084534	-9.0841675	0.8483124
1493793028656	-0.6640167	-8.710144	-0.8002014
1493793028674	-0.52542114	-8.705704	-1.2138672
1493793028693	-0.66581726	-9.117706	-0.06828308
1493793028713	-0.64068604	-10.154144	-0.74931335
1493793028733	-0.0418396	-10.271271	-0.9653473
1493793028752	-0.21681213	-10.601181	-1.1364746
1493793028772	-1.8534698	-11.297974	-1.0488586
1493793028792	-1.6000061	-11.35434	-0.13418579
1493793028812	0.052505493	-12.156525	0.48660278
1493793028831	1.0445099	-12.5215	1.2352753
1493793028851	-0.26028442	-11.700699	-0.16438293
1493793028871	-0.34350586	-11.583603	-1.8655853
1493793028890	0.9717865	-12.315613	-1.8332367
1493793028910	2.9599	-13.327789	-3.1488037
1493793028930	2.0907135	-12.936203	-2.358612
1493793028970	-0.99913025	-11.498367	-0.47561646
1493793028989	-5.1251526	-10.31485	-0.8916626
1493793029011	-6.5528107	-11.594711	2.9213257
1493793029030	-8.605118	-14.19487	3.3430328
1493793029050	-9.427704	-15.362686	2.026123
1493793029070	-7.4534607	-13.921967	-0.17590332
1493793029090	-5.222641	-12.791306	-1.5522614
1493793029111	-3.226883	-11.621094	-0.7739105
1493793029130	0.3919983	-11.4944	0.23118591
1493793029148	1.9671326	-11.194061	0.07862854
1493793029166	0.94718933	-9.23761	0.50634766
1493793029186	-0.07722473	-6.5001984	1.7354279
1493793029206	-0.23536682	-5.1545105	2.54776
1493793029226	-0.9309387	-4.036743	3.5284576
1493793029245	-1.6360931	-2.9993896	3.4548798
1493793029267	-2.6536865	-2.7900543	3.2443085
1493793029285	-2.7674866	-2.673935	2.2894897
1493793029304	-2.8711548	-2.8112488	1.1948395
1493793029324	-2.9692993	-3.483429	-0.30970764
1493793029343	-3.1766968	-5.567093	-2.4668121
1493793029363	-4.6312103	-9.975739	-7.362686
1493793029383	-7.2709656	-15.20285	-13.256668
1493793029404	-8.033569	-15.8025055	-14.360992
1493793029423	-6.377411	-12.355377	-10.233597
1493793029443	-4.3975525	-9.043213	-5.7763977
1493793029462	-4.826111	-6.138611	-4.346695
1493793029481	-7.8220673	-5.283081	-4.8466187
1493793029501	-9.833954	-10.37764	-3.9151611
1493793029521	-8.931076	-13.723007	-1.4386292
1493793029540	-5.704178	-12.283707	-0.3097229
1493793029560	-1.8376617	-8.604935	4.860779
1493793029580	-1.7206573	-6.9054413	5.7171173
1493793029599	-1.2033844	-7.757202	5.554352
1493793029619	2.1611633	-9.79361	6.2194214
1493793029639	2.3094177	-12.465286	4.688141
1493793029658	0.6446686	-13.571411	1.3572693
1493793029679	1.1398468	-13.006958	-0.20315552
1493793029701	0.25933838	-12.104782	-1.3052673
1493793029719	-4.256851	-9.673965	-1.4072723
1493793029738	-3.5899963	-7.3139343	-0.004211426
1493793029757	-3.5437317	-7.8671875	0.6820679
1493793029778	-2.2126923	-9.127762	-0.68743896
1493793029796	-0.9151306	-10.044769	-0.33529663
1493793029816	0.092559814	-9.839081	1.0814514
1493793029855	-0.1905365	-9.248413	0.2704773
1493793029876	0.43746948	-8.362518	1.8019409
1493793029895	0.27313232	-8.587082	-1.0707855
1493793029915	0.11602783	-9.209991	-1.3768768
1493793029935	-0.51156616	-10.274216	-1.1292114
1493793029957	-1.1979675	-10.618301	-0.87661743
1493793029976	-1.8708191	-10.161926	0.35849
1493793029995	-3.3094482	-10.402969	-0.15200806
1493793030015	-2.9789581	-11.010529	0.0289917
1493793030036	0.05265808	-11.096008	0.64816284
1493793030054	3.3237152	-11.426224	0.8873291
1493793030073	3.0845642	-12.125305	1.6163025
1493793030092	-0.6609802	-12.425186	-1.4463043
1493793030113	-1.2162323	-12.604935	-2.7492676
1493793030131	0.49440002	-12.932251	-2.8992615
1493793030151	2.3986511	-13.028137	-3.9802704
1493793030170	3.4529877	-12.25882	-1.9765625
1493793030191	-0.5512085	-11.328201	-0.6399689
1493793030210	-5.2713776	-11.218826	0.069992065
1493793030230	-7.1361694	-12.784042	3.6463318
1493793030249	-8.3055725	-14.215698	4.56839
1493793030269	-8.164841	-14.218094	2.0820007
1493793030289	-7.0171204	-13.924561	-0.16282654
1493793030309	-5.8307953	-13.031708	-1.2664032
1493793030329	-4.615402	-11.8116455	-0.20007324
1493793030348	0.5233917	-11.320129	0.9142456
1493793030368	2.4653625	-11.578995	-0.80807495
1493793030388	0.8492737	-9.487137	0.009460449
1493793030409	-0.09138489	-6.15596	2.0687714
1493793030427	-0.30514526	-5.079712	1.8557892
1493793030447	-1.1581726	-3.5677948	3.2793884
1493793030468	-1.929184	-2.2232056	4.055588
1493793030486	-2.388214	-2.2525787	3.351303
1493793030507	-2.8743744	-2.3795013	2.3989716
1493793030526	-3.093979	-2.6097717	1.1288452
1493793030549	-3.152359	-3.6207886	-0.858963
1493793030569	-4.0290833	-6.567276	-4.444916
1493793030587	-6.653412	-13.000046	-11.118362
1493793030607	-8.3594055	-17.077377	-14.369431
1493793030626	-7.9130096	-14.083679	-12.464294
1493793030646	-5.232315	-10.477493	-7.5374756
1493793030663	-4.420639	-7.659958	-4.0747833
1493793030683	-6.199463	-4.5262146	-4.584488
1493793030722	-8.574524	-4.134018	-3.3897095
1493793030742	-9.819962	-11.691437	-2.9154205
1493793030762	-8.549927	-15.529892	-1.2478943
1493793030781	-4.6171875	-13.569565	0.26701355
1493793030801	0.0065307617	-8.519287	7.236725
1493793030821	-1.8861694	-7.0583954	5.9420166
1493793030841	0.14012146	-7.964737	6.347641
1493793030859	2.5543823	-10.532928	6.267517
1493793030879	1.3515472	-12.620728	3.1917572
1493793030899	0.7150116	-12.975739	-0.41203308
1493793030919	0.8630066	-12.137573	-2.4919586
1493793030938	-1.9594727	-10.992813	-1.0563812
1493793030958	-3.563614	-7.754074	-0.82810974
1493793030978	-3.8800201	-7.087158	-0.33511353
1493793030998	-2.7020416	-8.292007	0.3462677
1493793031018	-0.76374817	-9.940414	0.432312
1493793031038	-0.30038452	-10.479416	-0.35424805
1493793031057	-1.1756592	-9.9104	-0.19645691
1493793031076	-1.228302	-8.971756	0.21951294
1493793031097	-0.81915283	-8.73027	-0.03678894
1493793031118	-0.70280457	-9.169891	-0.10444641
1493793031138	-0.7406616	-9.520935	0.32873535
1493793031158	-0.470047	-9.55101	-0.46240234
1493793031178	0.06719971	-9.859299	-1.0222931
1493793031198	-0.59576416	-11.052582	-1.0218506
1493793031216	-1.5999451	-11.933197	-0.93341064
1493793031236	-1.2926483	-11.83226	-0.8271179
1493793031253	0.7837982	-11.806549	0.5015869
1493793031274	2.373352	-11.858353	2.0990448
1493793031293	0.5131073	-12.142273	0.5622406
1493793031313	-1.2386627	-12.082352	-0.9953766
1493793031333	-0.4775238	-11.874252	-0.6149597
1493793031352	1.0903473	-12.559631	-2.1607513
1493793031372	2.6475677	-12.555466	-2.614029
1493793031391	-0.010955811	-11.939865	-1.280304
1493793031411	-3.7248535	-10.345215	-1.650177
1493793031431	-4.4994965	-10.288712	1.9828186
1493793031450	-6.8955536	-12.705109	3.9129639
1493793031470	-9.8845215	-15.529861	2.577591
1493793031493	-9.804626	-15.483643	0.76885986
1493793031510	-7.720398	-13.374649	-0.52604675
1493793031530	-5.805664	-11.060547	-1.9778137
1493793031549	-3.525238	-10.957367	-0.5449066
1493793031569	5.6202545	-11.491653	-0.08340454
1493793031608	2.4305573	-11.723877	-0.55656433
1493793031628	1.7608185	-8.398743	2.1403656
1493793031647	0.89271545	-5.9060974	2.945465
1493793031667	-0.58509827	-4.8197327	3.686737
1493793031687	-1.4706879	-3.4581604	4.0263977
1493793031707	-1.9872284	-2.6299438	3.576126
1493793031727	-2.9879608	-2.485672	2.9335938
1493793031748	-3.2627106	-2.4058075	1.9483948
1493793031767	-3.6881866	-2.4586792	0.5119629
1493793031789	-3.8002014	-4.046295	-1.2192993
1493793031808	-4.629196	-7.7684784	-4.768692
1493793031827	-7.4943085	-13.514999	-11.312317
1493793031848	-9.588058	-16.49971	-14.50499
1493793031864	-7.9510345	-13.525772	-11.328506
1493793031884	-5.043991	-10.002045	-6.646179
1493793031904	-5.0162354	-7.673416	-4.6788025
1493793031923	-7.802902	-7.908386	-5.657959
1493793031943	-8.107193	-11.421585	-4.7770844
1493793031962	-7.062546	-11.520721	-1.5072784
1493793031983	-4.9174347	-8.186356	2.4136353
1493793032002	-2.0789337	-6.8305817	5.3211365
1493793032022	-2.0797882	-8.207428	5.5718994
1493793032042	-0.6295929	-9.739273	5.8767548
1493793032061	1.3055878	-11.393295	5.471573
1493793032081	1.3708954	-12.561386	3.1451874
1493793032101	0.23956299	-12.405365	0.0034332275
1493793032121	0.38708496	-11.904938	-0.9669037
1493793032141	-0.39178467	-11.535797	-0.892746
1493793032161	-2.9580688	-9.021332	-0.48002625
1493793032181	-2.9240723	-8.019638	0.30337524
1493793032199	-1.9804993	-8.058472	1.0872803
1493793032219	-2.5904846	-9.127594	-1.8710785
1493793032239	-1.6637726	-9.7439575	-0.9005432
1493793032258	-0.9582825	-9.602051	0.6803436
1493793032279	-1.0341797	-9.405273	0.010726929
1493793032298	-0.79904175	-9.04454	-0.63908386
1493793032317	-0.72584534	-9.093811	-0.080718994
1493793032337	-0.9922333	-9.279648	0.55804443
1493793032359	-1.2373657	-9.163071	0.3932495
1493793032378	-1.2664185	-9.485077	-0.2614746
1493793032398	-1.2378998	-10.026398	-0.5022125
1493793032418	-2.1768646	-10.997345	-0.15603638
1493793032438	-2.0289307	-11.49324	-0.7027893
1493793032457	-0.21540833	-11.469757	-0.24113464
1493793032495	0.652771	-11.557114	-0.29084778
1493793032514	0.79737854	-12.000351	-0.43634033
1493793032533	0.48397827	-12.217545	0.08666992
1493793032554	-0.23086548	-12.416626	-1.711319
1493793032573	0.8231659	-13.10585	-2.1284943
1493793032593	3.412796	-13.679794	-2.63974
1493793032612	3.3608093	-13.158279	-1.3326721
1493793032632	-0.6713257	-12.22168	-1.5852509
1493793032652	-3.5937042	-11.690735	0.27679443
1493793032671	-4.081772	-12.352402	3.2141418
1493793032694	-5.481842	-12.845596	4.2550964
1493793032712	-5.804245	-13.213882	2.749466
1493793032732	-4.935852	-13.275909	0.8527832
1493793032754	-3.7926178	-12.211777	0.42918396
1493793032770	-3.3168488	-11.13356	0.8838501
1493793032789	-2.6780396	-10.242966	1.3655243
1493793032809	-1.7164459	-9.11171	1.251297
1493793032829	-2.0152283	-8.176086	1.5513458
1493793032849	-2.373413	-7.9117584	1.8266144
1493793032868	-1.5964355	-7.6289063	2.3239899
1493793032888	-1.2833557	-7.022278	3.048355
1493793032908	-1.667572	-5.7802734	3.6830597
1493793032927	-2.6687622	-4.309616	3.464798
1493793032947	-3.2041626	-3.6619263	2.987091
1493793032967	-3.7075958	-3.6183624	2.3316345
1493793032986	-4.362503	-4.0431213	1.7122192
1493793033006	-5.337311	-5.549988	0.1313324
1493793033026	-7.223175	-9.069061	-3.9484406
1493793033045	-8.941345	-13.101456	-9.297363
1493793033065	-9.0421295	-12.355392	-10.239304
1493793033085	-7.9817047	-9.242081	-8.321732
1493793033104	-5.687851	-8.218475	-5.136383
1493793033124	-4.422455	-8.184143	-3.419632
1493793033144	-5.499344	-6.7930603	-2.8796844
1493793033163	-5.877365	-4.1389465	-1.4969177
1493793033183	-7.734848	-8.330231	-2.0576324
1493793033203	-10.660934	-16.739792	-3.2082062
1493793033223	-8.7083435	-15.682373	-3.902771
1493793033242	-2.044403	-7.3092194	4.9558563
1493793033262	-1.1022491	-5.2452545	7.1351166
1493793033282	1.109909	-8.320816	6.8823853
1493793033302	2.6598358	-11.036163	4.746582
1493793033321	1.6068726	-12.248169	1.422348
1493793033361	0.59609985	-12.009125	-0.08106995
1493793033380	-0.16329956	-11.414902	-0.66944885
1493793033400	-2.5577087	-10.079285	-0.51690674
1493793033420	-3.3149414	-9.340912	1.5768433
1493793033439	-1.8884583	-8.977814	-1.1389465
1493793033460	-3.7408905	-8.800217	-0.9060211
1493793033479	-4.093231	-7.7713013	-0.1133728
1493793033498	-2.426178	-8.105209	0.77449036
1493793033518	0.49894714	-8.666702	1.9440918
1493793033538	1.5383911	-8.694321	2.3454742
1493793033557	1.0585175	-8.963806	0.6743622
1493793033577	-0.00944519	-10.255264	0.49679565
1493793033597	-1.0220795	-11.104706	-0.82484436
1493793033617	-1.6313324	-11.1766205	-1.9477997
1493793033636	-1.6931	-10.88559	-1.3973083
1493793033656	-1.3433838	-10.952194	-0.3927307
1493793033676	-0.6068573	-11.741852	0.25576782
1493793033695	0.80285645	-12.304932	0.14541626
1493793033715	0.47157288	-12.01889	-0.45092773
1493793033735	-1.5375366	-11.492844	-0.8829346
1493793033754	-2.703064	-11.510574	-1.7616272
1493793033774	-1.5310516	-12.666183	-3.0634003
1493793033794	1.1564331	-13.609879	-3.3436584
1493793033813	3.106598	-13.16481	-1.8191223
1493793033833	2.1552887	-11.871323	-0.53982544
1493793033853	-1.879303	-10.679123	-0.96380615
1493793033872	-5.938858	-11.828827	-0.40724182
1493793033893	-7.7211304	-13.714371	3.2942963
1493793033912	-6.88974	-14.522781	3.584259
1493793033932	-5.190506	-13.468796	0.6742096
1493793033951	-4.6147614	-11.501282	-0.96661377
1493793033971	-3.707962	-9.871445	0.4065857
1493793033991	-3.7406006	-9.800201	1.243393
1493793034010	-2.2176208	-8.901245	1.6053619
1493793034030	-1.8192139	-7.829727	0.39424133
1493793034050	-2.477768	-6.523041	-0.71458435
1493793034069	-0.64100647	-6.006897	1.6300049
1493793034089	-0.99398804	-5.3901825	2.830017
1493793034109	-2.3865051	-4.3921814	2.1475677
1493793034128	-3.0781403	-3.85437	1.7889557
1493793034148	-3.6095123	-3.5809631	1.520752
1493793034168	-3.8032684	-3.7755585	0.6233673
1493793034188	-3.7315369	-4.2102203	-0.5595703
1493793034207	-3.1929932	-5.1162567	-1.6902008
1493793034247	-4.3377533	-8.545731	-4.8541718
1493793034266	-6.0167694	-11.479828	-10.367935
1493793034286	-7.8346252	-13.025421	-14.1819
1493793034306	-6.619858	-11.837601	-12.240829
1493793034326	-4.1547394	-10.095459	-7.6190643
1493793034345	-2.3148346	-7.804718	-6.527603
1493793034366	-4.891571	-6.9473724	-7.214218
1493793034384	-9.672684	-14.249268	-4.3289337
1493793034404	-8.732147	-14.674789	-0.9620209
1493793034424	-4.4553833	-8.97197	-0.0020599365
1493793034444	1.1988373	-5.7598267	5.221588
1493793034463	0.16737366	-7.5204773	7.3222656
1493793034483	-0.5902252	-10.0017395	8.355637
1493793034503	-0.8223877	-11.923843	6.0539856
1493793034523	-1.333664	-12.892838	2.2707825
1493793034542	-0.21659851	-12.553207	-1.2310181
1493793034562	-0.08267212	-12.167969	-1.6316986
1493793034581	-0.5601196	-10.860062	0.23765564
1493793034601	-0.9858551	-9.181351	0.90467834
1493793034621	-0.7645874	-8.129456	1.0887756
1493793034641	-1.5492096	-8.455719	0.5618286
1493793034660	-1.7017822	-9.531174	-0.3012848
1493793034680	-1.2393951	-9.616241	-1.3638306
1493793034700	-0.57907104	-9.543701	-0.60110474
1493793034719	-0.6620178	-9.134308	1.0792847
1493793034739	-1.2482758	-8.650711	1.2549896
1493793034759	-1.176117	-8.885635	-0.106552124
1493793034778	-0.6309967	-9.904114	-0.9415436
1493793034798	0.13899231	-10.465027	-1.4276276
1493793034818	-0.055480957	-10.830139	-1.5087433
1493793034837	-0.23149109	-11.048309	-1.118988
1493793034857	0.02456665	-11.1870575	-1.2801056
1493793034877	0.4131012	-11.085617	-1.4001617
1493793034896	0.6993103	-10.597626	-0.5758667
1493793034916	1.1088257	-10.385696	0.057769775
1493793034936	-0.5082245	-10.74675	-1.5354614
1493793034956	-0.270813	-12.454529	-2.6851196
1493793034975	0.98747253	-13.954849	-1.565918
1493793034995	1.8006592	-13.642487	-0.59135437
1493793035016	-1.1259613	-12.86821	-0.025863647
1493793035034	-6.231537	-10.54834	-1.2507629
1493793035054	-7.75502	-10.100327	1.1575623
1493793035076	-7.6324615	-12.3059845	4.1157074
1493793035094	-7.638672	-14.331284	2.925354
1493793035133	-5.8256226	-13.590195	0.51927185
1493793035152	-3.202942	-12.359558	-1.0121613
1493793035172	-1.8618164	-11.46521	1.1085052
1493793035193	-2.5974884	-11.053085	1.9020386
1493793035211	-3.0486755	-10.080612	2.09227
1493793035231	-3.9817963	-8.508316	0.8604126
1493793035251	-2.7147675	-7.589859	0.90940857
1493793035271	-0.8742981	-7.722931	0.9631958
1493793035290	0.07208252	-7.156555	1.3903198
1493793035310	-0.12185669	-6.408478	1.3311768
1493793035330	-0.09083557	-5.8318787	1.3040466
1493793035349	-0.58348083	-5.5773315	1.135376
1493793035369	-0.33950806	-5.9319153	0.5095215
1493793035389	-0.25946045	-7.2262115	-0.3833313
1493793035408	-1.609375	-9.608582	-2.0271454
1493793035428	-2.6729279	-11.893799	-4.6936035
1493793035448	-2.3219604	-12.520905	-5.465866
1493793035468	-3.14151	-11.107742	-2.9608917
1493793035487	-5.7647705	-9.274536	1.4811096
1493793035507	-6.287903	-7.768997	6.085907
1493793035527	-6.676071	-6.878235	6.5456696
1493793035546	-7.0829773	-6.447098	3.7199402
1493793035566	-3.930832	-8.360443	1.9684601
1493793035586	-0.3821106	-11.872589	2.966156
1493793035606	-1.0209656	-13.75238	2.152298
1493793035625	-2.4647827	-12.607895	1.5997772
1493793035645	-1.7306366	-11.255524	1.4763184
1493793035664	-0.20977783	-11.242889	0.3144226
1493793035684	0.028793335	-11.293823	-1.1493225
1493793035704	-0.7410126	-11.000214	-0.94111633
1493793035724	-1.8849945	-10.543274	0.46092224
1493793035743	-2.8035736	-10.018799	1.0491943
1493793035763	-3.4462433	-9.705566	0.8702698
1493793035783	-3.3411865	-9.374893	0.42562866
1493793035803	-2.3502502	-8.846603	0.08772278
1493793035822	-2.1587982	-8.609863	0.39971924
1493793035842	-2.220871	-8.926086	0.41340637
1493793035862	-1.9306335	-9.033417	0.43417358
1493793035881	-1.3964386	-9.382431	1.1542969
1493793035901	-1.2686005	-9.582962	2.043274
1493793035921	-1.3816376	-9.749115	2.3343048
1493793035940	-1.3013916	-10.208771	1.9490814
1493793035960	-0.98908997	-10.325806	1.1541748
1493793035980	-0.10116577	-9.948059	1.2506104
1493793036019	-0.48458862	-10.186752	1.6692657
1493793036039	-1.229248	-10.216507	2.1393127
1493793036058	-1.2352905	-10.275513	1.7115021
1493793036078	-0.8517151	-10.467499	1.2496796
1493793036098	-0.6027832	-10.45195	1.2002411
1493793036117	-0.9689789	-10.282837	1.3653564
1493793036137	-1.2586823	-10.11911	0.9828186
1493793036157	-0.93852234	-10.041412	0.29849243
1493793036178	-0.66915894	-10.037857	0.07398987
1493793036196	-0.65826416	-10.06073	-0.11177063
1493793036216	-0.40605164	-10.250504	-0.51023865
1493793036236	-0.22317505	-10.799744	-0.49694824
1493793036255	-0.84176636	-12.303116	-0.3340149
1493793036275	-1.6884155	-12.679077	-0.647583
1493793036295	-2.7490387	-10.970398	-1.2237701
1493793036315	-4.06131	-9.715652	-1.7867737
1493793036334	-3.8426971	-9.301666	-2.0703888
1493793036354	-3.3621979	-8.938995	-1.6225433
1493793036374	-4.197281	-10.087021	-0.648407
1493793036393	-4.496475	-11.99617	0.6756592
1493793036413	-2.88591	-12.149597	-0.44177246
1493793036433	-0.6961212	-10.625275	-1.6724396
1493793036452	0.47528076	-9.8594055	0.26417542
1493793036472	0.44595337	-10.563004	1.7684326
1493793036492	-0.11166382	-10.74881	1.2992401
1493793036511	-1.3317261	-10.687363	0.19190979
1493793036531	-1.789505	-10.2526245	0.45718384
1493793036551	-2.8547363	-9.532181	0.61001587
1493793036571	-3.9768677	-8.447708	0.26927185
1493793036590	-4.6080475	-7.6195374	-0.034606934
1493793036610	-4.1530457	-7.423126	-0.1895752
1493793036630	-3.3696442	-7.4287415	-0.32287598
1493793036649	-3.087738	-7.4576263	-0.5218811
1493793036669	-2.9972534	-7.336197	-0.6442871
1493793036689	-3.035675	-6.7264404	-1.0017242
1493793036708	-3.1551514	-6.082428	-1.5267029
1493793036728	-3.5536194	-6.4076996	-3.1306763
1493793036748	-4.082901	-7.8401947	-5.6729736
1493793036767	-4.6675415	-9.320267	-6.7808685
1493793036787	-5.1501923	-9.690552	-6.439163
1493793036807	-5.1204987	-8.818695	-5.6943665
1493793036827	-4.6816864	-7.408539	-4.6829376
1493793036846	-4.457123	-6.3574066	-4.125366
1493793036866	-4.02269	-6.109955	-4.0655365
1493793036906	-4.5930634	-6.353821	-5.4387817
1493793036925	-8.2252655	-10.362473	-5.0943146
1493793036945	-8.814697	-18.471588	-4.0451202
1493793036964	-3.3125916	-13.058548	-1.30719
1493793036984	-2.1520386	-6.9914093	0.88319397
1493793037004	-3.1932373	-4.6488953	3.403656
1493793037023	-4.0611115	-6.840851	3.2194824
1493793037043	-2.7373047	-9.659119	5.3229065
1493793037063	-0.6717377	-11.6744995	5.006363
1493793037083	0.028915405	-12.294632	3.138977
1493793037102	-0.04837036	-11.836655	0.7203369
1493793037122	-0.59703064	-11.868942	-1.1399841
1493793037142	-0.64489746	-11.073944	-1.9485474
1493793037161	-2.3247986	-8.983734	0.30630493
1493793037181	-1.3604889	-9.179932	1.8700562
1493793037202	0.89608765	-9.766861	1.2145233
1493793037222	1.0202484	-9.799545	-0.88648987
1493793037240	-0.6887512	-9.607361	-1.1706543
1493793037260	-1.1440125	-8.753723	0.66342163
1493793037279	-1.1447449	-8.347076	1.5519409
1493793037299	-0.6244812	-8.913544	0.042160034
1493793037319	-0.6597748	-9.161041	0.15596008
1493793037341	-1.1203003	-8.841553	0.9747925
1493793037359	-1.3107452	-8.779572	0.50154114
1493793037378	-1.5023499	-9.649826	-0.44230652
1493793037398	-1.92659	-10.791	-0.8356018
1493793037418	-1.8829193	-11.594345	-0.8998871
1493793037440	-0.7645416	-12.031982	-0.89276123
1493793037458	0.8607178	-12.167847	-0.21025085
1493793037478	1.8348541	-12.350891	0.4737091
1493793037500	0.6830292	-12.404251	-0.58503723
1493793037518	0.28102112	-12.341278	-1.7778168
1493793037538	0.88301086	-12.909668	-1.3291626
1493793037555	2.037613	-13.225021	-1.9588318
1493793037576	1.9194031	-13.161163	-2.426712
1493793037596	-1.482727	-11.570114	-1.4412689
1493793037614	-4.4498444	-10.050491	-0.84913635
1493793037634	-5.56485	-11.073624	2.1738281
1493793037654	-8.139801	-14.095383	3.6629944
1493793037673	-9.885437	-15.957626	2.3385468
1493793037693	-7.7198944	-14.095764	0.8618927
1493793037713	-5.213669	-12.315292	-1.0824585
1493793037732	-2.9191284	-11.721741	-0.7590332
1493793037752	-0.6729126	-11.975769	1.3340302
1493793037791	3.8551636	-12.421982	1.1424408
1493793037811	0.62882996	-9.82753	-1.0364075
1493793037831	0.5954132	-6.717499	1.1661377
1493793037850	-0.6221466	-5.7791443	2.5280304
1493793037870	-1.3473206	-3.521164	3.9367218
1493793037891	-2.0727386	-2.4879456	3.8141327
1493793037910	-2.773407	-2.0016327	3.3971252
1493793037929	-2.9088745	-2.3693695	2.6727753
1493793037949	-2.7261505	-2.6875916	1.7053375
1493793037969	-2.9301147	-3.4904022	0.27201843
1493793037989	-3.3848114	-5.2838593	-1.2311249
1493793038009	-4.275757	-9.615356	-5.460434
1493793038029	-6.380432	-15.798523	-12.669647
1493793038048	-7.839035	-16.98294	-14.638275
1493793038068	-6.7424164	-11.767517	-11.007828
1493793038088	-5.162674	-9.383682	-6.53743
1493793038107	-4.3133545	-8.860168	-4.194916
1493793038126	-5.7574615	-7.43898	-5.1889954
1493793038148	-7.8861694	-9.079193	-5.306839
1493793038166	-8.019882	-12.986603	-2.700409
1493793038186	-5.5575714	-12.176483	0.66789246
1493793038206	-2.6029053	-8.654449	3.8958588
1493793038225	-1.5214996	-7.057968	5.5295563
1493793038246	-1.2395477	-7.4714203	5.95726
1493793038266	0.3531494	-9.397583	6.613785
1493793038286	1.7971191	-11.629303	4.8921814
1493793038305	0.9138794	-12.564865	0.9490814
1493793038326	-0.15802002	-12.293533	-1.3773193
1493793038346	-0.45257568	-11.525848	-0.3421173
1493793038368	-1.7634125	-9.790268	-0.44033813
1493793038388	-3.3313446	-8.054306	0.13357544
1493793038408	-3.8555145	-8.234589	0.57899475
1493793038425	-2.1577148	-9.36293	0.007675171
1493793038446	-0.29092407	-9.988251	-0.29249573
1493793038461	0.63586426	-9.865662	0.73851013
1493793038481	-0.23268127	-9.3688965	-0.23913574
1493793038501	-0.75631714	-8.849777	-0.42404175
1493793038520	-0.7902374	-9.134888	-1.7902222
1493793038541	-0.5688019	-9.523865	-0.3785553
1493793038560	-0.55496216	-9.670105	0.6088257
1493793038580	-0.70077515	-9.21022	-0.7496643
1493793038599	-0.56282043	-9.299194	-0.32984924
1493793038619	-1.0962219	-10.724594	-0.17323303
1493793038638	-1.7848511	-11.835358	0.027999878
1493793038678	-0.73291016	-11.656525	-0.38264465
1493793038699	0.974411	-12.0633545	1.0812683
1493793038718	1.0429077	-12.703354	0.5828247
1493793038737	-0.25450134	-12.38295	-0.58503723
1493793038757	-1.1352081	-11.757751	-2.4977875
1493793038777	0.85580444	-12.1796875	-1.7221985
1493793038797	1.7025757	-12.754196	-3.474533
1493793038816	2.09935	-12.457138	-3.0040894
1493793038836	-0.8925171	-11.304916	-1.0065765
1493793038855	-3.788269	-10.5034485	-0.4557953
1493793038875	-5.49971	-12.259354	3.1470184
1493793038894	-8.157501	-14.84996	4.0870514
1493793038914	-9.556015	-15.624283	1.7789612
1493793038934	-7.8134003	-14.461807	-0.28642273
1493793038954	-5.346649	-12.9387665	-1.3398743
1493793038973	-2.7225647	-11.5854645	-0.8504486
1493793038994	0.8450012	-11.511505	0.22166443
1493793039013	3.4025726	-10.980545	0.50875854
1493793039033	0.42877197	-8.741089	0.079589844
1493793039053	-0.53504944	-5.722061	1.5744629
1493793039072	-0.9542694	-4.5519104	2.7045135
1493793039091	-0.9692383	-3.7552795	3.738922
1493793039111	-1.7626343	-2.7405243	4.006851
1493793039131	-2.6073303	-2.4842682	3.1144867
1493793039151	-2.8359528	-2.6301422	2.033432
1493793039170	-2.6544495	-2.8383331	0.7984772
1493793039190	-2.574234	-3.7982483	-0.79486084
1493793039210	-3.0692291	-6.808029	-3.937622
1493793039229	-4.444992	-12.281342	-9.230591
1493793039249	-6.9952087	-16.173431	-13.600845
1493793039269	-7.6813965	-14.272903	-13.004562
1493793039288	-5.8893585	-11.288757	-8.282883
1493793039309	-4.921524	-8.740829	-4.8632507
1493793039328	-6.2852783	-6.1863403	-4.560959
1493793039347	-8.772156	-10.235321	-7.2961273
1493793039367	-10.178238	-16.205658	-6.3749847
1493793039389	-4.925827	-10.3598175	2.03302
1493793039406	-1.2403412	-4.9896545	6.9543304
1493793039426	-2.5688782	-5.1431885	6.685364
1493793039447	-2.59523	-7.5282135	6.513397
1493793039466	0.73454285	-10.114166	6.1578674
1493793039485	1.0901947	-13.382538	4.9407654
1493793039506	2.1091766	-14.492325	0.05369568
1493793039525	-0.19184875	-12.752304	-2.377243
1493793039544	0.6281433	-11.17923	-0.35629272
1493793039586	-1.2186127	-10.237061	0.8239746
1493793039607	-3.910614	-8.163055	0.5260773
1493793039625	-2.5733032	-8.000809	1.7830353
1493793039645	-2.325348	-10.10025	-0.90415955
1493793039662	-0.8941803	-10.46489	-0.3536377
1493793039682	-1.2099609	-9.817596	-0.28892517
1493793039703	-1.085083	-8.736511	0.24589539
1493793039722	-1.3053436	-8.362656	0.8449402
1493793039742	-0.5774536	-8.162994	0.20573425
1493793039761	-0.56825256	-8.582947	-0.093688965
1493793039781	-0.8792877	-8.709473	0.66922
1493793039800	-0.95228577	-9.030838	0.26235962
1493793039820	-0.64331055	-9.368271	-0.25920105
1493793039840	-1.116333	-10.286392	-0.98817444
1493793039860	-1.6655579	-11.40596	-1.5103607
1493793039879	-0.65145874	-11.928467	-1.2658081
1493793039904	1.2388	-12.108017	-0.47250366
1493793039919	2.1666107	-12.594421	-0.024963379
1493793039939	1.0668335	-13.030167	-1.4323425
1493793039959	0.6419678	-13.798569	-2.5936737
1493793039978	2.7551422	-14.160278	-1.8781738
1493793039997	2.719513	-13.748291	-1.8510895
1493793040017	-1.6924286	-12.338089	-2.2702484
1493793040037	-4.889267	-10.670425	-0.7333069
1493793040057	-5.853409	-12.012131	2.981018
1493793040076	-8.193497	-15.055298	4.0258484
1493793040096	-9.508759	-16.37091	1.9329681
1493793040116	-7.9884186	-14.966064	-0.42440796
1493793040136	-5.9654846	-13.03154	-0.9986725
1493793040156	-5.037689	-12.099899	-0.53292847
1493793040177	-0.7026367	-11.095963	1.4271393
1493793040199	2.851471	-10.829147	0.41184998
1493793040216	1.2274628	-9.149643	0.33769226
1493793040235	-0.18382263	-6.4298706	1.8388672
1493793040253	-1.0769196	-5.148407	2.4343567
1493793040273	-0.5757599	-4.368286	3.7073822
1493793040293	-1.6108093	-2.82341	3.5883179
1493793040313	-2.1476135	-2.1286926	3.239334
1493793040333	-2.520813	-2.0201263	2.640747
1493793040352	-2.14151	-2.3208466	1.4331512
1493793040372	-2.0113068	-3.0480804	0.2288208
1493793040393	-2.3371124	-4.7676544	-0.98753357
1493793040411	-4.522705	-9.357651	-5.7556
1493793040432	-7.4375	-16.383804	-13.128845
1493793040471	-10.779861	-19.35022	-16.144974
1493793040490	-7.8236084	-12.633728	-10.720947
1493793040510	-4.772827	-9.395081	-4.6765594
1493793040530	-5.5500183	-7.51416	-3.3081512
1493793040549	-8.719482	-7.488571	-5.5509796
1493793040569	-8.996399	-13.398178	-7.4845734
1493793040589	-5.2294464	-11.166046	-1.6271057
1493793040609	-1.289856	-6.3271027	4.3260956
1493793040628	-2.7888184	-5.632843	8.014175
1493793040648	-4.283249	-7.6430206	4.1432037
1493793040667	-2.594818	-10.38797	3.6129913
1493793040687	1.812973	-11.578125	5.61998
1493793040707	3.0502014	-13.241211	2.9612427
1493793040727	1.4375458	-13.012314	0.5004883
1493793040747	-0.009094238	-11.7969055	0.2066803
1493793040766	-0.41184998	-10.682922	-0.07601929
1493793040787	-2.0490417	-9.17894	-0.26960754
1493793040808	-3.7742462	-7.8066864	-0.27305603
1493793040827	-3.6304321	-8.293167	0.2471466
1493793040846	-2.160965	-9.537628	-0.09320068
1493793040864	-0.6232147	-10.015747	-0.64630127
1493793040884	0.56759644	-9.474731	-0.3063202
1493793040903	-0.025894165	-9.022079	0.2321167
1493793040923	-0.66101074	-8.804245	0.16007996
1493793040943	-0.75917053	-8.601196	-0.5634308
1493793040963	-1.0266724	-8.746185	-0.045318604
1493793040983	-1.2817993	-9.497559	0.6957855
1493793041002	-1.0943451	-9.935013	0.16784668
1493793041022	-0.5618744	-9.888046	-0.45869446
1493793041042	-0.7240143	-10.287262	-1.1575928
1493793041062	-1.045105	-11.300934	-1.4964905
1493793041082	0.10708618	-12.016556	-0.92866516
1493793041101	2.2457428	-12.481598	0.40133667
1493793041122	1.4899292	-12.7221985	1.0166321
1493793041142	-0.70625305	-12.4062195	-1.5541229
1493793041159	0.44125366	-12.509033	-1.4020844
1493793041179	1.2669525	-13.340103	-1.7630768
1493793041199	2.6086273	-13.553131	-2.6317444
1493793041219	-0.007080078	-13.027893	-2.3908386
1493793041238	-4.231064	-11.102982	-2.22583
1493793041258	-5.0034027	-9.538559	0.41098022
1493793041278	-5.9374695	-11.57309	3.6453552
1493793041298	-8.069183	-14.728546	3.5668945
1493793041318	-10.011917	-16.293152	0.7920685
1493793041357	-6.833252	-14.343704	-1.162323
1493793041378	-4.664749	-12.125153	-0.79937744
1493793041396	-3.6935272	-11.125015	-0.27989197
1493793041421	2.4597015	-11.449402	2.303894
1493793041439	2.454422	-11.778885	-0.587204
1493793041456	0.60339355	-8.014511	0.32810974
1493793041475	0.07789612	-6.1282654	1.7340546
1493793041495	-0.044006348	-5.1974792	2.9878235
1493793041515	-1.4007721	-3.5828247	3.7124634
1493793041534	-2.1089478	-2.459671	3.4672852
1493793041553	-2.264923	-2.1423187	2.9659424
1493793041573	-3.4322815	-2.3076935	2.5427856
1493793041593	-2.9425812	-2.4793396	0.9672241
1493793041613	-2.5680237	-3.285019	-1.1418457
1493793041633	-3.0471497	-5.4476013	-3.4661865
1493793041652	-4.539856	-10.301437	-8.448135
1493793041673	-7.101898	-15.905487	-13.6154175
1493793041691	-7.846466	-16.609024	-14.113159
1493793041713	-5.3898926	-12.695328	-9.875244
1493793041732	-3.869995	-9.5598755	-5.7390594
1493793041754	-5.8904877	-6.735367	-4.8602905
1493793041770	-8.582382	-8.701569	-6.405136
1493793041790	-9.522797	-14.505402	-6.648941
1493793041809	-6.442871	-12.064743	-0.69558716
1493793041830	-2.5554047	-5.7831726	5.3459167
1493793041849	-2.0299072	-4.6651306	6.0874786
1493793041869	-2.4752502	-6.8930054	4.8883514
1493793041888	-0.09315491	-9.692337	6.4717865
1493793041908	1.5793304	-12.730209	5.667755
1493793041928	2.3375244	-13.751694	0.79844666
1493793041948	0.84858704	-12.967682	-2.2656403
1493793041967	0.24964905	-11.024261	-2.1305084
1493793041988	-1.1695862	-9.618469	0.037719727
1493793042010	-3.0103607	-7.7230835	0.9215698
1493793042027	-3.2467804	-7.586426	1.5781403
1493793042048	-2.1414795	-9.185364	0.23899841
1493793042067	-1.1719055	-10.2451935	-1.901123
1493793042086	-0.98864746	-9.736801	-0.4835968
1493793042106	-2.0443115	-8.835754	0.5937042
1493793042125	-1.9963379	-8.364868	1.4932861
1493793042145	-1.2583008	-8.719009	0.1396637
1493793042164	-1.4538574	-8.955521	0.7003174
1493793042184	-1.451004	-9.784042	0.8257141
1493793042203	-0.311203	-9.589554	-0.2350769
1493793042224	-0.038360596	-9.958099	-1.3798523
1493793042263	0.3416748	-11.566376	-1.5085144
1493793042282	-0.005645752	-12.149017	-1.1208344
1493793042304	-0.17643738	-12.536041	-1.2133789
1493793042326	1.0864716	-12.709091	-0.33914185
1493793042343	0.3999939	-12.734756	-1.3057709
1493793042361	0.7940521	-12.624374	-1.6545258
1493793042381	2.3466492	-13.992691	-1.338211
1493793042401	3.2014313	-14.219742	-2.3658142
1493793042421	-0.3177185	-13.206863	-1.730957
1493793042440	-5.0139465	-11.397919	-1.6386414
1493793042460	-6.028702	-10.914093	1.8262329
1493793042479	-7.641159	-13.690552	3.4227295
1493793042499	-9.977417	-16.562164	2.9012299
1493793042519	-9.608322	-15.668488	1.2617798
1493793042538	-6.4452515	-12.421936	-0.88301086
1493793042558	-4.6341705	-10.79744	-1.1791534
1493793042578	-2.014389	-10.12236	0.24368286
1493793042597	0.25875854	-10.218002	1.0897675
1493793042622	0.65774536	-9.410461	0.01651001
1493793042638	0.81877136	-7.4996185	0.24597168
1493793042656	1.5996399	-6.636734	2.083374
1493793042676	0.3507843	-5.1452026	3.2117157
1493793042696	-1.1053314	-3.1469574	3.3842926
1493793042715	-1.9484558	-2.3776245	2.9929047
1493793042736	-2.406067	-2.2407074	2.7663574
1493793042756	-2.6104279	-2.4078522	2.2352448
1493793042775	-2.7044983	-3.1561127	0.83895874
1493793042794	-2.9991608	-4.480133	-0.79833984
1493793042814	-3.9819489	-7.4325714	-3.6598969
1493793042834	-5.5689697	-13.01796	-9.295395
1493793042853	-8.570831	-16.52037	-13.564987
1493793042873	-8.755814	-13.587265	-12.740997
1493793042896	-6.0953674	-10.642303	-8.329269
1493793042913	-4.049835	-8.964218	-4.657242
1493793042933	-4.8161163	-6.9582214	-4.525711
1493793042952	-5.259735	-5.105774	-5.7972107
1493793042972	-8.347794	-8.507309	-4.5650177
1493793042994	-9.715179	-12.922638	-1.8168488
1493793043014	-6.4949646	-13.702148	0.59835815
1493793043032	-3.0038605	-11.5312805	1.542923
1493793043052	-0.55862427	-7.7374268	5.4443207
1493793043071	-1.3459015	-6.7830505	5.006424
1493793043093	0.3892517	-7.5928802	7.9906006
1493793043112	0.8144226	-10.333405	6.797928
1493793043152	0.24041748	-12.385071	3.0165253
1493793043171	0.62687683	-12.954437	-1.2617035
1493793043196	2.6013641	-11.59758	-1.6864929
1493793043211	-0.7289429	-10.85231	-1.2059784
1493793043231	-0.97042847	-8.379105	-0.6999359
1493793043250	-2.588089	-7.7043304	0.91119385
1493793043267	-1.970932	-8.459518	0.58680725
1493793043287	-2.2093353	-9.615128	-1.0691681
1493793043307	-0.44779968	-9.840515	-0.3086853
1493793043326	0.49221802	-9.777603	1.0692749
1493793043346	-0.14768982	-9.14505	-0.22129822
1493793043366	-0.40748596	-8.623795	-0.7053375
1493793043385	-0.564209	-8.902466	-1.2978516
1493793043405	-0.92549133	-9.339203	-0.46040344
1493793043425	-1.5775146	-9.971146	-0.03565979
1493793043447	-1.298523	-10.283157	0.012252808
1493793043466	-1.0401001	-11.056564	-0.2992401
1493793043485	-0.14445496	-11.705002	-0.31274414
1493793043506	1.3851929	-12.02124	0.1642456
1493793043524	1.230835	-12.617462	0.42460632
1493793043544	-0.11154175	-12.92598	-0.31321716
1493793043563	-0.21420288	-12.641617	-1.6426544
1493793043582	0.4852295	-12.097397	-2.3348083
1493793043602	1.0885925	-12.147583	-2.7793121
1493793043622	2.0804749	-12.78717	-2.9333649
1493793043641	0.9878082	-12.61998	-1.623169
1493793043661	-2.7018433	-11.377457	-0.8580322
1493793043681	-5.690918	-10.712692	1.2325134
1493793043701	-8.038696	-12.759949	4.42128
1493793043720	-9.994354	-14.644302	3.7752533
1493793043740	-9.100525	-14.461502	0.5937958
1493793043759	-6.6342163	-13.670685	-1.4159546
1493793043779	-4.121109	-12.541214	-1.0645447
1493793043802	-1.5206299	-11.999878	0.5923767
1493793043820	2.180359	-12.588455	-0.119384766
1493793043839	0.025604248	-11.076233	-0.83976746
1493793043858	-0.43223572	-6.876709	0.9608612
1493793043878	0.44465637	-5.582596	2.2097778
1493793043897	-0.7161102	-3.6071625	3.0268097
1493793043917	-1.5357819	-2.6150513	3.5794983
1493793043937	-2.1625824	-2.0374756	3.8701782
1493793043957	-2.5221863	-2.382965	2.8660126
1493793043976	-2.6505127	-2.621338	1.9058533
1493793043996	-3.1158752	-2.967987	0.5391083
1493793044036	-3.0304565	-4.056122	-1.6669769
1493793044058	-3.6808777	-7.617584	-5.5819244
1493793044075	-6.158722	-14.276138	-11.068466
1493793044094	-7.837967	-18.328247	-14.352951
1493793044114	-7.455017	-13.122253	-12.322342
1493793044135	-5.311432	-9.846741	-7.675247
1493793044154	-5.0764465	-8.643448	-4.802765
1493793044176	-6.457672	-6.557602	-4.867813
1493793044194	-8.665482	-8.410065	-6.4118805
1493793044213	-8.907776	-13.219223	-3.648529
1493793044233	-6.28804	-12.33429	1.6240234
1493793044254	-3.4790955	-7.645874	4.715454
1493793044273	-1.9650726	-6.3262177	6.822296
1493793044293	-2.1994781	-7.7819824	6.375122
1493793044316	-0.0115356445	-9.919174	6.3792725
1493793044333	2.6475067	-12.15033	5.99942
1493793044353	2.4552002	-13.534088	1.7976837
1493793044378	1.2902832	-12.416626	-1.5354156
1493793044402	0.9710388	-11.148193	-1.3917389
1493793044413	-1.1918793	-9.570847	-0.9395752
1493793044432	-3.488922	-7.262451	-0.2704773
1493793044452	-4.2790985	-7.273834	0.3413391
1493793044472	-3.011261	-9.162277	-0.30522156
1493793044488	-0.6259918	-10.266983	0.2457428
1493793044508	0.5759735	-9.794083	0.995224
1493793044528	-0.4068756	-9.342682	0.07279968
1493793044548	-0.88145447	-8.979797	-0.85176086
1493793044567	-0.5216522	-8.872726	-0.5323639
1493793044587	-0.6008301	-9.174149	0.29586792
1493793044607	-0.5710602	-9.556046	0.3093109
1493793044626	-0.6593933	-10.161179	-0.41378784
1493793044646	-1.3538666	-10.978714	-0.5406952
1493793044666	-1.8873749	-11.575378	-0.5072174
1493793044686	-1.2643433	-12.0503845	-0.8292694
1493793044707	0.13079834	-12.210754	-0.6929321
1493793044726	1.8533783	-12.201462	0.7618408
1493793044746	0.8379669	-12.028015	-0.14831543
1493793044765	1.0755157	-13.3454895	-1.0599518
1493793044785	2.251419	-13.544983	-1.3440857
1493793044804	2.444046	-13.537918	-2.2166443
1493793044824	-1.6001434	-12.387497	-1.6759644
1493793044843	-4.99234	-9.925201	-2.706421
1493793044863	-4.6857758	-10.419479	1.5917969
1493793044882	-5.951477	-13.220032	3.662674
1493793044902	-8.721954	-15.535309	3.5213318
1493793044941	-9.703476	-15.582077	0.45376587
1493793044961	-6.843231	-13.478836	-0.7550812
1493793044981	-4.9452667	-12.054428	-1.4092102
1493793045001	-4.4226685	-11.110596	0.43222046
1493793045022	-0.10612488	-10.232971	0.18887329
1493793045042	3.9451447	-10.844788	-0.5942993
1493793045060	0.71528625	-7.738846	0.1474762
1493793045079	0.63949585	-6.076309	2.2776642
1493793045099	-0.322052	-5.1723022	2.1085205
1493793045119	-1.1555939	-3.5955505	3.8681488
1493793045138	-2.6124115	-2.1197815	3.7554474
1493793045158	-3.0082855	-1.9048767	3.0413055
1493793045178	-3.007553	-2.1013489	2.132309
1493793045198	-2.4303894	-2.545868	0.92074585
1493793045217	-2.5358276	-3.8731537	-1.2865143
1493793045237	-3.283722	-6.816635	-4.8803253
1493793045257	-5.930298	-11.830261	-10.352234
1493793045277	-8.584366	-16.079681	-13.8862
1493793045298	-8.522675	-15.830261	-13.280533
1493793045316	-6.0144043	-12.195251	-8.177444
1493793045337	-5.182602	-8.345871	-4.763733
1493793045356	-6.610367	-4.8956604	-5.051132
1493793045375	-8.995758	-7.8999176	-5.228119
1493793045395	-9.305496	-13.68512	-2.3700867
1493793045415	-6.486618	-13.1792145	1.3880615
1493793045434	-1.5652161	-9.23439	5.142334
1493793045454	-0.5570984	-6.8962555	7.2783356
1493793045474	-1.6524811	-6.651535	7.055969
1493793045493	-0.041000366	-8.722229	6.7031097
1493793045513	1.1066284	-11.665649	4.3930664
1493793045533	1.7053833	-14.066223	0.3500061
1493793045552	2.3151398	-13.993134	-2.0618439
1493793045572	1.4364166	-12.006699	-0.7162018
1493793045593	-1.3865967	-8.839233	0.46017456
1493793045613	-4.647766	-6.355652	1.276474
1493793045632	-5.087311	-7.1927643	0.9562988
1493793045652	-3.0202484	-9.280563	-1.656784
1493793045672	-1.1842041	-10.307312	0.5511627
1493793045691	0.11843872	-9.931015	1.0160217
1493793045710	-0.008132935	-9.281815	2.0807037
1493793045730	-0.8421478	-8.631454	-0.024612427
1493793045749	-0.78596497	-8.258591	0.013687134
1493793045769	-1.1885681	-9.356369	0.35856628
1493793045789	-0.10108948	-10.27829	-0.120773315
1493793045828	0.5005646	-10.107391	-1.2007904
1493793045848	-1.1841431	-11.36731	-1.8071136
1493793045867	-2.130005	-11.981766	-1.8704071
1493793045887	-0.15661621	-12.5902405	-1.203537
1493793045908	2.1157074	-13.191879	0.15344238
1493793045928	1.651001	-12.896576	-0.49473572
1493793045949	0.92349243	-12.861588	-1.3531799
1493793045966	2.037323	-14.082443	-1.2465515
1493793045986	2.553772	-14.236618	-1.8777313
1493793046006	1.183075	-13.894669	-1.7851715
1493793046025	-4.2424774	-11.37529	-1.4971008
1493793046044	-5.5818634	-9.800491	0.17547607
1493793046064	-6.3216553	-12.096893	3.9643707
1493793046084	-8.3020935	-14.991013	3.7461395
1493793046104	-9.461853	-15.74855	1.2806091
1493793046124	-7.5726166	-14.005707	-0.7950134
1493793046144	-5.233734	-12.075577	-1.3673248
1493793046163	-4.204956	-11.260056	0.21525574
1493793046182	-0.694458	-10.889847	1.9778748
1493793046204	2.5638275	-9.761185	1.3043518
1493793046223	-0.057037354	-7.6017303	0.55140686
1493793046242	0.001449585	-6.090393	1.1924286
1493793046262	0.42666626	-5.4295044	2.9040833
1493793046282	-0.83026123	-3.3972626	4.010727
1493793046303	-1.94664	-2.1410522	3.5486145
1493793046321	-2.237259	-1.917633	3.2729492
1493793046343	-2.0097961	-1.9405365	2.6877441
1493793046363	-1.760437	-2.4091644	1.1403809
1493793046387	-2.1293182	-3.6823578	-0.9111786
1493793046399	-3.4496002	-7.6069946	-6.7776947
1493793046419	-5.327347	-13.54071	-12.118576
1493793046438	-8.437988	-16.62381	-14.387207
1493793046458	-9.13324	-14.029785	-11.8564
1493793046478	-6.728256	-10.819534	-6.3406067
1493793046500	-6.5184937	-8.455734	-3.7636108
1493793046517	-9.489426	-6.978409	-5.5902863
1493793046537	-10.305252	-12.743423	-7.6692047
1493793046557	-7.6143036	-13.341812	-1.4078827
1493793046576	-2.8707275	-7.423233	4.6590576
1493793046597	-0.77182007	-4.904434	8.722473
1493793046616	-3.2778778	-6.675003	7.0667877
1493793046635	-0.5929413	-9.159943	6.7974243
1493793046655	1.8351746	-12.196228	6.687042
1493793046675	2.4551392	-14.407379	2.244217
1493793046715	0.6633606	-13.916	-4.039459
1493793046734	0.9519806	-11.876099	-1.7815247
1493793046754	0.2425232	-10.946716	1.0635376
1493793046773	-2.8657074	-8.514008	1.0241394
1493793046794	-4.6778564	-6.4913635	0.20376587
1493793046814	-3.7309113	-8.126083	-0.6160736
1493793046833	-1.7155609	-9.471832	-1.0804138
1493793046853	-0.2013092	-9.954987	0.5913086
1493793046872	0.11282349	-8.97348	0.8822174
1493793046891	-0.72128296	-8.521759	0.37838745
1493793046911	-0.45066833	-8.70813	-0.32855225
1493793046931	-0.69744873	-9.271805	0.24641418
1493793046951	-0.8303375	-9.404312	0.16844177
1493793046970	-0.52893066	-9.287277	0.10533142
1493793046990	-0.1230011	-9.675079	-0.3974762
1493793047012	-1.2434082	-11.227707	-1.0918274
1493793047029	-1.9273987	-12.337875	-1.894577
1493793047050	0.09552002	-12.704086	-1.0831146
1493793047069	1.8133392	-13.092926	0.24075317
1493793047088	1.449234	-12.7388	-0.36270142
1493793047108	1.3620453	-12.557831	-1.7386627
1493793047128	1.7991486	-13.24884	-1.6040802
1493793047147	2.435028	-14.12178	-1.5569763
1493793047167	1.9539032	-14.334106	-2.0740356
1493793047187	-2.2421265	-12.3385315	-2.1833954
1493793047207	-4.8570404	-10.016525	-0.13214111
1493793047226	-5.791275	-11.777985	3.5256958
1493793047246	-8.335098	-15.068939	4.539688
1493793047265	-9.736023	-16.115082	1.8863525
1493793047285	-7.8213196	-14.563751	-0.90715027
1493793047305	-6.0109253	-12.740128	-0.6717377
1493793047325	-5.1527863	-11.463058	-0.0665741
1493793047344	-3.5981903	-11.048965	0.9980469
1493793047364	3.5976715	-10.216202	1.9708099
1493793047384	1.3371582	-8.227524	1.3304596
1493793047405	1.4638519	-5.912323	0.7902832
1493793047424	1.01268	-5.6168365	2.3380432
1493793047446	0.012130737	-3.6515808	3.432022
1493793047463	-1.2366791	-2.1431274	3.7542725
1493793047483	-1.7915344	-1.947937	3.5636444
1493793047505	-2.192871	-2.105835	3.0186768
1493793047523	-2.0267944	-2.3234406	1.9281006
1493793047549	-2.3566742	-3.1283722	-0.0084991455
1493793047563	-2.8610077	-5.797043	-2.6712952
1493793047583	-5.570343	-12.128998	-10.101532
1493793047623	-8.23288	-18.272339	-15.930664
1493793047645	-9.3714905	-16.213242	-13.40506
1493793047663	-6.743393	-10.950256	-8.733994
1493793047681	-4.911499	-8.0464325	-4.4166565
1493793047702	-6.4790955	-5.717407	-4.2723846
1493793047721	-8.658188	-6.426346	-5.9003296
1493793047741	-9.237503	-13.262497	-5.9606934
1493793047764	-6.656204	-13.814529	-1.8441162
1493793047780	-2.037384	-8.360519	4.6311035
1493793047799	-1.1958008	-5.8365936	8.39621
1493793047819	-3.540863	-6.67157	5.3423767
1493793047839	-1.1644592	-8.719574	5.668991
1493793047858	1.4929352	-11.621948	5.6106415
1493793047881	1.4525146	-14.1622925	2.6918793
1493793047898	1.1680756	-14.272995	-0.2476654
1493793047918	0.7548828	-12.896561	-1.1896973
1493793047938	-0.8033142	-10.819077	-0.4161682
1493793047958	-3.0520325	-8.429108	0.005218506
1493793047978	-3.7520294	-6.9915466	-0.12156677
1493793047997	-3.698227	-7.707489	0.04185486
1493793048019	-1.8881226	-9.531525	-0.51498413
1493793048037	0.12347412	-10.468201	-0.6838684
1493793048056	0.10726929	-9.435257	0.22259521
1493793048076	-0.9457245	-8.704803	-0.3635254
1493793048096	-1.2106171	-8.575195	-0.76109314
1493793048115	-1.2880096	-8.906372	-0.3675537
1493793048134	-1.1711884	-9.239746	0.42126465
1493793048154	-0.80081177	-9.389542	0.1499176
1493793048174	-0.49276733	-10.078812	-1.0903015
1493793048194	-0.32383728	-10.815308	-1.7019043
1493793048215	-0.4159088	-11.331482	-1.1359253
1493793048233	0.09265137	-11.57869	-0.08918762
1493793048253	0.64556885	-12.675247	-0.42562866
1493793048274	0.80311584	-12.721649	-0.16297913
1493793048293	-0.394989	-12.551773	-1.1793213
1493793048313	0.8803253	-13.788116	-0.9404602
1493793048332	2.1372375	-14.477051	-2.420639
1493793048352	3.0116882	-14.110596	-2.3095245
1493793048371	-1.8513336	-12.733688	-1.611618
1493793048391	-5.353897	-10.618256	-1.1816254
1493793048411	-5.2181244	-11.43367	2.9899597
1493793048430	-7.169449	-14.25618	4.190796
1493793048450	-8.97406	-16.187546	3.2960663
1493793048469	-7.738861	-14.699799	0.3173523
1493793048509	-5.928177	-12.339691	-0.3983612
1493793048528	-5.270401	-11.649124	-0.6723175
1493793048551	-5.0891113	-10.702805	1.2858124
1493793048568	0.34597778	-9.5466	1.6399689
1493793048589	3.0601196	-9.422302	-0.2716217
1493793048608	1.5155487	-6.7546844	0.10379028
1493793048627	0.9494629	-5.5407867	1.9126587
1493793048647	0.415802	-5.027466	3.1608887
1493793048668	-1.4032745	-3.5154114	3.8705597
1493793048686	-2.5641174	-2.5830536	3.6802826
1493793048706	-2.9049072	-2.2807312	2.6585846
1493793048726	-2.7548523	-2.8118591	1.6101685
1493793048745	-2.3662262	-3.7931976	0.3202057
1493793048767	-2.4312592	-5.8495483	-1.0688934
1493793048784	-3.2355804	-9.505508	-4.612488
1493793048807	-5.502289	-13.64444	-10.647247
1493793048822	-7.933548	-14.230545	-13.000778
1493793048841	-7.269699	-11.0858	-10.230255
1493793048861	-4.9593353	-9.8728485	-6.542923
1493793048881	-3.6054535	-9.756714	-5.0900116
1493793048901	-4.967407	-8.007629	-5.6876373
1493793048921	-7.3793945	-6.526718	-5.4444885
1493793048940	-10.057938	-9.098663	-2.7807312
1493793048959	-10.90184	-13.523407	-1.2025146
1493793048979	-7.238037	-13.700058	-1.4076996
1493793048999	-1.0055237	-9.490341	3.37117
1493793049019	0.186203	-6.5511475	7.083206
1493793049039	-0.54322815	-7.2891846	7.1836243
1493793049059	0.3921814	-9.653534	6.223114
1493793049078	1.7102509	-11.840363	3.802765
1493793049098	1.4848938	-13.29454	-0.43623352
1493793049118	1.6961517	-12.391602	-2.0065308
1493793049137	0.47079468	-11.203247	0.25653076
1493793049157	-2.45549	-9.574158	0.29319763
1493793049181	-3.1984253	-7.702362	-0.2848816
1493793049198	-3.419632	-7.7308807	-0.79182434
1493793049221	-2.4893951	-9.228729	0.70254517
1493793049238	-0.9601898	-9.867706	-0.673584
1493793049258	0.2835846	-10.078613	0.6584015
1493793049277	0.030654907	-8.917297	0.6066284
1493793049297	-0.4276123	-8.34314	1.6601868
1493793049317	-1.0986938	-9.060806	-1.1957397
1493793049336	-0.9918976	-9.061707	-0.23626709
1493793049356	-1.3796692	-10.014633	-0.5622711
1493793049395	-0.5498352	-10.599243	-1.4109802
1493793049415	0.22624207	-10.420944	-0.76641846
1493793049434	0.3216095	-11.115662	-0.14894104
1493793049454	-0.60066223	-11.7677	-0.16325378
1493793049477	0.60118103	-12.475723	-0.50642395
1493793049493	1.7062225	-13.037445	0.92118835
1493793049513	-0.62561035	-12.636581	-0.7306824
1493793049535	-0.52246094	-12.418335	-2.416336
1493793049553	1.2265625	-12.128998	-2.1068115
1493793049573	1.4424286	-12.8892975	-2.84581
1493793049594	2.1409912	-13.494431	-2.2897797
1493793049612	-0.43240356	-12.408554	-0.9017792
1493793049632	-4.0376587	-10.780151	-0.028900146
1493793049651	-5.559952	-11.204788	3.1307983
1493793049672	-8.343674	-14.213989	4.1497955
1493793049691	-10.031296	-15.698944	1.6501923
1493793049711	-8.480408	-14.649841	-0.8265381
1493793049730	-5.982849	-12.890472	-0.9105072
1493793049750	-4.198822	-11.926773	0.05079651
1493793049769	-0.47940063	-11.295013	1.7809296
1493793049789	0.8670807	-11.051071	1.221405
1493793049811	-0.39326477	-8.755646	-0.2633667
1493793049828	0.19593811	-6.111664	1.4525452
1493793049851	0.7406769	-5.3481293	3.0825348
1493793049868	-0.045898438	-3.897766	3.9696808
1493793049888	-1.3394928	-2.545807	3.7833557
1493793049907	-2.171997	-2.2937317	3.177719
1493793049927	-2.6010132	-2.35672	2.4775543
1493793049947	-3.1277618	-2.5044098	0.97662354
1493793049967	-3.2963257	-3.1439362	-1.183548
1493793049988	-4.0394135	-5.230316	-3.6330261
1493793050020	-5.594452	-10.232391	-7.886093
1493793050027	-8.5572815	-15.2139435	-14.171295
1493793050045	-9.233871	-14.815414	-13.56041
1493793050065	-6.8885956	-11.727234	-8.711777
1493793050085	-5.539734	-9.584579	-5.271591
1493793050104	-6.5950317	-6.325653	-5.6600647
1493793050125	-8.45015	-8.119156	-5.4846954
1493793050145	-8.300415	-13.826675	-4.5737762
1493793050165	-6.0051575	-11.743378	1.3301544
1493793050185	-0.3904419	-8.458496	6.1105957
1493793050204	-2.5126038	-6.751465	8.039215
1493793050223	-3.267273	-8.017944	6.3677063
1493793050245	-1.276886	-10.282745	5.3735504
1493793050282	0.61380005	-12.993942	5.027359
1493793050303	2.6026764	-14.170425	0.22389221
1493793050321	1.4487152	-13.237854	-1.6989899
1493793050342	1.0526886	-10.99501	-0.5240936
1493793050360	-0.37857056	-9.0781555	0.54844666
1493793050383	-4.0748596	-6.9855194	-1.6773376
1493793050401	-3.948288	-6.926468	-1.1936188
1493793050421	-1.9088135	-8.292435	-0.8404999
1493793050440	-0.517395	-10.091782	-0.6486969
1493793050460	-0.9958191	-9.540329	-0.5747223
1493793050479	-0.5446472	-8.98114	-0.109558105
1493793050500	-0.69621277	-8.959549	-0.6248627
1493793050520	-0.5401306	-8.918823	0.7224121
1493793050537	-0.67962646	-8.389664	0.5319214
