accelerometer_timestamp	accelerometer_x_data	accelerometer_y_data	accelerometer_z_data
1493781964273	-2.6993408	1.5919495	9.223938
1493781964294	-2.0915375	1.427124	9.02861
1493781964313	-1.3883209	1.5302582	10.503998
1493781964334	-0.93629456	1.7089691	10.662521
1493781964352	-0.8941803	2.1288605	9.12587
1493781964372	-1.3296661	2.3957214	8.288147
1493781964392	-1.925827	2.0948334	9.256317
1493781964412	-2.205185	1.6593323	10.843933
1493781964431	-1.988266	1.3913879	11.464157
1493781964451	-1.9624481	1.2670441	9.908295
1493781964471	-2.422638	1.8968201	8.320679
1493781964491	-2.3953857	2.348236	8.104019
1493781964511	-2.211441	2.1242218	8.189911
1493781964530	-3.8614197	1.8943481	9.71611
1493781964550	-3.2116547	1.8683624	10.520966
1493781964570	-1.5302582	2.4069977	9.118027
1493781964590	-1.0396271	2.7959442	7.3888397
1493781964610	-0.23532104	1.4395142	7.9785156
1493781964630	-2.1406097	0.3487854	10.97702
1493781964649	-1.4627838	0.14782715	13.326706
1493781964669	2.5383453	2.112503	10.194458
1493781964689	0.72247314	2.3205872	6.720627
1493781964709	-3.5998535	1.2574768	6.749237
1493781964729	-2.8437805	0.76301575	9.99733
1493781964748	-0.9761658	0.6014404	11.2164
1493781964768	-0.7098999	1.6340332	11.4965515
1493781964788	-0.5568085	1.9394836	10.532852
1493781964808	-2.1266022	0.6646118	8.523056
1493781964827	-1.9793243	0.7985077	8.232925
1493781964847	-1.7935486	0.8722534	9.693924
1493781964887	-0.7846985	1.864975	10.173752
1493781964907	-0.41081238	2.145462	9.445862
1493781964926	-1.9013367	0.7005005	9.510223
1493781964946	-2.6284332	0.58973694	9.441498
1493781964966	-3.0631866	0.5887451	10.438278
1493781964986	-2.5512085	1.1347198	8.934296
1493781965005	-0.6344757	3.2514954	8.872971
1493781965025	-0.8195801	3.179779	8.475815
1493781965045	-1.8186951	2.4086761	8.9726715
1493781965065	-2.1840973	1.5707245	8.930176
1493781965085	-1.3447876	1.5097504	8.070374
1493781965107	0.98617554	2.5527039	7.8059998
1493781965150	2.2892761	1.5937195	6.5289154
1493781965150	2.9339142	-0.4250641	7.1085205
1493781965164	2.1913605	-1.6675262	6.636505
1493781965184	1.5953674	-1.3131256	3.6478882
1493781965204	1.7357788	-1.5120239	1.8609161
1493781965223	3.0579681	-2.2977295	4.676285
1493781965243	4.4796295	-4.218994	9.15712
1493781965263	2.8947754	-4.161331	10.90065
1493781965283	4.954788	-1.1773071	9.097443
1493781965303	2.257187	-3.0028076	8.1515045
1493781965323	2.4632263	-3.4867249	9.431335
1493781965342	6.804413	-2.9648285	11.75528
1493781965362	8.003693	-2.2803497	16.284729
1493781965382	4.775467	-2.9487305	17.663742
1493781965402	4.077835	-3.1837769	12.7526245
1493781965421	5.4636383	-0.97624207	6.904846
1493781965441	5.1692505	-0.5290985	5.6569977
1493781965461	3.7248383	-2.2485962	7.720047
1493781965481	3.0858612	-3.0381317	8.779282
1493781965500	2.077713	-4.0713043	8.77417
1493781965520	3.6403809	-5.480118	6.6399994
1493781965540	7.754196	-3.2224731	5.050537
1493781965560	11.48201	-0.9356842	3.8326416
1493781965580	12.27417	-1.5241852	2.9991608
1493781965600	11.391357	-2.5603943	3.9089203
1493781965622	11.908966	-2.078003	3.2716675
1493781965639	15.509903	0.112701416	-4.530533
1493781965659	12.802765	-2.091751	-6.4898376
1493781965741	3.7019043	-8.164703	1.2774048
1493781965741	4.083084	-6.3421783	-1.8965149
1493781965741	12.334885	-3.7867432	-1.8755646
1493781965741	10.410538	-8.560211	-4.0787506
1493781965809	7.4707794	-9.980789	-4.631546
1493781965809	5.4214478	-9.701874	-4.104843
1493781965809	3.372223	-9.422958	-3.578186
1493781965827	3.4181519	-7.9433594	-1.9405518
1493781965846	8.1805725	-3.5260925	2.341034
1493781965866	11.950607	-1.2683563	4.933365
1493781965886	8.899918	-4.0431366	1.7145538
1493781965906	4.2963867	-5.237961	-3.0100098
1493781965926	5.848892	-4.5558624	-1.8376312
1493781965946	3.6259003	-6.5623016	0.34300232
1493781965965	3.8939056	-13.924988	1.9158478
1493781965985	6.647705	-19.089996	2.4464874
1493781966016	7.664276	-16.171722	-1.0771027
1493781966025	8.004883	-9.645645	-0.57940674
1493781966045	1.5460358	-5.8896484	0.15974426
1493781966064	0.8699188	-6.5941925	0.14746094
1493781966084	4.4708557	-8.622406	-0.55625916
1493781966104	5.942154	-8.944382	0.33981323
1493781966124	4.7243805	-9.2043	-0.12960815
1493781966144	2.8149261	-10.24295	-0.6940918
1493781966164	-0.059127808	-7.7586823	-1.8010101
1493781966183	-1.2921295	-4.6096497	2.7609253
1493781966203	-1.0115967	-2.7337494	2.613739
1493781966223	-1.643692	0.2086792	0.45487976
1493781966243	-0.52453613	-2.8202972	0.79577637
1493781966262	-1.0514984	-6.3941345	-5.4250336
1493781966282	-3.3144531	-12.643234	-5.0687103
1493781966302	-1.5835571	-7.4705353	-0.035446167
1493781966322	-0.7757263	-2.4720917	-0.08047485
1493781966342	2.394867	-14.930374	2.7199707
1493781966361	10.453369	-14.281143	3.8578339
1493781966381	6.897995	-16.195282	2.0410614
1493781966401	3.6601105	-13.657806	2.4528046
1493781966421	2.3527527	-10.498322	0.0115356445
1493781966441	2.0020905	-11.472366	-0.8955231
1493781966460	3.7129211	-11.682037	-1.0518494
1493781966480	3.3629913	-10.312393	-1.1556702
1493781966500	-0.9224701	-6.1673126	-1.007721
1493781966520	1.4595947	-4.119293	1.9742737
1493781966540	-1.0617065	-5.617157	-0.67318726
1493781966559	0.6055298	-8.839981	-0.5724335
1493781966579	2.036316	-9.849533	-0.90534973
1493781966619	3.8870087	-11.79097	-0.33598328
1493781966639	3.5405426	-12.663071	0.7371216
1493781966658	1.2491913	-10.901794	0.4540863
1493781966678	-1.6439056	-8.348541	1.4370575
1493781966698	-3.1772919	-8.164734	1.2545776
1493781966718	-2.3507843	-9.684738	0.85176086
1493781966738	0.50645447	-10.730911	2.6188507
1493781966757	1.5303955	-10.909821	4.3990784
1493781966777	0.76478577	-10.569061	4.515106
1493781966798	0.1783905	-10.861221	4.1553955
1493781966817	-0.03112793	-11.589935	3.856842
1493781966851	0.96325684	-11.61528	3.6596985
1493781966851	1.0573883	-11.8229065	3.5766602
1493781966871	1.0222473	-11.748901	3.156601
1493781966891	1.2756195	-10.94136	2.5553284
1493781966911	1.6570892	-9.736267	1.7834167
1493781966931	2.0139923	-8.818207	1.1165924
1493781966951	2.3888245	-8.247223	1.4445496
1493781966970	2.457718	-8.036118	1.5088806
1493781966990	2.7296448	-7.8180084	1.5126495
1493781967010	2.721344	-7.553726	1.4949341
1493781967030	1.6302338	-7.5115356	1.0443726
1493781967049	0.4385376	-7.5111084	0.76005554
1493781967070	0.12295532	-7.608612	0.9244995
1493781967089	0.55332947	-8.136444	1.8200836
1493781967109	0.6234131	-9.042175	2.4341888
1493781967129	0.4074707	-9.828339	2.4060974
1493781967148	0.91638184	-9.988998	1.651413
1493781967168	1.926178	-10.37442	1.1759186
1493781967188	2.3564453	-11.053619	0.9926758
1493781967208	2.5240479	-12.013931	0.9645691
1493781967228	2.558136	-12.342728	0.009719849
1493781967248	3.2247162	-12.256821	-1.3313751
1493781967267	3.688324	-12.074554	-1.8787994
1493781967287	3.8300629	-12.510529	-2.0969849
1493781967307	5.1604767	-13.470474	-1.543869
1493781967327	4.0000153	-13.973389	-0.9763336
1493781967347	2.369049	-14.31012	-2.8433685
1493781967366	-0.42634583	-13.55304	-2.8301697
1493781967386	-2.6062317	-12.284958	3.5717468
1493781967406	-3.1769867	-12.401154	4.4935303
1493781967426	-3.365799	-14.479553	2.3258667
1493781967445	-1.5689545	-15.759186	1.9312286
1493781967486	4.236145	-13.937912	-0.44413757
1493781967505	3.5062866	-12.12764	-0.1958313
1493781967525	3.5642548	-11.235352	0.49536133
1493781967545	3.3928833	-8.553207	0.029922485
1493781967565	0.7324219	-7.3454437	1.3103485
1493781967584	-1.7341614	-6.2364655	1.9860077
1493781967605	-1.6602478	-5.620941	1.7005005
1493781967624	-0.6623535	-5.929886	1.6273499
1493781967644	-0.25701904	-5.697357	2.0841675
1493781967664	-1.2546844	-5.0878754	2.3099518
1493781967683	-2.050644	-4.5389557	1.9794464
1493781967704	-1.7277374	-3.971405	1.7313385
1493781967723	-1.1386414	-3.5273743	1.2441711
1493781967743	-0.23553467	-4.040146	-0.24317932
1493781967763	0.65071106	-5.6063232	-3.4689941
1493781967783	0.5002289	-9.12915	-7.542557
1493781967801	2.6324615	-15.016846	-13.071304
1493781967822	6.3979645	-19.474823	-14.49939
1493781967842	6.6493835	-17.220993	-7.6926575
1493781967862	2.2326202	-9.182831	-4.5482483
1493781967881	-2.2862701	-3.035736	-3.7535095
1493781967901	-5.302719	-7.2017365	-1.8072205
1493781967921	-2.9572144	-15.467316	1.7224121
1493781967941	3.0739594	-16.13675	1.5276642
1493781967961	6.6801453	-9.816803	3.6750946
1493781967980	-2.109787	-5.3605194	6.60614
1493781967999	-7.746643	-6.713089	3.1172638
1493781968021	-0.9133148	-10.4374695	5.2866516
1493781968040	2.9605408	-12.46228	3.4119263
1493781968059	3.9013977	-12.746719	2.8804016
1493781968080	2.623291	-11.528427	2.2425537
1493781968099	1.061142	-9.857681	0.6809845
1493781968119	0.5495453	-9.120071	0.13790894
1493781968139	0.71188354	-8.330353	0.4917755
1493781968159	1.0735779	-7.693161	0.52742004
1493781968178	1.3249817	-7.5849457	0.37373352
1493781968198	1.4337921	-7.929413	0.26455688
1493781968218	1.5449829	-8.584213	0.21199036
1493781968238	1.4257813	-8.705429	1.0222626
1493781968258	0.85562134	-8.85791	1.4457092
1493781968277	0.6710205	-9.370056	0.82014465
1493781968297	1.2184601	-9.652939	-0.16921997
1493781968317	1.5434265	-10.099274	-0.78923035
1493781968336	1.0197296	-10.872055	-0.6140137
1493781968356	1.5561218	-11.022415	-0.0763855
1493781968376	2.7373352	-11.027557	0.4211731
1493781968396	3.5338745	-11.03212	-0.43089294
1493781968416	4.4500275	-13.154739	-1.5161743
1493781968436	5.7877655	-14.581497	-0.4800415
1493781968455	3.7839813	-15.5989685	-1.7289429
1493781968475	1.6014099	-14.817032	-3.9217834
1493781968495	-1.2366486	-13.17804	1.0665283
1493781968515	-3.3236847	-10.7895355	2.1362152
1493781968534	-4.8218384	-13.258667	4.688278
1493781968554	-2.205658	-15.444855	2.3356476
1493781968574	-2.9463043	-17.086075	-1.8226929
1493781968594	2.4100494	-14.816559	-1.4992828
1493781968615	2.999771	-12.163239	0.37878418
1493781968653	2.3400269	-10.417755	1.2759552
1493781968674	-1.0508118	-7.8506165	2.269287
1493781968693	-2.2335815	-6.3608704	3.1233673
1493781968713	-2.1814728	-5.8874817	2.5964813
1493781968733	-2.2473755	-4.617935	2.5102386
1493781968752	-2.1184387	-4.7081146	1.3786774
1493781968772	-2.183075	-4.8026886	1.3136139
1493781968792	-2.486084	-3.501358	1.6778717
1493781968813	-2.1810303	-2.4837189	1.8495789
1493781968831	-1.1832275	-2.8722382	0.81300354
1493781968852	-0.65374756	-4.4977417	-1.4000397
1493781968871	1.2916412	-8.795364	-7.3450623
1493781968891	3.7065125	-16.022705	-14.285507
1493781968912	4.6887817	-19.273148	-14.286148
1493781968930	3.7617645	-16.366867	-7.8818817
1493781968951	1.279419	-8.844315	-3.357483
1493781968971	-2.1763	-10.017532	-3.5108185
1493781968994	-2.073471	-17.183105	-3.3804016
1493781969016	1.3731232	-16.077728	1.0105743
1493781969035	0.5358734	-8.047546	6.4259644
1493781969054	-5.534622	-4.040741	5.75473
1493781969073	-4.647873	-7.286667	3.5626373
1493781969093	0.65626526	-11.225586	5.102005
1493781969111	4.014282	-12.40387	4.8953857
1493781969133	3.6114807	-11.958649	3.1851044
1493781969153	1.4459839	-10.755569	1.8691864
1493781969173	0.26387024	-9.952332	1.3574677
1493781969194	-0.4589386	-9.781631	1.28302
1493781969214	-0.8567352	-9.799835	1.5172119
1493781969234	-0.30464172	-9.871674	1.4094849
1493781969253	1.3978577	-9.754471	1.3547821
1493781969274	2.8669891	-9.438324	1.3210602
1493781969294	3.1688843	-9.268631	1.9149933
1493781969312	2.4130402	-9.343735	2.383728
1493781969334	1.5887909	-9.778427	2.3766632
1493781969352	0.9769745	-9.910614	1.7944336
1493781969372	0.25704956	-9.3216095	0.7164917
1493781969393	0.18458557	-8.637024	0.47660828
1493781969413	0.025009155	-8.940979	1.4817657
1493781969432	-0.6364441	-9.881195	2.425949
1493781969452	-0.039794922	-10.445938	2.9970093
1493781969471	2.4353485	-9.824753	3.0194702
1493781969491	4.686783	-8.422119	3.3205109
1493781969511	4.6488647	-7.1275024	3.8054657
1493781969531	2.5131378	-7.1295166	3.356964
1493781969552	1.275177	-9.469955	0.7868347
1493781969571	-0.4105835	-12.585999	0.15481567
1493781969590	-3.8442078	-13.688065	0.2663269
1493781969613	-5.4194946	-12.182739	0.49263
1493781969629	-5.430252	-10.801834	1.6674957
1493781969649	-5.7299805	-11.411972	2.2661896
1493781969670	-5.272278	-12.453934	1.9836426
1493781969690	-4.469803	-12.144455	1.7825012
1493781969709	-2.8360138	-11.769089	0.5039978
1493781969725	-0.58769226	-9.5529785	0.99108887
1493781969750	0.5292969	-8.308105	1.6343536
1493781969767	1.195221	-7.414322	2.0289001
1493781969789	1.7222748	-7.8121796	-0.039474487
1493781969808	1.0356598	-7.957016	-1.489685
1493781969847	-0.44218445	-8.049835	-1.6814728
1493781969866	-0.797699	-8.279434	-0.3848114
1493781969888	-0.8317261	-8.582977	-0.40171814
1493781969905	-1.6647644	-8.759369	-0.9614868
1493781969922	-2.3220673	-8.568954	-0.7605438
1493781969942	-1.0988159	-8.669449	0.1381073
1493781969966	-0.075027466	-9.007065	-0.18713379
1493781969987	0.40097046	-9.141724	-0.61239624
1493781970007	0.37983704	-9.265228	-1.0718384
1493781970025	0.4433899	-9.321991	-2.1888428
1493781970046	1.4593201	-9.514709	-2.8614044
1493781970065	2.0489197	-9.789459	-3.9969635
1493781970085	2.5119934	-9.6293335	-4.9520874
1493781970105	2.8929443	-9.483337	-4.7861633
1493781970122	2.3973846	-9.603043	-4.331894
1493781970145	0.77008057	-10.286011	-3.1301117
1493781970164	-1.1554871	-10.204071	-1.3881683
1493781970184	-3.1592407	-9.777298	0.01121521
1493781970203	-4.208359	-10.1132965	1.2411346
1493781970220	-3.4654388	-11.02063	3.600708
1493781970244	-1.2343903	-11.041016	4.6536713
1493781970263	1.3274841	-10.465988	4.5762634
1493781970283	1.7972107	-10.440475	4.607956
1493781970303	2.514038	-10.74176	4.2430573
1493781970321	2.7013092	-12.117264	3.9341278
1493781970343	1.8870239	-12.886795	3.0637207
1493781970360	1.3879089	-11.780289	2.0244904
1493781970378	0.90548706	-10.158569	1.0918274
1493781970403	0.32044983	-9.35257	0.3508911
1493781970421	-0.399765	-9.278671	-0.26246643
1493781970441	-0.6660309	-9.167786	-0.09434509
1493781970461	-0.647522	-9.078247	0.47035217
1493781970482	-0.57962036	-8.941483	1.3438416
1493781970501	-0.37356567	-8.614639	1.9525604
1493781970520	-0.3217926	-8.492004	1.512619
1493781970542	0.14863586	-9.005051	1.0073547
1493781970560	0.77648926	-10.000702	0.58883667
1493781970579	0.9472046	-10.408539	-0.38476563
1493781970596	1.3701172	-10.013687	-1.1606903
1493781970616	1.6937103	-10.21582	-0.670166
1493781970635	1.5147095	-10.828888	-0.6347809
1493781970653	2.2501373	-11.36911	-2.1762085
1493781970677	4.9573364	-12.443588	-2.8356476
1493781970697	6.3067474	-14.26622	-1.6107941
1493781970715	5.055191	-14.916107	-1.3884277
1493781970733	2.4039154	-14.396225	-2.3242493
1493781970752	-0.10072327	-13.827194	-3.3855896
1493781970773	-1.6175537	-12.197708	2.4862976
1493781970792	-4.0225983	-12.370804	4.540146
1493781970812	-5.469528	-13.9888	5.9620667
1493781970831	-3.2027435	-15.665848	2.0228882
1493781970852	0.33129883	-15.522797	-1.1103363
1493781970874	2.8172302	-14.84198	-1.2658844
1493781970893	2.4253998	-12.075577	0.3907776
1493781970913	0.22366333	-10.540314	1.4184265
1493781970934	-1.6298218	-7.7992096	2.8022919
1493781970972	-2.341278	-6.770172	2.8786926
1493781970993	-2.6076355	-5.2920074	2.2181854
1493781971013	-2.6112976	-4.092697	1.8331299
1493781971031	-2.1838684	-3.4812622	1.5797882
1493781971054	-2.4629211	-2.013214	1.9011383
1493781971072	-2.7306976	-1.0641327	2.438385
1493781971095	-1.5748291	-1.7284393	1.8013916
1493781971114	-0.48597717	-3.7983704	0.28588867
1493781971131	1.1039734	-7.4627686	-4.245392
1493781971150	4.133362	-15.597549	-14.549362
1493781971168	8.388031	-19.474823	-17.482697
1493781971188	4.383362	-17.610718	-7.3292236
1493781971208	0.062088013	-8.64035	-2.7289124
1493781971226	-2.0809174	-5.141159	-3.8980103
1493781971249	-3.9334564	-12.936218	-4.8802032
1493781971266	-0.43800354	-18.007889	0.04789734
1493781971289	-0.0015716553	-11.876038	5.0572815
1493781971308	-5.1073	-4.743347	4.89151
1493781971325	-4.8598022	-3.2803802	5.5620575
1493781971350	1.0684662	-9.078064	6.8420105
1493781971372	4.7007294	-13.987946	3.8119202
1493781971392	4.634659	-13.647034	2.9623718
1493781971413	2.2700043	-11.330887	2.3927307
1493781971431	0.39241028	-9.896866	0.9378967
1493781971448	-1.2300568	-9.891312	0.21087646
1493781971467	-1.93219	-9.698273	0.012435913
1493781971487	-1.6608887	-9.490723	0.18623352
1493781971506	-0.89886475	-9.013092	-0.3241577
1493781971525	0.23060608	-8.53775	-0.26182556
1493781971544	0.87338257	-7.986618	0.025390625
1493781971563	1.1205902	-7.741226	0.5538025
1493781971584	1.2158356	-8.122421	1.1721191
1493781971603	1.1827698	-8.9023285	1.4766998
1493781971622	1.2552795	-9.598343	1.2525177
1493781971643	1.5224304	-9.906586	-0.09513855
1493781971662	0.78512573	-10.71463	-1.5572662
1493781971682	-0.4057312	-12.24086	-1.9788971
1493781971702	0.372406	-12.775543	-1.0619202
1493781971721	1.8939514	-12.257935	-0.5686035
1493781971741	2.7131958	-11.734711	-1.736084
1493781971761	2.8766785	-11.851334	-3.6738892
1493781971781	4.2947845	-12.182983	-3.2011414
1493781971800	4.7209625	-13.979355	-2.8454132
1493781971821	4.603836	-13.240921	0.5181122
1493781971840	1.5438232	-12.554047	1.8601532
1493781971861	-2.7598114	-12.645187	3.477356
1493781971882	-4.1303253	-14.423096	3.9327393
1493781971902	-4.14357	-17.273636	2.8128967
1493781971922	-0.7180176	-17.419739	-0.08937073
1493781971941	2.5917816	-15.486755	-0.06855774
1493781971962	3.5252228	-13.230408	0.088256836
1493781971983	1.4727173	-10.095032	0.559494
1493781972001	-0.96554565	-7.4523315	2.4325562
1493781972021	-2.5265503	-5.7564545	3.045395
1493781972043	-2.7416077	-4.6125336	3.3022308
1493781972063	-3.1345367	-4.039673	2.418045
1493781972102	-3.0803833	-3.69635	1.9054565
1493781972120	-3.9202728	-3.2246857	1.9490051
1493781972140	-3.9305878	-2.1716156	2.411026
1493781972162	-2.4929047	-2.6854858	2.1560364
1493781972182	-1.6295166	-4.4019623	0.6932831
1493781972201	0.1709137	-8.388733	-3.5262756
1493781972221	1.0980377	-14.791824	-11.941635
1493781972241	7.1108093	-19.474823	-18.061432
1493781972262	7.1015167	-17.718079	-7.079544
1493781972281	2.0900726	-8.254776	-2.0689392
1493781972302	-0.91563416	-4.2185516	-2.8015594
1493781972321	-3.6363525	-8.541901	-1.631546
1493781972339	-3.8407745	-14.906891	0.55885315
1493781972362	-1.2786713	-15.580353	-0.30821228
1493781972381	-0.15763855	-10.440247	2.4176788
1493781972401	-4.238968	-5.9242096	4.723068
1493781972421	-2.2500763	-7.0730743	5.6216583
1493781972437	1.9052582	-10.09639	3.7754211
1493781972460	4.1859436	-11.138306	3.2154083
1493781972480	4.1902466	-12.050751	2.6907043
1493781972501	1.9995575	-11.375168	0.7613983
1493781972519	-1.1358185	-10.205978	-0.033737183
1493781972538	-1.0811462	-9.512665	0.6756134
1493781972561	-0.53338623	-8.958069	0.18965149
1493781972580	0.07917786	-8.9049835	-0.29917908
1493781972599	0.6852112	-9.13237	0.008911133
1493781972616	0.88404846	-9.301987	-0.39082336
1493781972633	0.71362305	-8.715134	-0.069000244
1493781972658	0.41288757	-8.367249	0.69218445
1493781972677	0.20649719	-8.801514	1.2337799
1493781972697	0.27738953	-9.419113	1.1504364
1493781972718	0.66464233	-9.739487	0.6560211
1493781972736	1.0254974	-10.1115265	0.21243286
1493781972757	1.4378204	-10.674469	0.08441162
1493781972778	1.6981354	-11.330765	-0.19352722
1493781972796	1.8024597	-11.700317	-0.6438141
1493781972816	2.4839478	-11.81398	-0.787796
1493781972835	3.7187195	-12.024063	-0.77523804
1493781972856	4.67688	-12.198257	-1.3401337
1493781972875	4.716034	-12.893097	-1.8892365
1493781972896	3.3598175	-13.4678955	-2.0579376
1493781972911	1.2917938	-13.3368225	-1.8540192
1493781972931	-2.750473	-12.748718	-3.0925903
1493781972955	-3.9159393	-11.196991	-0.24699402
1493781972975	-4.9804077	-11.199936	1.239212
1493781972994	-5.7550354	-13.868866	4.2572174
1493781973015	-4.135498	-16.540054	4.769928
1493781973033	-0.88648987	-15.324554	-0.25100708
1493781973053	2.9993439	-14.15892	-3.7245789
1493781973072	2.070984	-11.63266	-0.77893066
1493781973092	0.1340332	-10.1475525	1.0278931
1493781973113	-1.8233948	-7.790909	1.7026978
1493781973133	-1.9034119	-6.6115723	0.949234
1493781973151	-0.61924744	-6.4000854	1.3941498
1493781973173	0.19631958	-6.6575165	1.4511108
1493781973191	-0.68566895	-4.9898224	2.3049164
1493781973212	-1.5373993	-4.144943	2.7727203
1493781973231	-2.2752686	-3.5115814	3.044815
1493781973271	-2.7852783	-1.9653015	2.79953
1493781973292	-2.5164337	-1.4285278	1.7819366
1493781973310	-1.1817169	-2.8435364	-0.2715149
1493781973330	-0.13641357	-6.3711395	-4.5397797
1493781973347	3.4174042	-12.557724	-10.733658
1493781973371	4.9377594	-19.474823	-16.709518
1493781973390	4.4453278	-18.929214	-12.771469
1493781973412	1.6491394	-12.700272	-4.9351044
1493781973430	0.23680115	-6.7880707	-3.0268555
1493781973447	-3.8582	-12.049637	-1.7855225
1493781973471	-1.3250427	-16.95848	2.558075
1493781973489	-1.5444336	-13.9266815	2.481369
1493781973509	-3.1861572	-5.633087	3.8380737
1493781973528	-5.1246796	-1.6410675	10.301025
1493781973546	-3.0342865	-7.260391	8.52002
1493781973569	2.6822968	-13.854767	5.1398163
1493781973588	3.8291168	-13.776382	3.3152313
1493781973608	2.5469513	-11.95636	2.6200867
1493781973626	0.6688385	-10.2183075	0.8831177
1493781973643	-0.14257813	-9.591263	0.6469879
1493781973668	-0.018981934	-9.359131	1.1796265
1493781973686	0.41059875	-9.057251	1.1369019
1493781973706	1.0167542	-8.745056	0.7064972
1493781973726	0.8039093	-8.351456	-0.087753296
1493781973744	0.8707123	-8.550278	-0.29045105
1493781973767	0.87268066	-9.033325	0.2685547
1493781973786	0.83029175	-9.106491	1.0985565
1493781973805	0.68463135	-9.31752	0.7934723
1493781973826	1.3138123	-9.636856	-0.68685913
1493781973844	2.6533356	-9.937378	-1.1888123
1493781973864	2.1658478	-10.562408	-0.22610474
1493781973884	0.25646973	-11.097229	0.042434692
1493781973906	0.8298187	-11.587631	-0.4252777
1493781973920	2.9757538	-11.9687805	-0.37657166
1493781973942	2.3867798	-12.6167755	-1.7292175
1493781973973	1.7058868	-13.262009	-2.5171967
1493781973973	1.7086487	-13.781998	-2.5490112
1493781973991	1.3774719	-14.862396	-3.8458252
1493781974021	-1.5554504	-13.8573	-0.7143402
1493781974040	-4.3130646	-12.410828	1.8350525
1493781974060	-6.1655884	-12.895477	4.8464203
1493781974080	-3.6703339	-13.126602	2.371292
1493781974100	-2.876892	-14.744919	-2.606018
1493781974120	1.6817932	-14.946472	-2.2632446
1493781974139	4.426178	-13.315979	-0.85183716
1493781974160	2.1570892	-10.754929	0.29006958
1493781974177	-1.2450409	-7.32106	1.7356415
1493781974199	-1.3054962	-5.8618774	2.0601654
1493781974219	-2.6422882	-5.0426483	2.885315
1493781974239	-2.767334	-4.45549	1.8272247
1493781974260	-3.2715607	-4.2654877	1.1979675
1493781974279	-2.450653	-4.1999054	1.3515625
1493781974297	-2.6486053	-3.2127686	1.8271942
1493781974321	-2.2708282	-2.5700684	2.1040497
1493781974339	-1.4667511	-2.6721497	1.3873444
1493781974382	-1.1040955	-3.729126	-0.7648773
1493781974382	0.4991455	-8.913803	-5.7770386
1493781974419	3.6663055	-18.788406	-19.604553
1493781974440	3.7809448	-19.369736	-17.255127
1493781974456	2.4253998	-17.287155	-8.890976
1493781974478	0.10826111	-6.499283	-3.7335815
1493781974498	-3.2679749	-1.7537689	-3.4418488
1493781974518	-7.883774	-9.100006	-1.0957031
1493781974537	-3.1710052	-13.70166	6.7737885
1493781974558	1.1714172	-16.146347	-1.5603485
1493781974577	2.5047607	-11.2846985	2.5985718
1493781974596	-3.2180023	-4.9372864	8.057007
1493781974617	-3.2813416	-5.642441	3.8168335
1493781974636	3.3840485	-10.524689	3.9859314
1493781974654	4.8462524	-12.373688	3.5715637
1493781974677	2.8332977	-12.431015	2.0235596
1493781974696	1.1244354	-11.69957	0.1870575
1493781974716	-0.8469238	-10.417328	-0.5517731
1493781974736	-1.1455841	-9.768768	0.31759644
1493781974753	-0.53079224	-9.485718	-0.124801636
1493781974775	0.17515564	-8.491089	-0.6084442
1493781974795	0.14619446	-7.6260223	-0.4874115
1493781974814	-0.07144165	-7.625992	-0.651947
1493781974834	0.45021057	-7.9949646	-0.10958862
1493781974855	1.140152	-8.206909	1.0450287
1493781974874	1.1926575	-8.480621	1.5862274
1493781974893	1.0544891	-8.893066	1.7784729
1493781974910	0.59788513	-9.275391	0.76834106
1493781974930	-0.54519653	-9.896896	-0.6746521
1493781974954	-1.6576233	-11.087265	-0.65200806
1493781974968	-1.030365	-12.167282	-0.87431335
1493781974990	2.2086487	-12.432007	-1.0440826
1493781975010	4.734253	-12.15889	-1.3702087
1493781975031	5.147766	-12.4110565	-2.2028656
1493781975049	4.951187	-12.806198	-1.8946533
1493781975070	4.22052	-14.364258	-2.5867767
1493781975087	3.2601624	-14.794144	-4.032959
1493781975111	1.0942993	-13.282013	-0.72180176
1493781975129	-3.5436096	-11.854843	2.662918
1493781975148	-7.5874634	-13.03334	4.7894135
1493781975166	-7.3694916	-15.502258	4.531128
1493781975188	-3.5638275	-16.201202	0.9662628
1493781975210	3.2859344	-15.2092285	-2.5410767
1493781975229	3.3234863	-13.61908	-2.0659027
1493781975253	2.5808716	-11.748245	-0.49479675
1493781975270	0.6945801	-8.542892	1.5925446
1493781975290	-0.9438019	-6.84256	2.5623932
1493781975311	-1.7315521	-5.27565	3.1069489
1493781975330	-2.6463013	-4.6408844	2.8586884
1493781975349	-3.131424	-5.310837	2.3095245
1493781975369	-3.367981	-3.8855286	1.8961182
1493781975389	-3.0967865	-2.893219	2.5675354
1493781975410	-1.8668518	-1.5845795	2.4482574
1493781975428	-0.9329071	-1.643692	2.0640106
1493781975448	0.90844727	-3.2764587	0.69384766
1493781975464	1.7006073	-6.974411	-2.7312164
1493781975488	0.64108276	-16.043396	-15.297668
1493781975507	4.328232	-19.405563	-17.194336
1493781975546	5.181305	-19.33847	-10.215881
1493781975564	1.5315704	-11.326263	-2.5511627
1493781975582	-0.7138519	-6.7658234	-2.8484955
1493781975606	-5.312439	-13.486725	-5.5391846
1493781975622	-2.741684	-15.92952	0.57759094
1493781975640	-0.64105225	-12.508774	5.48822
1493781975659	-2.0231628	-5.8351135	3.0826416
1493781976198	-5.0165863	-0.9849701	7.533127
1493781976199	-3.3580017	-4.7105255	6.974945
1493781976199	3.2064667	-13.045898	5.9174805
1493781976199	4.2864685	-14.919617	3.219345
1493781976199	2.5999908	-12.786682	2.870041
1493781976199	0.76734924	-10.017731	1.0323029
1493781976199	-0.030471802	-9.70314	0.56985474
1493781976200	-0.98599243	-9.32489	0.44592285
1493781976200	-0.6278229	-9.314865	0.80140686
1493781976200	-0.06468201	-9.026993	1.0292969
1493781976200	0.39982605	-8.590118	0.5372467
1493781976200	0.6520386	-8.437576	0.15974426
1493781976200	0.68029785	-8.484238	-0.289505
1493781976200	1.043457	-8.52034	-0.44322205
1493781976201	0.98469543	-8.882568	0.40379333
1493781976201	0.9269409	-9.453171	1.1392975
1493781976202	1.0022736	-9.795349	0.8204651
1493781976203	0.9777374	-10.135757	-0.16242981
1493781976203	0.5063019	-10.717972	-0.92066956
1493781976203	0.17100525	-10.837769	-0.8962555
1493781976203	1.5254669	-10.879883	-0.07008362
1493781976203	3.224884	-11.356094	0.085494995
1493781976203	3.8184052	-12.277252	-0.9638519
1493781976204	3.0094452	-13.566727	-1.9816742
1493781976204	2.0681763	-14.4700165	-1.6486511
1493781976204	-0.4043579	-14.852951	-2.383133
1493781976204	-3.672348	-14.306534	-1.2252655
1493781976216	-5.8347015	-12.675507	0.35656738
1493781976238	-7.327774	-13.158234	3.7961273
1493781976257	-5.825897	-14.267853	5.1351166
1493781976278	-2.8480835	-14.784119	1.7276001
1493781976297	0.17076111	-14.067703	-1.6268005
1493781976318	2.606079	-12.483688	-1.3309937
1493781976338	3.4224854	-11.260757	0.4981079
1493781976356	-0.14865112	-8.280624	1.2596588
1493781976377	-1.7253418	-5.9700623	2.2301025
1493781976397	-1.7750549	-5.8583374	2.6264343
1493781976416	-2.4414215	-4.671814	2.4602356
1493781976440	-2.5606842	-4.5542603	1.6319427
1493781976457	-2.0169678	-3.7934113	1.009964
1493781976476	-1.444931	-2.6747437	1.2215576
1493781976497	-1.7194672	-1.8326874	1.6650391
1493781976516	-1.5052185	-2.3923645	1.561966
1493781976537	-1.4308777	-3.9078522	0.7837982
1493781976556	-0.65792847	-7.180359	-1.7977142
1493781976573	0.21038818	-13.70874	-9.588333
1493781976594	0.9127197	-19.466125	-14.894882
1493781976636	-0.82566833	-19.394058	-13.380295
1493781976653	-0.46688843	-14.047852	-4.300476
1493781976672	0.13763428	-7.849289	-4.439377
1493781976695	-1.1109619	-3.3935547	-4.059906
1493781976714	-5.1901855	-7.873764	-4.2630615
1493781976734	-4.99617	-18.05246	-1.4998474
1493781976754	-0.767395	-18.741165	3.222412
1493781976771	1.5407104	-10.18045	1.5681915
1493781976791	-2.607376	-4.5363617	7.7508698
1493781976813	-6.4633636	-4.6127014	7.6108704
1493781976828	-1.8430786	-8.564728	4.8727875
1493781976847	5.114395	-11.39502	5.3760223
1493781976866	4.2514954	-12.844101	3.3622742
1493781976887	0.8033905	-12.473648	2.721344
1493781976907	0.35186768	-11.595276	1.4883118
1493781976927	-0.5075531	-10.613632	0.8725586
1493781976946	-1.9644318	-9.48436	0.68070984
1493781976965	-1.4099121	-9.236374	0.4010315
1493781976986	0.76730347	-9.369598	1.4460449
1493781977005	2.2698212	-9.536362	1.9325714
1493781977025	2.2457733	-9.670975	1.8757782
1493781977046	1.9922028	-9.715897	2.2629395
1493781977065	1.8987732	-9.743866	2.3520966
1493781977086	1.4961548	-9.81926	1.8445435
1493781977107	0.56437683	-9.560394	0.72280884
1493781977127	-0.3914032	-9.185898	0.1694336
1493781977147	-0.9681549	-9.216354	1.4763794
1493781977166	-1.4417877	-9.655716	2.5323334
1493781977191	-0.57040405	-9.973206	2.6714935
1493781977206	2.0751495	-10.069962	2.4789276
1493781977227	4.1369324	-9.878418	2.6063843
1493781977250	4.361267	-9.640015	2.2851715
1493781977265	3.1767273	-9.137604	1.1380157
1493781977285	1.9927368	-9.213669	0.34698486
1493781977303	0.31306458	-11.506241	-0.20986938
1493781977323	-2.5742798	-12.858795	-0.26379395
1493781977343	-4.941635	-11.683426	-0.18127441
1493781977362	-6.9225006	-10.0894165	-0.5703888
1493781977383	-7.0859375	-9.796875	0.67645264
1493781977403	-5.6079407	-10.455353	2.0878906
1493781977423	-3.9794617	-10.515671	2.0171661
1493781977442	-2.598526	-10.06337	1.4684296
1493781977461	-2.2333221	-9.658966	0.50149536
1493781977481	-1.4135132	-9.646042	0.33366394
1493781977501	0.023788452	-10.220566	1.2802734
1493781977523	0.98999023	-9.803635	1.6669159
1493781977543	-0.7649689	-9.715057	-1.0013123
1493781977562	-2.2853546	-9.630585	-2.0951233
1493781977583	-2.3609161	-9.6089325	-1.7763824
1493781977602	-1.5922394	-9.084	-1.5257721
1493781977620	-1.047409	-8.607376	-1.6437225
1493781977642	-1.4985657	-8.1931	-1.8296967
1493781977661	-1.2859497	-7.83403	-1.8887329
1493781977681	-0.53230286	-7.772476	-1.9006958
1493781977701	-0.3549652	-7.562149	-2.372284
1493781977723	0.06085205	-7.8204193	-2.21344
1493781977744	1.1247864	-8.231155	-2.9214325
1493781977764	1.2485504	-8.489395	-3.4685059
1493781977803	1.4371185	-8.788086	-3.897644
1493781977821	1.4845886	-8.876404	-5.038498
1493781977843	0.91438293	-8.240143	-5.9950256
1493781977862	0.93992615	-7.5577393	-6.0700226
1493781977881	1.2581635	-7.2676086	-5.882599
1493781977902	1.9038696	-7.5200806	-5.631851
1493781977921	2.344925	-8.392517	-6.0395355
1493781977943	2.5818176	-9.245544	-6.673706
1493781977957	2.197876	-9.397888	-5.8748474
1493781977979	-0.4567871	-8.753967	-3.3034515
1493781986342	-4.6283264	-11.291473	-1.6138
1493781986342	-6.696884	-15.549042	-3.2105713
1493781986342	-6.78421	-11.342117	-5.7522736
1493781986342	-4.4559937	-5.1687927	-0.25819397
1493781986342	-0.14297485	-4.6931763	4.550186
1493781986342	4.0406647	-9.012436	3.5651245
1493781986342	3.8839264	-13.886978	1.8101959
1493781986342	1.9111481	-14.9604645	0.4975891
1493781986342	0.6079407	-12.957397	1.0733185
1493781986342	0.22467041	-10.841644	1.7527771
1493781986342	-0.57624817	-10.321625	1.993866
1493781986342	-0.9276123	-10.274338	2.1210938
1493781986342	-1.1641693	-10.60376	1.8511963
1493781986342	-1.1010895	-10.822266	0.81967163
1493781986342	-0.25457764	-10.558182	0.6391144
1493781986342	0.31848145	-9.570679	0.7274933
1493781986342	0.4882202	-8.62355	0.7033844
1493781986342	1.3158112	-8.5486145	0.9431305
1493781986342	1.5593262	-8.482071	0.88746643
1493781986342	1.3439026	-8.251648	1.0696564
1493781986342	1.2456055	-8.240799	1.3112793
1493781986342	1.2319336	-8.459625	1.0329132
1493781986343	0.86091614	-8.912903	0.42889404
1493781986343	0.537735	-9.499191	-0.06463623
1493781986343	-0.05444336	-10.140518	-0.82614136
1493781986343	0.19165039	-10.9086	-1.0678711
1493781986343	0.5259094	-12.490097	-0.89068604
1493781986343	0.345932	-14.094269	-1.3182526
1493781986343	0.9028473	-14.166534	-2.1455383
1493781986343	2.0505219	-13.058701	-2.8345947
1493781986343	2.0611877	-12.210098	-3.8590088
1493781986343	3.0071716	-12.74617	-3.7124023
1493781986343	3.6187134	-13.472626	-2.110199
1493781986343	2.2418976	-14.023407	-2.6186523
1493781986343	-0.62579346	-13.302673	-1.2809143
1493781986343	-3.6500244	-11.781479	2.750946
1493781986343	-5.7878723	-12.403931	6.6744537
1493781986343	-4.53804	-14.278183	4.400879
1493781986343	-2.9723358	-16.66362	0.78022766
1493781986343	-0.0211792	-15.894058	-2.6696777
1493781986343	1.5209961	-14.388123	-0.5251312
1493781986343	0.93670654	-11.188339	-0.54063416
1493781986343	0.73802185	-8.597626	1.0336914
1493781986343	-1.1721497	-6.709244	2.9613037
1493781986343	-2.1374054	-5.859619	2.381363
1493781986343	-2.438385	-4.921219	1.9411469
1493781986343	-2.555252	-5.480423	0.8276062
1493781986343	-2.2673035	-3.8924255	1.064743
1493781986344	-3.2659302	-2.474533	1.79422
1493781986344	-3.195633	-1.7456665	2.4996033
1493781986344	-2.349823	-1.6815491	2.617157
1493781986344	-2.152649	-1.8513947	1.9657593
1493781986344	-1.1885681	-4.284485	-0.88253784
1493781986344	1.1763763	-10.033966	-6.2688904
1493781986344	3.941513	-18.935028	-17.76535
1493781986344	5.950165	-19.474823	-17.476746
1493781986344	2.3332062	-16.90947	-7.984848
1493781986344	0.15724182	-4.4369965	-4.483444
1493781986344	-3.9398804	-1.4151459	-3.3346558
1493781986344	-7.3109894	-12.024857	-0.06529236
1493781986344	-3.2688446	-16.128128	2.5063782
1493781986344	2.8074799	-13.417816	-0.68618774
1493781986344	1.9337158	-8.514374	8.1857605
1493781986344	-7.5568237	-5.11792	5.0964203
1493781986344	-5.071472	-6.4043274	4.974884
1493781986344	3.0242157	-10.464432	3.8246765
1493781986344	6.000717	-12.639511	4.429123
1493781986344	3.6785278	-12.55014	3.0326538
1493781986344	0.914032	-10.623352	1.2916718
1493781986344	-1.2989349	-9.493301	0.4853058
1493781986344	-2.5151672	-9.373749	0.11856079
1493781986344	-2.027542	-9.424408	0.21388245
1493781986344	-0.9640808	-9.050446	-0.11383057
1493781986345	0.003250122	-8.541901	-0.10397339
1493781986345	0.3022766	-8.318863	0.2938385
1493781986345	0.673584	-8.488129	0.5696411
1493781986345	0.7616577	-9.11203	0.80589294
1493781986345	0.5331726	-9.28891	1.145935
1493781986345	0.6818695	-9.272629	0.44667053
1493781986345	1.1535645	-9.4904175	-0.64208984
1493781986345	1.2089844	-10.482239	-1.4340668
1493781986345	0.20466614	-11.7005005	-1.8277893
1493781986345	0.3758545	-12.188416	-1.7280579
1493781986345	2.1055145	-12.37529	-0.90719604
1493781986345	2.7810059	-12.335388	-0.99861145
1493781986345	1.8244324	-12.491577	-3.068161
1493781986345	2.887436	-12.833374	-3.3817444
1493781986345	2.2679596	-14.508179	-3.4160767
1493781986345	1.6134949	-14.479431	-1.0478668
1493781986345	-1.3023071	-13.780258	0.6319275
1493781986345	-4.4183807	-13.360748	2.3343506
1493781986345	-5.8932037	-15.124664	4.0841064
1493781986345	-5.838196	-16.632889	3.0044708
1493781986345	-4.0131226	-16.562119	-0.55470276
1493781986345	0.99264526	-15.502899	-1.4962921
1493781986345	2.5533905	-12.745804	-1.5550232
1493781986345	0.97998047	-9.48381	0.73735046
1493781986345	-0.35768127	-6.7955627	3.3117676
1493781986345	-1.723175	-5.654419	3.6784515
1493781986346	-2.9814148	-4.4480896	2.4901428
1493781986346	-4.0620117	-3.9705505	1.946579
1493781986346	-4.2304993	-3.8903503	0.9655762
1493781986346	-3.673355	-2.3952026	0.90345764
1493781986346	-2.1824188	-1.8866882	1.7148285
1493781986346	-1.1248474	-2.1103363	2.2281647
1493781986346	-0.97010803	-2.1387787	1.7913666
1493781986346	-0.93510437	-2.6283417	0.090667725
1493781986346	1.6088257	-6.6220703	-4.238434
1493781986346	2.6948242	-15.040665	-13.464081
1493781986346	1.5021057	-19.474823	-18.251556
1493781986346	-0.45495605	-18.803177	-11.37471
1493781986346	-1.1318817	-13.994766	-6.2140045
1493781986346	-3.6471252	-5.957077	-4.700882
1493781986346	-7.647339	-8.318237	-2.9665222
1493781986346	-4.879822	-10.878281	1.8346863
1493781986346	0.7410431	-13.992752	4.575882
1493781986346	4.7160645	-14.804459	-2.0189667
1493781986346	4.102417	-9.68837	3.6598816
1493781986346	-4.5168457	-3.0177155	6.18985
1493781986346	-4.9110107	-4.260391	4.166336
1493781986346	1.4361877	-10.750946	4.972763
1493781986346	4.0568695	-13.759537	3.7884216
1493781986346	2.0472412	-12.7535095	2.7828064
1493781986346	-0.48277283	-11.187363	1.2487946
1493781986347	-1.5542297	-9.785706	-0.18119812
1493781986347	-1.5882263	-9.23645	-0.19772339
1493781986347	-1.0345917	-8.778183	0.40859985
1493781986347	0.013702393	-8.259674	1.0921783
1493781986347	0.7233734	-8.111374	1.2448883
1493781986347	0.7178955	-8.261276	1.333664
1493781986347	0.54130554	-8.520493	1.2532501
1493781986347	0.47879028	-8.775314	1.2855682
1493781986347	0.32582092	-8.999374	1.0024872
1493781986347	0.46002197	-9.263702	-0.10435486
1493781986347	1.7659607	-9.453003	-0.75032043
1493781986347	2.7299194	-10.146591	-0.54133606
1493781986347	1.671051	-11.145554	-0.11819458
1493781986347	0.2029419	-11.56366	-0.4272461
1493781986347	0.29380798	-11.628815	-0.81381226
1493781986347	0.46795654	-11.685425	-1.5345306
1493781986347	0.37535095	-12.403748	-3.094574
1493781986347	1.981842	-14.056808	-2.2515717
1493781986347	2.8494873	-15.514954	-2.4530487
1493781986347	2.3607025	-15.289185	-2.9723816
1493781986347	-0.4937744	-13.552109	0.4517975
1493781986347	-3.536255	-11.852768	3.3010712
1493781986347	-4.624542	-13.021164	4.5555267
1493781986347	-2.643692	-14.537689	2.7326508
1493781986347	-0.32632446	-15.932053	-0.43667603
1493781986347	1.178894	-15.351395	-0.83810425
1493781986348	2.7871094	-13.989014	1.1242828
1493781986348	2.5329437	-11.204834	1.0047455
1493781986348	0.46636963	-8.47612	2.5773773
1493781986348	-0.90812683	-6.8035126	3.7644653
1493781986348	-2.282318	-4.884506	3.4255981
1493781986348	-2.7093964	-4.275833	2.3209229
1493781986348	-3.2225494	-4.439499	1.7977905
1493781986348	-2.3266296	-4.056366	1.514679
1493781986348	-2.4467468	-3.0052185	2.5374146
1493781986349	-2.3523254	-1.8700409	2.772873
1493781986349	-2.1419525	-1.4259644	2.1202393
1493781986349	-0.6928406	-2.7332306	0.28018188
1493781986349	0.21078491	-7.274658	-3.1282806
1493781986349	-0.15519714	-16.26065	-13.652817
1493781986349	-0.14529419	-19.474823	-14.245483
1493781986349	0.18087769	-18.630234	-9.256027
1493781986349	-1.7955322	-13.39653	-4.2805176
1493781986349	-2.4131775	-4.6749268	-2.016571
1493781986349	-3.922226	-1.11409	-4.274124
1493781986349	-6.5687103	-8.788773	-6.5170593
1493781986349	-2.2884064	-17.01828	-0.81689453
1493781986350	4.4306335	-17.098663	4.313843
1493781986350	2.8475037	-9.724426	5.195572
1493781986350	-5.128479	-3.1244354	6.183548
1493781986350	-3.565216	-4.3844147	4.3660583
1493781986350	2.5733643	-10.547653	6.0447845
1493781986350	3.841446	-14.006088	3.757904
1493781986350	2.39563	-14.101868	2.2024841
1493781986350	0.6933899	-12.245773	0.6480408
1493781986350	-0.83187866	-10.765793	-0.050445557
1493781986350	-2.3724976	-9.746918	-0.75819397
1493781986350	-1.9822693	-9.255875	-0.19364929
1493781986350	-0.55670166	-8.6683655	-0.1882782
1493781986351	0.73687744	-8.194214	-0.17437744
1493781986351	0.7789917	-8.15538	-0.059188843
1493781986351	0.2367096	-8.178146	-0.036880493
1493781986351	0.0068359375	-8.375885	-0.18319702
1493781986351	0.6053467	-8.624542	0.024597168
1493781986351	1.4796295	-8.661453	1.7075806
1493781986351	1.0941925	-8.763687	1.4672699
1493781986351	0.87890625	-8.808609	-0.015808105
1493781986351	0.8613739	-9.070984	-0.5771179
1493781986353	-0.29133606	-10.112091	-0.7886963
1493781986353	-1.262497	-11.288147	-1.3572998
1493781986354	0.5117035	-11.869629	-1.1439056
1493781986354	3.4453278	-12.32132	-0.9444275
1493781986354	4.23349	-12.362595	-2.8911896
1493781986354	4.3172913	-12.808441	-4.211746
1493781986354	4.6647644	-13.246689	-3.0101776
1493781986354	2.9712524	-15.818466	-4.7710876
1493781986354	1.6408539	-15.333786	-2.9294586
1493781986354	-2.4252167	-13.437622	0.3522339
1493781986355	-4.9167786	-14.39209	1.7909546
1493781986355	-3.9945526	-17.904663	4.2930603
1493781986355	-3.4677734	-19.317566	3.916092
1493781986355	-2.8509827	-19.002518	-0.5437622
1493781986355	1.4790344	-17.117111	-0.5620575
1493781986355	-0.77589417	-13.225555	0.07395935
1493781986355	-0.061447144	-11.591873	0.6725464
1493781986355	-2.9488068	-7.7639923	1.4396973
1493781986355	-5.94223	-4.42511	1.9174805
1493781986355	-5.4397583	-3.846695	0.70288086
1493781986355	-3.9990845	-4.170288	1.3262634
1493781986355	-1.2404175	-4.1627197	1.9021301
1493781986356	-1.2514648	-2.323288	1.9317474
1493781986356	-1.5932312	-1.596283	2.018814
1493781986356	-2.477417	-1.3256073	1.1989288
1493781986356	-2.413269	-1.4030609	-0.21200562
1493781986357	-1.8556519	-1.8765869	-1.4948883
1493781986357	-0.10292053	-2.2043304	-3.1818848
1493781986357	2.390854	-4.334839	-5.623001
1493781986357	3.7780151	-7.1560974	-7.233017
1493781986357	2.1174927	-12.905853	-9.68103
1493781986357	0.14759827	-18.152847	-9.689758
1493781986357	0.35342407	-18.737473	-9.089127
1493781986357	-1.3746033	-14.584061	-7.927841
1493781986357	-5.832138	-12.36525	-5.730728
1493781986357	-10.576172	-16.48053	0.18411255
1493781986357	-6.4836273	-15.600845	2.5761719
1493781986357	1.0759735	-12.278198	0.88275146
1493781986358	1.2232666	-9.091232	-0.8083801
1493781986358	1.9460602	-7.609909	1.3095856
1493781986358	4.056534	-6.4568787	6.837021
1493781986358	3.3282623	-7.8370056	6.827652
1493781986358	1.2813873	-9.812408	4.251175
1493781986358	-0.8266449	-10.672195	2.9801483
1493781986358	-1.090683	-10.804855	1.6712036
1493781986358	-1.1843414	-10.813126	0.8874359
1493781986358	-2.3576965	-10.3824005	0.36190796
1493781986358	-1.4822083	-9.806656	0.6215515
1493781986359	0.76594543	-9.807129	1.2370911
1493781986359	1.2371368	-9.162949	1.2857819
1493781986359	1.0374756	-8.208389	1.6039276
1493781986359	0.46499634	-7.838272	1.2616119
1493781986359	0.19966125	-7.6046295	0.5422058
1493781986359	-0.021270752	-7.5979767	0.27726746
1493781986359	-0.5061188	-8.147629	-0.19741821
1493781986359	-0.4587555	-8.44693	0.7653198
1493781986359	0.29125977	-9.151459	1.3945313
1493781986359	1.3783569	-9.849548	0.73036194
1493781986359	1.7509155	-10.69014	-0.39930725
1493781986359	1.186264	-11.563339	-1.2064972
1493781986360	1.6717377	-11.93837	-0.7341156
1493781986360	2.5205688	-12.210037	-1.1354218
1493781986360	2.0074463	-12.32283	-3.2818909
1493781986360	2.3740387	-13.473297	-3.3548584
1493781986360	1.7880402	-15.196991	-2.865921
1493781986360	0.0074310303	-15.838821	-2.7967377
1493781986360	-4.0727386	-14.295593	-1.108429
1493781986360	-5.846527	-12.446472	0.25730896
1493781986360	-6.1859894	-14.081055	4.1719513
1493781986360	-4.882248	-15.62767	5.211014
1493781986360	-0.9664917	-16.847366	-0.0975647
1493781986360	0.568573	-15.750748	-2.2555847
1493781986361	2.342453	-13.182632	-1.5349274
1493781986361	0.898468	-10.43718	0.22947693
1493781986361	-1.8464966	-8.39679	2.3075714
1493781986361	-3.6097107	-6.9177094	3.4057617
1493781986361	-3.2256165	-6.744812	2.3704224
1493781986361	-2.8923798	-4.6501617	2.209488
1493781986361	-3.0046997	-3.1950226	2.1705322
1493781986361	-1.9155121	-2.7198944	1.6100769
1493781986361	-2.1242828	-1.8299866	2.1436005
1493781986361	-1.7391968	-1.4212494	2.3936462
1493781986361	-1.0395508	-1.9651642	1.036438
1493781986361	-0.46305847	-2.828125	-0.38513184
1493781986362	0.7761841	-6.0648193	-4.6961365
1493781986362	1.9323578	-14.298462	-14.511337
1493781986362	-0.22373962	-19.474823	-16.891815
1493781986362	0.4679718	-18.137177	-11.477264
1493781986362	0.049606323	-9.853546	-4.8394165
1493781986362	-3.4208527	-5.4381714	-2.2357483
1493781986362	-8.148743	-13.520981	-3.28479
1493781986362	-3.74646	-15.662552	0.60849
1493781986362	4.189499	-10.894714	3.1099854
1493781986362	1.8696594	-5.8788757	3.9740143
1493781986362	-3.920639	-4.104233	4.9414673
1493781986363	-3.6962433	-8.567841	5.579941
1493781986363	1.598114	-12.889999	4.1668396
1493781986363	3.633728	-12.76268	3.1891022
1493781986363	2.4260406	-11.567276	2.7736359
1493781986363	0.6268921	-11.016846	1.8894653
1493781986363	-1.1124115	-10.147827	1.0183868
1493781986363	-2.4467773	-9.138657	0.37019348
1493781986363	-2.3454742	-9.030609	0.56292725
1493781986363	-1.2073822	-9.427841	0.473526
1493781986363	0.116760254	-9.004013	0.21324158
1493781986363	0.5954132	-8.604492	0.07876587
1493781986363	0.6449127	-8.688324	0.28196716
1493781986363	1.0513153	-8.944351	0.6127014
1493781986364	1.5930481	-9.048508	0.9478302
1493781986364	1.6908264	-9.297699	0.97772217
1493781986364	1.1485138	-9.275131	-0.16007996
1493781986364	0.35983276	-8.829102	-1.47052
1493781986364	-0.7403412	-9.346832	-0.55529785
1493781986364	-1.9008789	-10.454926	0.21865845
1493781986364	-1.5101471	-10.983276	-0.7722473
1493781986364	0.25071716	-11.063934	-1.3139648
1493781986364	1.4061127	-10.800446	-1.7467957
1493781986364	1.9935455	-10.8125305	-1.5265045
1493781986364	3.2668762	-12.1163025	-0.9983368
1493781986365	2.574051	-13.750702	-0.67352295
1493781986365	1.3414001	-14.373352	-0.26350403
1493781986365	-1.1363525	-14.093826	-1.6118774
1493781986365	-3.0727844	-12.74202	0.10417175
1493781986365	-5.5448456	-12.076263	2.5275116
1493781986365	-6.3843994	-11.533127	3.9721375
1493781986365	-4.964508	-11.781555	3.0235748
1493781986365	-2.1004486	-11.862259	1.3807678
1493781986365	0.069503784	-11.342178	0.24229431
1493781986365	0.08029175	-10.801834	-0.1401825
1493781986365	-0.52783203	-9.906311	0.57676697
1493781986366	-2.9391174	-8.4999695	1.4338074
1493781986366	-3.5821075	-7.859619	0.8778839
1493781986366	-3.5816803	-8.009186	0.5682678
1493781986366	-3.4033966	-8.716873	0.6937866
1493781986366	-1.9186401	-7.814316	1.1149292
1493781986366	-1.3222351	-7.5690765	0.59124756
1493781986366	-1.7323303	-6.522934	0.8246155
1493781986366	-2.00589	-5.999405	0.31401062
1493781986366	-0.84254456	-7.019699	-1.0884247
1493781986366	0.74812317	-8.560196	-2.1921844
1493781986366	1.1706848	-9.785751	-2.9250488
1493781986366	0.6970062	-10.10025	-3.0475159
1493781986366	0.15423584	-10.012527	-3.2555237
1493781986367	-0.5214081	-10.487747	-3.07016
1493781986367	-1.5043793	-10.240402	-2.7044373
1493781986367	-1.6145935	-10.014465	-2.4584656
1493781986367	-1.7034607	-8.687149	-1.4060211
1493781986367	-2.5811615	-8.32164	-0.75479126
1493781986367	-3.732315	-7.372772	0.60849
1493781986367	-3.7972412	-7.4968567	2.2251587
1493781986367	-2.6619568	-9.709351	3.1956482
1493781986367	-2.282364	-10.709946	4.995407
1493781986367	-2.087677	-10.453537	5.3076935
1493781986367	-2.8194275	-10.2556305	2.781952
1493781986367	-3.0253906	-11.649094	-0.44366455
1493781986368	-1.6707001	-11.5345	-1.4051514
1493781986368	0.21459961	-11.115906	-1.031662
1493781986368	1.4115448	-10.262665	0.26391602
1493781986368	0.6971741	-9.274933	2.952423
1493781986368	-0.24995422	-10.302399	3.0175629
1493781986368	-0.37649536	-10.210449	1.1846466
1493781986368	0.5744171	-7.917572	-0.40797424
1493781986368	1.344574	-7.7163544	-0.76904297
1493781986368	0.45913696	-10.656982	0.4665985
1493781986368	-1.0874939	-12.957108	1.6087494
1493781986369	-2.7234192	-11.195938	1.6100464
1493781986369	-3.654541	-8.32373	0.006164551
1493781986369	-0.9718933	-6.442688	-0.106292725
1493781986369	0.37017822	-7.837494	1.5962524
1493781986369	-1.9058838	-11.556488	2.8049316
1493781986369	-1.2455292	-13.730255	2.0291443
1493781986369	-0.7046356	-14.905685	1.8540344
1493781986369	-3.062622	-15.809952	1.672348
1493781986369	-2.921646	-17.147705	3.3116913
1493781986369	-3.7151337	-17.195557	3.9335022
1493781986369	-4.7951202	-17.06308	3.2821655
1493781986369	-3.9596863	-15.768951	3.5333252
1493781986370	-7.1099396	-17.720337	-1.3148193
1493781986370	-3.5670776	-5.4222717	-0.45573425
1493781986370	8.011063	-0.8597717	8.932388
1493781986370	3.4543457	-15.527725	7.7688293
1493781986370	0.8947449	-13.994385	-2.4945984
1493781986370	-2.298355	-13.725281	-9.697571
1493781986370	-2.5490417	-13.749207	-1.5831604
1493781986370	-0.098846436	-13.667252	-3.6167297
1493781986370	6.930008	-8.606277	5.572174
1493781986370	9.007126	-5.147629	0.19621277
1493781986370	9.131256	-3.3428955	1.4992676
1493781986370	10.207626	-1.0905304	12.50148
1493781986371	7.574051	-3.745041	15.437866
1493781986371	3.3427887	-8.271545	13.900848
1493781986371	-0.70347595	-11.12262	9.303314
1493781986371	-4.736862	-12.391754	7.4071045
1493781986371	-5.2381897	-11.764084	8.18129
1493781986371	-3.5258331	-10.463501	5.7628174
1493781986371	-2.096756	-11.077179	2.9645996
1493781986371	-2.5255127	-11.591751	2.7524414
1493781986371	-3.879776	-10.949051	3.8175201
1493781986371	-3.287323	-6.80278	5.068268
1493781986371	-3.4275513	-6.0660095	5.428482
1493781986371	-2.6458435	-1.8813019	2.5665894
1493781986372	-1.4876251	1.5597382	2.2565918
1493781986372	1.7716827	1.9806519	3.471344
1493781986372	11.302704	3.2605743	9.161453
1493781986372	-4.7476044	-1.2901459	11.378143
1493781986372	-4.522476	-0.41459656	13.952042
1493781986372	0.9980316	1.3093567	8.834579
1493781986372	0.3140869	0.08807373	9.515915
1493781986372	0.461792	-0.83750916	10.220337
1493781986372	2.7295837	0.08015442	10.053314
1493781986372	3.314682	0.17617798	9.752838
1493781986372	0.45074463	0.75442505	9.8997345
1493781986372	-3.262436	2.3425293	8.735321
1493781986373	-0.51994324	3.0166168	9.402863
1493781986373	1.4587097	2.3352203	10.950241
1493781986373	2.8681335	1.6585541	11.242157
1493781986373	2.139923	1.6747284	10.1375885
1493781986373	2.7638092	1.3535919	9.6588745
1493781986373	2.3356934	1.5130463	8.941177
1493781986373	-0.06965637	2.3263702	7.203842
1493781986373	-0.66230774	2.8368683	7.5319214
1493781986373	-0.19848633	2.7554321	9.1011505
1493781986373	0.9653168	2.6792755	10.402145
1493781986373	1.8028259	2.8964233	10.243912
1493781986373	1.504776	2.680069	9.248459
1493781986374	1.305542	2.7158508	8.606888
1493781986374	1.6763611	2.703476	8.46843
1493781986374	2.3007507	2.8197632	9.594009
1493781986374	2.4863434	3.3194275	10.865829
1493781986374	1.7098846	3.345169	10.503082
1493781986374	-1.3583984	2.9475708	8.522202
1493781986374	-1.2277222	3.146347	8.618866
1493781986374	0.55851746	3.3728333	10.393463
1493781986374	1.3811493	3.0496826	11.962555
1493781986374	1.2736053	3.21109	10.953339
1493781986374	0.12521362	3.1460266	9.235886
1493781986374	-0.0980072	2.984253	7.1116943
1493781986375	1.3008118	2.6970215	6.806778
1493781986375	0.7592468	3.687317	8.122253
1493781986375	-4.9629974	3.372467	8.531113
1493781986375	-3.1223297	5.237808	9.329208
1493781986376	1.5460815	3.570694	8.934219
1493781986381	1.5633698	4.318863	8.509735
1493781986400	0.43208313	3.8082275	8.554169
1493781986420	0.28649902	3.843689	7.869232
1493781986440	0.22653198	4.2589874	10.952652
1493781986459	-0.027618408	4.1052704	10.054153
1493781986499	0.13328552	4.4502716	9.338654
1493781986519	-0.3315735	3.9241333	8.744064
1493781986539	-0.59020996	3.8561554	8.870026
1493781986559	-0.38882446	3.5754547	8.967957
1493781986578	-0.40644836	3.8679657	9.564438
1493781986597	0.16641235	4.4085236	10.196091
1493781986619	0.5290222	4.348358	11.487457
1493781986637	1.2502441	4.4218445	9.996155
1493781986657	1.1006012	5.2690277	6.7463837
1493781986678	-0.33573914	6.0348816	5.987625
1493781986697	0.31365967	5.4865723	7.778961
1493781986717	-0.17521667	4.02684	8.232666
1493781986737	-1.0136871	2.9596405	7.3028107
1493781986757	-1.692337	2.2907562	8.168015
1493781986776	-3.23201	1.5127411	9.401733
1493781986795	-3.5745392	1.6379089	10.013901
1493781986816	-0.72540283	3.5523376	9.669174
1493781986836	0.51434326	4.314026	10.895523
1493781986856	0.018066406	3.4248962	10.644379
1493781986875	-1.2540131	2.7350616	7.9571686
1493781986895	-1.7270355	3.1821136	7.265518
1493781986916	-1.5609589	3.308609	7.9461365
1493781986935	-1.239914	3.122635	8.442734
1493781986954	-1.0675354	3.1398926	8.685059
1493781986975	-1.0676117	3.3690338	8.908417
1493781986995	-1.1508179	3.5805664	8.743027
1493781987014	-1.2044067	3.475006	8.664978
1493781987035	-1.3917999	3.0749664	8.800735
1493781987060	-1.7953186	2.7576752	9.089401
1493781987074	-1.9598999	2.8385773	9.575012
1493781987105	-1.846695	3.0256958	9.54332
1493781987114	-1.5308685	3.2151642	9.088745
1493781987133	-1.4304657	3.282608	8.687225
1493781987154	-1.7302704	3.0089874	8.801514
1493781987172	-1.9184265	2.6839752	8.936188
1493781987192	-1.7038574	2.799942	9.07724
1493781987212	-1.1589661	3.1554565	9.366821
1493781987232	-0.84846497	3.1085205	9.278549
1493781987251	-1.4324646	2.607132	9.255997
1493781987271	-1.9749451	2.0804443	10.074295
1493781987291	-2.1846008	1.9911194	10.352936
1493781987311	-1.9601898	2.5212097	9.411789
1493781987331	-1.6844788	2.4942017	8.443588
1493781987350	-1.6510315	2.4210052	8.474014
1493781987370	-1.4618988	2.40625	9.657761
1493781987390	-1.5305634	2.6685638	10.566757
1493781987410	-1.7137451	2.6333313	10.708084
1493781987431	-1.820343	2.280899	10.433151
1493781987450	-1.876831	2.1002808	9.938065
1493781987469	-1.7002106	2.266449	9.8806
1493781987490	-1.2923279	2.6873627	9.746521
1493781987510	-1.0337982	2.9436646	9.830582
1493781987529	-0.9875183	2.9893494	10.269257
1493781987550	-1.2113037	2.6388397	10.140701
1493781987569	-1.2268982	2.6315155	9.974762
1493781987589	-1.0180817	2.6866455	9.278885
1493781987610	-0.799942	3.0032196	9.528046
1493781987629	-0.77671814	3.2009125	10.587982
1493781987668	-0.8715515	2.910263	10.836838
1493781987689	-0.8686371	2.7045898	9.3524475
1493781987707	-0.62138367	2.8327484	8.798279
1493781987727	-0.5482178	2.9572296	9.022873
1493781987747	-0.7594452	3.0211792	8.915329
1493781987767	-0.6558075	3.0355988	9.221359
1493781987786	-0.44125366	3.0130615	9.196869
1493781987806	-0.37724304	3.115158	9.072998
1493781987825	-0.5610962	3.1436615	8.911758
1493781987845	-0.86109924	2.9704437	8.770782
1493781987865	-0.79312134	3.028885	8.496124
1493781987885	-0.4679718	3.3789215	8.589142
1493781987903	-0.0743103	3.6254272	8.562973
1493781987925	-0.2511902	3.5286713	8.536392
1493781987944	-0.61351013	3.3195953	8.842911
1493781987964	-0.50076294	3.4875183	9.268127
1493781987984	-0.10142517	3.8470154	9.23114
1493781988002	-0.067352295	3.8846893	9.026306
1493781988023	-0.3387146	3.5787048	9.195053
1493781988043	-0.6676636	3.411377	9.087143
1493781988072	-0.47512817	3.5366058	9.17189
1493781988083	-0.14068604	3.8617554	9.43721
1493781988103	-0.37983704	3.7333374	9.604294
1493781988124	-0.7181244	3.3753357	9.764267
1493781988143	-0.86605835	3.173355	9.458878
1493781988162	-0.7799988	3.293991	9.2686
1493781988182	-0.69563293	3.4604034	9.305206
1493781988201	-0.68714905	3.5113525	9.122589
1493781988222	-0.57440186	3.606659	8.995438
1493781988241	-0.39839172	3.8009338	8.9565735
1493781988261	-0.3087921	3.8197021	9.066498
1493781988281	-0.39344788	3.6502228	9.206802
1493781988301	-0.4647522	3.5522919	9.419144
1493781988322	-0.3815918	3.5411377	9.433746
1493781988342	-0.332901	3.5489044	9.2356415
1493781988360	-0.4093933	3.5123138	9.156967
1493781988380	-0.52267456	3.5006104	9.191406
1493781988401	-0.49153137	3.5008392	9.146881
1493781988419	-0.46368408	3.4131012	8.859329
1493781988440	-0.42803955	3.4296112	8.747528
1493781988460	-0.21812439	3.6435547	8.746796
1493781988480	-0.1902008	3.8004303	8.704407
1493781988499	-0.38601685	3.873352	8.815094
1493781988519	-0.43650818	3.7568054	9.132233
1493781988539	-0.45933533	3.6699219	9.215485
1493781988558	-0.38945007	3.6859283	9.167511
1493781988579	-0.4072876	3.7579956	9.005417
1493781988598	-0.48962402	3.7093506	8.881088
1493781988618	-0.53926086	3.6290436	8.937622
1493781988639	-0.5312195	3.5766754	8.774887
1493781988657	-0.46861267	3.6554108	8.773926
1493781988677	-0.5093231	3.6926727	8.796524
1493781988697	-0.5745239	3.7128754	8.787888
1493781988716	-0.4875641	3.7526093	8.840164
1493781988736	-0.4765625	3.7324677	8.866592
1493781988756	-0.48313904	3.7065277	8.978485
1493781988776	-0.59161377	3.71698	8.956085
1493781988816	-0.54577637	3.7127838	8.845474
1493781988835	-0.6092377	3.7809906	8.720749
1493781988855	-0.51782227	3.6981812	8.871704
1493781988875	-0.49557495	3.7552185	9.06778
1493781988894	-0.6516571	3.7572327	8.951324
1493781988914	-0.59043884	3.7980042	8.910553
1493781988936	-0.5123749	3.8676758	8.853729
1493781988954	-0.4449768	3.8884277	8.913727
1493781988974	-0.3372345	3.9299927	8.918594
1493781988994	-0.1975708	4.071045	9.043716
1493781989013	-0.28034973	4.0858307	9.100098
1493781989033	-0.56033325	3.9069672	8.83519
1493781989053	-0.71025085	3.8623352	8.972229
1493781989073	-0.5160675	4.0352936	9.3997345
1493781989092	-0.10394287	4.063568	9.561127
1493781989111	-0.021148682	3.967453	9.416916
1493781989133	0.006591797	3.87529	9.333694
1493781989152	0.0927124	3.8873901	9.367111
1493781989172	0.30645752	3.874649	9.53891
1493781989192	0.3808136	3.774826	9.424255
1493781989211	0.27142334	3.6110687	9.108444
1493781989232	0.2759552	3.4908752	9.033798
1493781989251	0.33920288	3.4149933	9.220917
1493781989271	0.35620117	3.3277435	9.296921
1493781989291	0.31835938	3.1555939	8.9944
1493781989312	0.12173462	2.9240417	8.536148
1493781989330	-0.3584137	2.46698	8.097244
1493781989350	-1.3777618	1.9070587	7.721573
1493781989369	-2.4682312	1.5430603	7.6457367
1493781989389	-3.0895996	1.3644409	7.981842
1493781989409	-2.902359	1.556778	8.663406
1493781989429	-1.8917999	2.0822296	9.819321
1493781989449	-0.86302185	2.5700073	10.65448
1493781989469	0.05595398	3.147934	10.608704
1493781989489	0.7647705	3.7059937	9.866898
1493781989508	0.99598694	3.8986664	9.482208
1493781989529	0.9299469	3.758255	9.544647
1493781989548	0.77664185	3.471405	9.1918335
1493781989568	0.41453552	3.1706238	8.632523
1493781989590	0.09970093	2.9302063	8.524704
1493781989607	-0.15785217	2.7885895	8.971756
1493781989627	-0.28077698	2.6250763	9.488327
1493781989647	-0.43302917	2.5797272	9.725067
1493781989667	-0.66004944	2.5246124	9.986191
1493781989687	-0.8184967	2.4521637	10.304871
1493781989707	-0.6611023	2.3071747	10.530136
1493781989726	-0.19911194	2.3120117	10.482391
1493781989746	0.35583496	2.5050507	10.116089
1493781989766	0.7285919	2.7372284	10.160126
1493781989787	0.72595215	2.7237244	10.114487
1493781989805	0.5259247	2.555725	9.523941
1493781989825	0.5558014	2.3601227	9.46167
1493781989845	0.57691956	2.301712	9.88916
1493781989865	0.34884644	2.1569824	9.869293
1493781989885	0.20840454	1.9665375	9.833893
1493781989904	0.13522339	1.9762878	9.709717
1493781989924	0.44473267	2.1622314	9.5789795
1493781989944	0.57366943	2.2868347	9.4272
1493781989983	0.7231293	2.3578033	9.363525
1493781990003	0.45187378	2.2205658	9.011444
1493781990023	0.26405334	2.1169586	8.661438
1493781990042	0.43203735	2.2492065	8.707565
1493781990062	0.954834	2.508545	8.122818
1493781990082	1.0506287	2.3577728	7.969467
1493781990102	0.4156189	1.9447784	9.032761
1493781990122	-0.20933533	1.5506287	10.454498
1493781990142	-0.68663025	1.5020905	10.879791
1493781990161	-0.37324524	1.5482483	10.951401
1493781990182	-0.11923218	1.5651703	10.746475
1493781990201	-0.10505676	1.5414124	10.310196
1493781990219	0.028808594	1.714386	10.171356
1493781990241	0.16766357	1.8341675	10.081314
1493781990260	0.24440002	1.9158325	10.225937
1493781990280	0.30992126	1.9536285	10.523651
1493781990300	0.20852661	1.9147949	10.535782
1493781990319	0.11268616	1.8509674	10.290466
1493781990339	0.03956604	1.8113708	9.682266
1493781990359	0.13743591	1.8212738	8.934616
1493781990379	0.2422638	1.9334869	8.4891205
1493781990399	0.37861633	2.0258331	8.141617
1493781990419	0.34024048	1.9096832	8.098312
1493781990438	0.09754944	1.4898224	8.652939
1493781990458	0.10499573	1.0558319	9.104492
1493781990478	0.30966187	0.91929626	9.509079
1493781990498	0.54089355	0.97473145	10.043518
1493781990517	0.80848694	1.1917572	10.417282
1493781990538	1.0314178	1.4329834	10.42598
1493781990557	1.067688	1.4361572	10.216827
1493781990577	1.051178	1.3698883	10.074142
1493781990597	1.0237427	1.36763	9.949844
1493781990616	0.9590149	1.4112244	9.851761
1493781990637	0.9133911	1.4964294	9.779541
1493781990656	1.0685577	1.635849	9.597031
1493781990676	1.2479095	1.6890564	9.507965
1493781990696	1.1893616	1.6880951	9.471817
1493781990716	1.029129	1.6851959	9.186508
1493781990735	0.9652252	1.4994965	8.722473
1493781990755	0.96139526	1.3111267	8.686203
1493781990775	0.88934326	1.1940002	9.140549
1493781990795	0.6255951	1.0549774	9.669266
1493781990814	0.26689148	0.70269775	9.827713
1493781990834	0.1728363	0.65353394	9.941101
1493781990854	0.54911804	0.945343	10.41243
1493781990874	1.0402832	1.3970337	10.370834
1493781990894	1.0639496	1.5718536	10.116028
1493781990913	0.923172	1.6414185	10.410736
1493781990933	0.8544769	1.5363617	10.329437
1493781990954	0.87376404	1.4971771	9.871002
1493781990972	0.9479675	1.5899658	9.761444
1493781990993	0.9977722	1.5637665	9.96904
1493781991013	0.9627075	1.5496368	10.054047
1493781991032	0.95224	1.4765015	10.03093
1493781991052	0.8575897	1.3643494	10.139648
1493781991071	0.93673706	1.239151	10.134369
1493781991092	1.1399231	1.2748718	10.005463
1493781991131	1.2937317	1.3841095	9.594376
1493781991151	1.3735657	1.3684845	9.242554
1493781991171	1.3886261	1.2726288	9.034668
1493781991191	1.2745667	1.184372	8.95192
1493781991210	1.1940155	1.1218262	8.894913
1493781991230	1.1481781	1.1460419	8.826553
1493781991250	1.0767059	1.1437836	9.017532
1493781991270	0.9343872	1.030014	9.657776
1493781991290	0.84020996	0.9798584	10.173416
1493781991310	0.85806274	0.8953247	10.218872
1493781991329	1.0945587	0.99620056	10.087677
1493781991349	1.2640228	1.1304932	10.000839
1493781991369	1.3155975	1.1928864	9.934158
1493781991388	1.3969269	1.2445526	10.02684
1493781991408	1.4881744	1.4409332	9.963516
1493781991427	1.6438293	1.6535339	9.836914
1493781991448	1.7571716	1.6821442	9.728256
1493781991468	1.6281433	1.5938416	9.573746
1493781991488	1.4025116	1.4802094	9.550354
1493781991508	1.1900024	1.2997742	9.363693
1493781991526	1.0230713	1.0513611	8.999023
1493781991547	1.0524292	0.99212646	8.541046
1493781991567	1.1481018	0.99087524	8.163361
1493781991587	1.3152618	0.7034149	8.366959
1493781991607	1.4463501	0.6489105	8.94722
1493781991628	1.5151978	0.63035583	10.164429
1493781991646	1.4406128	0.56562805	11.31311
1493781991666	1.4368896	0.664917	11.25531
1493781991685	1.7632446	0.9769287	10.28334
1493781991706	1.9947357	1.2975159	9.228989
1493781991725	1.9953918	1.4293518	8.665543
1493781991745	1.7355652	1.3448029	8.537933
1493781991765	1.3567352	1.241745	8.949371
1493781991785	1.1206055	1.12323	9.4767
1493781991804	1.0488129	0.96769714	9.794556
1493781991824	1.090744	0.91433716	10.157349
1493781991845	1.0971527	0.9681244	10.654037
1493781991863	1.0978088	0.9537201	10.831528
1493781991883	1.2234344	0.95822144	10.7426605
1493781991903	1.3522034	1.1169891	10.6558075
1493781991923	1.3662415	1.1426086	10.38533
1493781991943	1.3518219	1.143219	9.842545
1493781991964	1.537323	1.2504272	9.361282
1493781991982	1.8200836	1.4530334	9.393219
1493781992002	1.926651	1.6208496	9.979416
1493781992022	1.9373474	1.6082916	10.237595
1493781992042	2.1766205	1.5610199	10.005875
1493781992062	2.1304016	1.5735779	10.001587
1493781992081	2.1511688	1.5918274	10.041626
1493781992101	2.5311737	2.0507965	10.991455
1493781992121	2.5418396	2.2122498	11.664413
1493781992141	1.9862366	2.0745697	11.887741
1493781992161	1.37883	1.7393341	10.718842
1493781992182	1.0877533	1.8013458	9.757233
1493781992201	1.0862579	2.1181488	10.01123
1493781992220	1.2287903	2.2000885	10.410645
1493781992275	1.1348724	2.0462494	10.0336
1493781992279	1.0948029	1.7523499	9.659439
1493781992301	0.7317047	1.608429	9.138626
1493781992319	0.5326843	1.6994171	8.861252
1493781992339	0.34613037	2.0017242	8.347214
1493781992359	-0.032424927	2.0999298	8.298523
1493781992378	-0.29507446	1.8248749	8.782074
1493781992398	-0.58047485	1.6243134	8.933945
1493781992418	-0.7621155	1.714035	8.515915
1493781992438	-0.9651184	2.050064	8.378082
1493781992457	-1.0617371	2.3459015	9.039246
1493781992477	-1.048706	2.2027435	9.082001
1493781992498	-1.1857452	2.2925873	8.323761
1493781992520	-0.91674805	2.6674652	8.060608
1493781992536	-0.8235016	2.8581848	8.030167
1493781992558	-1.049881	3.070694	8.960739
1493781992576	-1.3220978	3.0977173	10.163406
1493781992597	-1.3371277	3.0815582	9.570862
1493781992617	-0.55914307	3.5029144	9.111694
1493781992635	0.30368042	3.9340973	8.961594
1493781992656	0.46524048	4.218048	8.956284
1493781992676	-0.20045471	4.1059875	9.126434
1493781992695	-1.1362152	3.5401459	9.144226
1493781992715	-1.6574249	3.0663452	9.202393
1493781992735	-1.740448	3.0083618	9.407089
1493781992755	-1.6394501	3.246994	9.4314575
1493781992774	-1.3818817	3.4571075	9.191086
1493781992794	-1.1685486	3.4332275	8.90387
1493781992814	-1.2499847	3.4510498	8.842972
1493781992833	-1.511383	3.6734772	9.01767
1493781992854	-1.627533	3.7266083	8.950485
1493781992873	-1.4578857	3.225235	8.773132
1493781992893	-0.93774414	3.1363373	9.161896
1493781992913	-0.3360443	3.8035583	9.756836
1493781992932	-0.23413086	4.50354	9.548462
1493781992952	-0.8816681	4.179245	9.1141205
1493781992972	-1.3922882	3.4481812	9.124664
1493781992992	-0.92181396	3.1605225	8.038269
1493781993012	-0.821228	4.3656616	7.5406494
1493781993031	-0.06776428	5.210449	9.543671
1493781993051	0.22052002	5.114456	10.653946
1493781993071	-0.9219055	4.006851	8.919174
1493781993091	-2.0698395	2.947342	7.0134583
