accelerometer_timestamp	accelerometer_x_data	accelerometer_y_data	accelerometer_z_data
1493792099487	-2.3821259	6.109207	7.325653
1493792099507	-2.3310852	5.7962494	7.5409546
1493792099527	-2.654068	5.4770966	7.405472
1493792099547	-2.5162354	5.654724	6.7697144
1493792099567	-2.4654388	5.732559	6.670929
1493792099586	-2.6054688	5.904175	6.3390045
1493792099606	-2.2879639	5.7847595	6.5625763
1493792099626	-2.1572418	5.498337	6.9333954
1493792099646	-2.0456543	5.174515	7.0356445
1493792099666	-1.5571747	5.4517365	6.9317017
1493792099685	-1.3688049	5.933426	6.70549
1493792099705	-1.5807648	5.27742	6.6304016
1493792099725	-1.7850952	5.166565	7.6244965
1493792099746	-0.45077515	4.020584	6.6183167
1493792099785	0.07827759	4.8964996	7.953903
1493792099804	0.0879364	5.076294	8.4375305
1493792099824	0.48501587	5.1158752	10.502167
1493792099845	0.11354065	3.4878082	10.9796295
1493792099864	-1.077713	1.5105133	11.318527
1493792099884	-1.6072693	2.469696	10.809174
1493792099904	-0.50387573	3.5632782	10.399277
1493792099924	1.482605	5.3771973	8.9206085
1493792099948	0.5400238	5.52092	4.7000732
1493792099963	-1.1968994	3.9397125	5.320282
1493792099983	-0.69436646	2.9475555	8.218613
1493792100005	0.77282715	4.401108	8.410736
1493792100023	1.0106506	4.8698883	8.093048
1493792100047	1.159317	4.8640594	7.9992065
1493792100063	1.1390839	4.3447113	7.4580994
1493792100081	0.96481323	3.856369	6.7950287
1493792100101	1.9787903	3.7823486	7.4714355
1493792100121	3.0003815	3.506363	8.173691
1493792100141	3.281662	3.3849792	9.184525
1493792100161	2.624771	3.280426	10.348618
1493792100180	2.5392914	3.01651	9.505569
1493792100200	3.3388214	3.5391388	8.753204
1493792100220	3.2742615	3.6425781	9.154999
1493792100240	2.6485748	3.0877838	8.845947
1493792100260	3.0708618	3.420929	9.575516
1493792100280	3.62854	4.1046906	9.307037
1493792100299	3.1749268	4.2189636	8.824417
1493792100319	2.73938	3.853531	9.4674835
1493792100339	2.6361847	3.6596832	10.549271
1493792100359	2.554123	3.5072174	11.020142
1493792100379	2.5477295	3.50737	10.554382
1493792100398	2.247818	3.5110168	10.112579
1493792100420	2.2691956	3.5105743	10.139984
1493792100438	2.4166718	3.5347748	10.244537
1493792100458	2.302475	3.520584	9.993454
1493792100478	2.0864105	3.4214935	9.202133
1493792100497	2.0049896	3.327423	8.393295
1493792100517	2.223587	3.3331604	8.207626
1493792100537	2.47435	3.3381653	8.737442
1493792100557	2.5361176	3.2745972	8.845154
1493792100577	2.5751495	3.157898	8.599243
1493792100597	2.182663	3.075821	8.228928
1493792100617	2.199936	2.9042358	7.5063324
1493792100637	2.4620972	2.8674622	6.4323883
1493792100656	2.352188	2.4198608	6.1154175
1493792100676	1.782135	1.5740967	6.1272125
1493792100696	0.50801086	0.26390076	5.6167297
1493792100716	0.07197571	-0.5674591	4.6829224
1493792100736	0.3608551	-1.1654968	3.1566315
1493792100756	1.1941681	-2.1502533	1.2259064
1493792100775	0.89959717	-3.176178	0.08215332
1493792100795	2.925064	-4.48468	0.6138153
1493792100815	5.371826	-4.5281525	0.48294067
1493792100835	7.541916	-4.0288086	0.35388184
1493792100855	7.688446	-5.7558746	3.1600494
1493792100874	7.4923706	-7.4341736	5.9087677
1493792100894	10.459412	-6.359558	4.8626556
1493792100914	13.120163	-6.5518036	4.405792
1493792100934	15.985962	-6.211334	2.617813
1493792100954	18.072052	-6.3545074	0.5218048
1493792100974	19.430786	-5.008011	-0.6029968
1493792100993	19.461044	-4.8909607	-1.9031372
1493792101033	19.461044	-4.49263	-4.339569
1493792101053	19.400467	-4.2251587	-5.4432526
1493792101073	16.904984	-4.3760376	-4.6569977
1493792101094	14.534195	-4.4297943	-3.7311249
1493792101112	13.061981	-4.40477	-2.6666107
1493792101132	12.377075	-4.305954	-0.64549255
1493792101152	12.048767	-4.1926117	0.5286102
1493792101172	11.632187	-3.9263306	0.11445618
1493792101191	10.447144	-3.8103485	-1.2042084
1493792101213	10.020157	-4.0676117	-0.5804291
1493792101231	10.123993	-3.6229706	1.2217407
1493792101251	8.100906	-4.001236	0.8509674
1493792101271	6.502014	-4.499634	1.0166168
1493792101291	5.58963	-5.0491943	1.5050812
1493792101311	5.8929596	-4.8041687	2.8140411
1493792101330	7.064926	-4.2387695	2.8739166
1493792101350	8.63118	-3.1673737	0.274292
1493792101370	7.516617	-2.8289185	-1.4164886
1493792101390	5.670822	-4.1681213	-2.7544708
1493792101409	5.372589	-4.538315	0.20899963
1493792101431	6.180023	-2.7940063	1.3978729
1493792101449	5.7145233	-2.6754608	1.7761688
1493792101469	6.323517	-2.243805	0.7245331
1493792101489	6.7691345	-2.3924255	-0.6407623
1493792101509	6.3848877	-3.5516815	-0.52879333
1493792101528	6.3197784	-4.3239746	0.52334595
1493792101548	7.0594635	-4.918625	0.68289185
1493792101569	8.111252	-5.3030853	0.56987
1493792101591	8.1362	-5.9617157	0.47035217
1493792101608	8.946472	-6.332779	0.84757996
1493792101628	10.44281	-6.911072	2.6981506
1493792101648	9.094818	-7.7108917	2.539032
1493792101667	7.331482	-7.9075623	0.98464966
1493792101687	7.0001984	-7.957016	1.085495
1493792101707	7.2581024	-7.746628	0.80552673
1493792101727	7.3282013	-7.487747	0.8143616
1493792101746	6.755951	-7.42276	0.7670288
1493792101766	6.3278046	-7.4232483	1.2111206
1493792101786	6.1924896	-7.2746735	1.6066742
1493792101806	6.429947	-7.1200867	1.5729675
1493792101826	6.233551	-7.292633	1.2723541
1493792101846	5.948517	-7.3967743	0.5698395
1493792101866	5.1763763	-7.682785	0.64797974
1493792101885	5.414795	-7.406021	0.92048645
1493792101905	6.481064	-6.8763123	1.4707642
1493792101925	6.7275543	-7.0893097	1.4342194
1493792101945	6.2769165	-7.7323914	1.1699371
1493792101965	5.7362976	-8.146774	0.8214264
1493792101985	5.848007	-8.009811	0.8383026
1493792102004	5.7088776	-7.684952	0.42370605
1493792102024	5.6792145	-8.052963	0.71047974
1493792102044	5.1512756	-7.7751007	1.723526
1493792102064	7.364212	-7.1482697	2.1075745
1493792102083	7.7194214	-7.547226	1.8756256
1493792102103	6.4614716	-8.164505	1.5861053
1493792102123	5.635849	-7.916855	1.22612
1493792102143	5.9387054	-7.342819	1.9976654
1493792102163	7.104248	-7.761734	0.74269104
1493792102183	7.42717	-6.5152283	1.7650604
1493792102203	7.516403	-6.75177	1.001358
1493792102222	8.70015	-6.7496796	1.3329163
1493792102242	6.6150513	-8.149658	0.46662903
1493792102282	7.714752	-7.188385	1.7653351
1493792102301	7.051346	-7.27092	1.6226349
1493792102321	5.8630524	-6.827194	1.9585114
1493792102341	4.347702	-6.5241394	0.9512787
1493792102361	5.3431854	-5.391342	1.9802399
1493792102380	-3.3488007	-6.0928497	-0.48338318
1493792102400	11.302994	-3.641327	5.457016
1493792102420	12.507126	-3.9872437	7.8797455
1493792102440	9.367493	-5.3411865	2.793167
1493792102460	7.303131	-5.680374	2.2311096
1493792102480	6.7190247	-5.039551	2.5961914
1493792102499	6.280136	-4.855789	4.0960693
1493792102520	6.3599854	-4.5611115	4.5792694
1493792102539	7.077362	-4.3502045	4.631897
1493792102559	7.3746033	-4.3656616	5.419693
1493792102579	7.143158	-4.561081	4.6361694
1493792102599	7.5704956	-5.1538696	4.225067
1493792102619	8.310837	-5.469803	3.7018433
1493792102639	9.092468	-5.5921173	3.7829285
1493792102659	8.787155	-5.1651	3.0942078
1493792102679	7.693939	-5.4376984	2.5386353
1493792102698	7.0482483	-5.8216248	2.334015
1493792102718	6.710083	-5.514435	2.2112732
1493792102738	5.912033	-5.6559753	2.0477753
1493792102758	5.2365417	-5.280884	1.5684814
1493792102777	5.0057526	-5.3715973	1.4167175
1493792102797	4.300659	-7.366379	1.5890808
1493792102816	5.0646973	-8.742783	1.125351
1493792102837	6.641205	-8.605148	0.37294006
1493792102857	7.1723175	-7.893753	1.1614227
1493792102877	7.1522064	-7.4303436	1.593811
1493792102896	6.5476685	-6.7477875	1.3761139
1493792102916	6.53006	-6.761734	2.1078339
1493792102936	6.826248	-7.9095154	1.8523407
1493792102956	6.8186035	-9.021744	1.2520142
1493792102976	5.879257	-9.682404	0.8423462
1493792102995	4.767624	-10.431808	0.48280334
1493792103015	4.7180786	-10.142929	0.5349579
1493792103035	4.324188	-9.259903	0.683609
1493792103055	3.4043121	-9.946411	1.0180511
1493792103075	1.8059692	-12.015976	1.7696991
1493792103094	1.474762	-12.808899	1.9736633
1493792103114	5.561447	-8.56604	1.0791321
1493792103134	15.425476	-2.0238037	5.829132
1493792103154	11.496384	-3.0424042	3.9131317
1493792103174	6.2352448	-6.154648	2.011444
1493792103194	5.2074585	-7.0409393	0.57455444
1493792103213	5.7754974	-6.9277954	-0.7140503
1493792103233	5.6543884	-6.1658173	0.33132935
1493792103253	4.9537506	-4.70842	1.5984344
1493792103273	6.587967	-2.8551025	-2.3585815
1493792103293	-0.9224396	-9.949326	2.6950989
1493792103313	2.0268555	-10.49324	2.4113007
1493792103333	1.8080139	-15.635452	-0.46157837
1493792103352	3.087082	-14.014999	1.0652771
1493792103373	5.7298737	-10.959579	1.2540741
1493792103392	5.156067	-7.885971	1.5847778
1493792103412	1.1154633	-9.007355	0.97665405
1493792103432	2.7641754	-7.721405	1.5014191
1493792103451	4.566391	-9.058502	1.3693085
1493792103471	3.3899078	-10.45517	-0.16304016
1493792103491	3.3065338	-8.321564	0.70170593
1493792103531	2.945404	-8.222427	1.7197266
1493792103551	2.813919	-8.474152	0.56159973
1493792103570	3.7672882	-8.313065	1.6212158
1493792103591	3.4619446	-9.796234	0.8531647
1493792103610	3.1452637	-8.905991	1.105423
1493792103631	2.8290863	-8.00798	1.3011932
1493792103651	2.5496063	-6.9346466	1.7275085
1493792103670	5.395294	-4.7334747	2.4559631
1493792103690	7.246689	9.333496	6.393814
1493792103710	1.8353577	-3.3140411	0.63760376
1493792103730	2.5438538	-7.1635437	1.8008118
1493792103749	2.4157257	-11.339737	1.0888062
1493792103769	2.6638641	-15.382828	1.5401917
1493792103789	2.8184052	-12.870712	-0.13710022
1493792103809	2.793747	-7.460373	-0.580307
1493792103828	1.6547241	-3.5141907	0.47869873
1493792103849	2.8858032	-8.660034	2.7532043
1493792103869	5.427994	-14.720276	1.205719
1493792103889	8.810852	-18.336441	-1.8609467
1493792103908	6.655792	-15.368835	0.36775208
1493792103927	2.7471008	-14.621368	-0.07992554
1493792103948	0.8409729	-12.393982	-1.3617401
1493792103968	0.9498596	-10.931992	-1.355011
1493792103988	1.5386505	-9.915283	-0.6233673
1493792104007	1.9318542	-9.80484	0.21354675
1493792104027	1.8388977	-9.783249	0.3334961
1493792104047	1.7471619	-10.190735	1.5210724
1493792104067	1.5199585	-10.526749	2.8792267
1493792104088	1.3148804	-10.358749	2.54393
1493792104106	1.3509064	-10.213669	1.2002563
1493792104125	1.3558655	-10.113312	-0.3692932
1493792104146	2.184906	-10.5312195	-0.6000824
1493792104166	3.8458405	-10.783417	-0.12294006
1493792104186	4.627289	-10.618973	-0.46583557
1493792104205	3.3957977	-10.501221	0.24700928
1493792104225	1.8390808	-9.581039	0.6981659
1493792104245	0.77970886	-8.646622	0.6281891
1493792104265	-0.0953064	-8.5911255	0.44644165
1493792104285	-0.24751282	-8.678894	0.838501
1493792104305	-0.30134583	-8.641708	0.97172546
1493792104324	-0.952301	-8.085159	0.5317993
1493792104344	-1.2992859	-7.730591	0.0022277832
1493792104364	-1.3308411	-8.169449	-0.63627625
1493792104384	-1.3323517	-8.358475	-1.2084808
1493792104404	-1.3301849	-8.562378	-1.8571777
1493792104423	-1.3309021	-8.420151	-2.644989
1493792104443	-1.4863892	-8.341049	-3.3029022
1493792104463	-1.5463104	-8.7443695	-4.4725037
1493792104483	-1.3217468	-9.396973	-5.504059
1493792104503	-1.0049896	-10.37291	-6.371872
1493792104522	-0.80126953	-10.857574	-7.156418
1493792104542	-0.861145	-10.613953	-7.3483276
1493792104562	-0.45483398	-8.634369	-6.556839
1493792104586	-1.3529663	-6.217987	-4.70813
1493792104602	-2.0526428	-5.0958405	-4.3395233
1493792104622	-3.6689758	-6.794174	-4.3549957
1493792104641	-6.0310974	-15.141312	-3.3804626
1493792104661	-5.792801	-19.165848	-4.5802765
1493792104682	-3.731491	-15.170853	-2.6035614
1493792104701	-1.2944641	-8.127121	0.48007202
1493792104721	-2.7461243	-4.326172	4.80159
1493792104741	-2.9159088	-4.960541	5.4437714
1493792104761	-1.3692627	-6.8921967	5.172104
1493792104800	1.3519287	-10.273102	4.2568665
1493792104820	4.5593414	-13.856628	1.1345978
1493792104839	5.4263916	-13.365997	-0.64746094
1493792104859	1.966095	-10.374252	0.41467285
1493792104879	-1.8010864	-9.229996	-0.17948914
1493792104899	-3.8217773	-8.425705	-0.102645874
1493792104919	-4.1744537	-8.605209	0.69537354
1493792104939	-0.27326965	-9.351837	1.2180481
1493792104959	0.48228455	-10.130585	0.8267212
1493792104978	0.68634033	-9.441269	0.5393677
1493792104999	1.2833557	-9.358261	1.4222565
1493792105018	1.1209869	-10.007416	0.7067566
1493792105037	2.029541	-10.064102	0.43159485
1493792105058	1.8077393	-9.954727	0.32322693
1493792105078	1.1056824	-9.710587	-0.077545166
1493792105098	0.3269806	-9.321243	-0.3119049
1493792105117	-0.43940735	-8.864258	-0.18988037
1493792105136	-0.8287811	-8.503372	0.17738342
1493792105157	-1.0836792	-8.7612915	0.7546997
1493792105177	-0.4447937	-9.417908	1.3048401
1493792105196	0.09390259	-9.907837	1.4671478
1493792105216	0.20822144	-10.459442	0.8524475
1493792105236	0.7227936	-10.970154	0.3811493
1493792105256	1.3682404	-11.197723	0.48753357
1493792105276	2.2660065	-11.283096	0.8095703
1493792105296	2.8583984	-11.402481	0.68800354
1493792105315	2.6430664	-12.010666	-0.15809631
1493792105335	2.2260895	-12.4040985	-1.2020874
1493792105355	2.9220123	-12.555328	-1.1022034
1493792105375	3.9888458	-12.160522	-0.99168396
1493792105395	4.392807	-11.612183	-1.6773834
1493792105414	4.230316	-11.641205	-1.9522705
1493792105434	2.1354218	-11.438705	-2.1182709
1493792105454	-0.8145752	-10.717102	-1.3961182
1493792105474	-2.6900482	-10.552063	-0.9862671
1493792105494	-4.059311	-11.927582	0.57014465
1493792105513	-5.0930023	-13.407257	2.676178
1493792105533	-4.819046	-12.959747	2.375702
1493792105553	-4.0911407	-12.119095	1.572937
1493792105573	-2.104477	-11.344421	-0.30618286
1493792105593	-0.13708496	-10.8797	-0.33950806
1493792105613	2.2621002	-11.556824	-1.07901
1493792105632	1.7958527	-11.236603	-0.12863159
1493792105653	-0.1038208	-9.583069	0.92962646
1493792105672	-1.5392761	-7.7212524	1.491745
1493792105692	-2.2884064	-6.642029	1.185852
1493792105712	-2.2260437	-5.861786	1.3764343
1493792105731	-2.666504	-5.530411	1.0030365
1493792105751	-2.9216766	-5.1131134	0.7932892
1493792105771	-3.0238037	-4.788498	0.4055786
1493792105791	-2.6866608	-4.5018616	-0.4669037
1493792105811	-2.1629944	-4.7589874	-1.3749695
1493792105831	-1.6135254	-5.3398438	-2.436737
1493792105850	-2.0773315	-6.897827	-4.7581177
1493792105870	-2.991272	-10.353302	-9.634445
1493792105890	-3.5244904	-12.6801605	-11.302185
1493792105910	-3.637619	-12.817154	-8.826126
1493792105930	-3.4875793	-10.872498	-6.510788
1493792105950	-2.793274	-9.125687	-4.823349
1493792105970	-3.863861	-7.276306	-4.575699
1493792105988	-6.2901	-7.262268	-5.755539
1493792106009	-8.819931	-13.77681	-6.18631
1493792106049	-6.529999	-16.830093	-2.5146332
1493792106068	-2.620758	-11.708313	-2.2779694
1493792106088	1.2918243	-6.7763367	4.3434143
1493792106109	-1.2119904	-6.551956	6.8183594
1493792106128	-1.7791138	-9.147705	4.4001923
1493792106147	1.9192963	-10.918503	4.3672485
1493792106168	4.2393494	-12.209824	2.1638641
1493792106188	2.6174011	-12.860367	-0.69252014
1493792106208	-0.21343994	-11.340683	-0.57081604
1493792106227	-1.9251862	-10.1571045	0.65901184
1493792106247	-2.5555725	-9.218979	0.3738098
1493792106267	-1.8687286	-8.400299	0.38362122
1493792106287	-1.5904846	-8.579437	0.26586914
1493792106307	-0.49243164	-9.211945	-0.29626465
1493792106326	1.0231018	-9.592178	-0.6515198
1493792106345	1.8750916	-9.983658	-0.8495178
1493792106366	2.1932526	-9.413055	-0.56617737
1493792106386	2.4861908	-9.273865	-0.67663574
1493792106406	2.2460938	-9.455841	-0.19496155
1493792106425	1.3431091	-9.570099	0.49066162
1493792106445	0.21821594	-9.712555	-0.11148071
1493792106465	-0.53759766	-9.533112	-0.2250824
1493792106485	-0.8179016	-9.717133	-0.112594604
1493792106505	-1.5264587	-9.947678	-0.47309875
1493792106525	-1.5932465	-9.9396515	-0.9351196
1493792106545	-0.392807	-10.1966095	-0.6611023
1493792106570	1.3212128	-10.466492	-0.3021698
1493792106584	2.7136078	-10.531769	-0.4997406
1493792106604	3.628296	-10.680954	-0.84617615
1493792106623	3.8271332	-10.843842	-1.0818024
1493792106642	3.10112	-10.799622	-2.1628723
1493792106663	2.2901917	-10.67569	-3.1563873
1493792106686	2.301773	-10.850372	-3.025406
1493792106708	3.262268	-11.11055	-2.236618
1493792106728	3.3922882	-11.655579	-0.839386
1493792106746	-0.3959961	-12.9249115	0.12919617
1493792106767	-6.176178	-14.593597	0.04890442
1493792106787	-9.407089	-16.487137	2.4000854
1493792106807	-8.993515	-16.708038	4.250534
1493792106825	-8.974716	-14.118378	1.6439667
1493792106846	-8.125458	-11.6545105	-1.4436188
1493792106863	-3.6889496	-10.436981	-2.2543335
1493792106886	0.17880249	-10.548187	-0.86213684
1493792106906	-1.9403839	-10.321793	-0.98965454
1493792106926	-5.029602	-8.060196	-0.48364258
1493792106945	-5.149521	-6.1287994	1.0420074
1493792106966	-4.0460205	-5.1016846	1.3671112
1493792106985	-2.5788574	-4.912201	1.3566284
1493792107002	-1.1392059	-5.889694	0.52427673
1493792107022	-3.1353455	-6.504532	-0.92718506
1493792107040	-1.2158508	-6.1839294	-1.5823822
1493792107063	-0.96739197	-4.7585754	-2.033844
1493792107081	-1.2926483	-4.4910126	-2.377716
1493792107098	-1.8364716	-4.7003784	-2.998886
1493792107119	-2.8004608	-5.672638	-4.469803
1493792107138	-4.1177673	-7.300659	-6.2492065
1493792107158	-5.9866333	-9.616531	-8.107819
1493792107178	-6.5908813	-10.795349	-8.023758
1493792107197	-6.528549	-10.350967	-6.505066
1493792107218	-5.999832	-9.671616	-5.2068024
1493792107237	-5.0486603	-9.447311	-4.311737
1493792107277	-5.2095795	-8.231979	-4.731125
1493792107296	-5.4832	-5.490555	-4.5160675
1493792107317	-5.487213	-4.173355	-4.4329376
1493792107337	-6.709427	-4.703293	-3.3073273
1493792107356	-8.437653	-8.819733	-1.3434143
1493792107376	-11.009674	-15.581146	-3.4810333
1493792107396	-9.643585	-17.572113	-6.36261
1493792107416	-1.8540497	-10.286942	-3.1735382
1493792107436	1.5261383	-4.9652557	7.1226044
1493792107456	-0.9090729	-6.158966	6.391754
1493792107475	0.8061218	-8.647263	5.280411
1493792107496	1.3051605	-11.752228	3.3822327
1493792107515	0.93699646	-13.520477	0.77742004
1493792107536	-0.25265503	-12.883118	-2.0166779
1493792107558	-0.94322205	-10.944931	-0.8861084
1493792107584	-2.493393	-9.295883	-0.62467957
1493792107602	-3.010437	-7.866089	0.2091217
1493792107617	-2.9761505	-7.1381073	0.34887695
1493792107636	-1.9681244	-7.8015594	-0.7084961
1493792107655	-0.85009766	-9.991959	-1.1510315
1493792107676	0.9891815	-10.699432	-0.84799194
1493792107695	1.1826019	-10.254898	-0.5486603
1493792107720	0.55107117	-10.07515	0.25231934
1493792107739	0.13446045	-10.054886	0.9848633
1493792107758	-0.2509613	-9.659225	0.9640045
1493792107779	-0.9563141	-9.465744	1.138382
1493792107799	-1.1237183	-9.29303	-0.16140747
1493792107818	-1.0023499	-9.115799	-1.0097198
1493792107838	-1.5767517	-9.319214	-0.5017853
1493792107856	-2.3451538	-9.64183	0.3267975
1493792107880	-2.8588562	-9.696014	0.5067749
1493792107898	-2.2068024	-9.959061	0.6287842
1493792107918	-0.7108917	-10.488571	0.43571472
1493792107940	0.31414795	-10.798721	0.3648224
1493792107956	0.59176636	-10.680664	0.8483124
1493792107977	0.34953308	-10.650681	1.0225677
1493792107997	-0.45698547	-11.012161	0.2980957
1493792108017	-1.1116333	-11.136368	-0.67567444
1493792108037	-0.49261475	-11.088745	-1.201889
1493792108056	0.7477722	-11.688324	-0.6477814
1493792108075	1.6116791	-12.363861	-0.8705292
1493792108112	2.3681793	-12.609039	-1.7154694
1493792108113	1.399704	-12.581207	-1.6103821
1493792108132	-2.6469116	-10.630173	-0.8454437
1493792108151	-5.586563	-9.786209	-0.6496124
1493792108171	-7.6009674	-11.720612	1.3427734
1493792108191	-9.893997	-13.741241	3.1372833
1493792108210	-8.264099	-13.403992	1.8406372
1493792108233	-6.0933075	-12.213516	-0.9838867
1493792108252	-3.4129791	-12.004837	-0.85639954
1493792108272	-2.6855469	-12.038376	-0.61387634
1493792108292	-0.1565857	-11.838303	1.3766785
1493792108311	-0.92248535	-10.794586	-0.36227417
1493792108334	-2.5386353	-8.757416	-0.40675354
1493792108353	-1.2059174	-7.4531097	0.8478241
1493792108373	-1.5390015	-6.3260193	1.4090729
1493792108393	-1.4777527	-5.224716	1.1328888
1493792108414	-1.2864532	-4.799713	1.4145508
1493792108433	-2.0750427	-4.2800903	1.7908173
1493792108452	-2.6439514	-4.168915	1.4989777
1493792108470	-3.152893	-4.1407776	0.4355774
1493792108493	-3.5556793	-4.1358643	-0.6041107
1493792108512	-3.6175995	-4.613083	-1.6480713
1493792108552	-3.822281	-7.0090485	-3.2822723
1493792108568	-4.8219757	-10.311157	-6.8086395
1493792108588	-5.909607	-13.518021	-10.97113
1493792108610	-5.716675	-13.202316	-10.379852
1493792108628	-5.260315	-11.147736	-7.655884
1493792108647	-3.8200989	-9.738327	-5.629883
1493792108667	-3.221817	-8.125183	-4.86499
1493792108687	-3.5213776	-4.885437	-4.771744
1493792108706	-4.5765533	-4.322174	-4.2408752
1493792108728	-7.599228	-9.898331	-2.2155304
1493792108748	-7.7390747	-15.370605	-0.94203186
1493792108765	-5.727936	-15.920776	-1.423233
1493792108788	-2.207962	-10.567032	-0.22277832
1493792108809	-0.4624176	-5.582657	6.4317627
1493792108830	-0.73269653	-5.879959	6.4648895
1493792108851	0.2515869	-8.496841	6.015091
1493792108866	0.74150085	-12.390915	2.420166
1493792108889	2.0009613	-13.560333	-0.15924072
1493792108908	0.6253052	-12.945358	-1.0660858
1493792108928	-2.0677948	-10.709946	-0.83354187
1493792108948	-4.233734	-8.722809	0.4504547
1493792108967	-4.6592407	-7.5200653	0.21722412
1493792108988	-4.3623962	-7.705765	-0.021057129
1493792109007	-3.2754364	-8.509918	-0.06109619
1493792109027	-0.90686035	-9.611435	0.59091187
1493792109047	1.1786194	-10.3403015	0.74913025
1493792109065	0.9506836	-10.1380005	-0.1295929
1493792109092	-0.34674072	-9.494003	-0.29638672
1493792109115	-0.7710266	-9.383606	0.15734863
1493792109124	-0.79385376	-9.583771	0.40368652
1493792109145	-0.5593567	-9.756088	-0.12649536
1493792109162	-0.014160156	-10.05513	-1.4833679
1493792109182	0.1265564	-10.209122	-2.1275787
1493792109201	-0.9360657	-10.147324	-1.5714264
1493792109224	-1.5424194	-10.144119	-0.6708374
1493792109244	-0.81484985	-10.406311	0.12812805
1493792109263	0.054275513	-10.474869	0.81910706
1493792109283	-0.19917297	-10.277756	1.3856354
1493792109303	-1.3239288	-9.94281	1.9726868
1493792109324	-2.3777008	-9.89418	0.40455627
1493792109345	-1.2921295	-10.199112	-0.75450134
1493792109364	0.046844482	-10.442581	-1.0995636
1493792109384	0.42556763	-11.064117	-0.654953
1493792109404	0.94487	-12.524094	-0.12617493
1493792109424	1.7698364	-13.425995	0.14083862
1493792109444	0.5605011	-13.592163	-0.32554626
1493792109463	-3.0053253	-10.988831	-0.5542908
1493792109483	-5.706772	-8.508835	-0.87402344
1493792109503	-6.4065247	-8.312332	-0.15655518
1493792109522	-4.6845856	-9.575287	1.4942627
1493792109543	-3.6006927	-11.649399	2.0291138
1493792109562	-3.5652313	-12.720993	1.8417206
1493792109583	-3.7418365	-12.050964	1.4597473
1493792109599	-3.635971	-11.844406	0.561615
1493792109619	-3.4756165	-10.915695	0.64593506
1493792109637	-2.1068573	-10.737244	0.9293823
1493792109657	-1.1187439	-9.648636	1.041748
1493792109677	-0.43055725	-9.020142	0.41386414
1493792109697	-1.6941681	-8.288712	0.17559814
1493792109718	-1.547699	-7.5461426	0.45581055
1493792109758	-1.8105469	-7.281067	0.9701843
1493792109777	-2.0714111	-6.574875	0.9786072
1493792109799	-2.3078613	-5.6446075	0.5363312
1493792109820	-2.3805695	-5.7088165	-0.015380859
1493792109840	-2.6103516	-6.700638	-0.54904175
1493792109858	-2.7608185	-7.7621307	-1.0650482
1493792109877	-2.9924011	-8.979477	-2.1885834
1493792109900	-3.3714752	-10.566864	-3.8899994
1493792109919	-3.7449036	-12.5034485	-5.504242
1493792109939	-4.947647	-11.883179	-5.007004
1493792109959	-5.5985107	-10.545441	-3.1464996
1493792109977	-4.3889008	-7.825653	0.598999
1493792109999	-4.089676	-5.6440735	2.4302826
1493792110018	-4.143524	-5.803116	1.3473816
1493792110039	-3.651535	-8.669418	0.5680542
1493792110060	-1.504837	-12.232895	2.256134
1493792110075	-1.0252686	-13.83017	3.8494415
1493792110096	-2.6212769	-12.558151	2.9165955
1493792110123	-3.0896606	-10.9952545	1.801712
1493792110133	-1.3413544	-10.511581	0.91233826
1493792110154	-0.3025055	-10.172546	-0.2175293
1493792110170	-0.2585144	-9.537109	0.027297974
1493792110190	-1.343811	-9.018906	0.17279053
1493792110210	-2.965973	-8.897385	-0.8904724
1493792110234	-2.8128815	-9.287247	-1.6321716
1493792110251	-1.784668	-9.620407	-1.5999908
1493792110269	-1.0134888	-9.5746	-1.1081543
1493792110292	-0.8579712	-9.605087	-0.7976532
1493792110311	-0.984848	-9.569824	-0.47550964
1493792110335	-0.9711304	-9.362778	0.039611816
1493792110353	-1.0064392	-9.565445	0.6529999
1493792110371	-1.3796234	-9.990234	1.4898529
1493792110392	-2.1256714	-10.205582	1.5782318
1493792110412	-2.5709076	-10.376282	0.9434662
1493792110432	-1.769104	-10.354065	0.25924683
1493792110452	-0.84321594	-10.174881	0.15649414
1493792110471	-1.0660706	-9.946564	0.52656555
1493792110492	-1.5852203	-9.512299	1.1760712
1493792110511	-1.7428284	-9.1362915	1.744339
1493792110531	-1.0400238	-9.146225	1.7648468
1493792110554	-0.186203	-9.391602	1.3552704
1493792110573	-0.20483398	-9.541595	1.1266327
1493792110592	-0.90031433	-9.589401	0.9454651
1493792110612	-1.532898	-9.49852	0.71507263
1493792110633	-1.6197968	-9.582153	0.39405823
1493792110651	-1.3557587	-9.921127	0.30125427
1493792110668	-1.4262543	-10.025894	0.416214
1493792110688	-1.432373	-9.945892	0.539505
1493792110710	-1.3092651	-10.03537	0.29478455
1493792110727	-0.61291504	-10.175156	-0.31570435
1493792110750	0.11528015	-9.942688	-0.21382141
1493792110769	0.08441162	-9.68222	0.3242035
1493792110789	-0.28874207	-9.472427	0.62753296
1493792110809	-0.5860901	-9.365311	0.62353516
1493792110827	-0.40803528	-9.588593	0.34303284
1493792110851	0.015991211	-10.1064	0.3133545
1493792110869	0.11071777	-11.424667	0.7353821
1493792110887	-1.2230377	-12.59256	0.8217163
1493792110913	-2.955719	-12.462677	0.52563477
1493792110928	-6.548828	-10.835876	-1.1138611
1493792110952	-6.8717957	-10.546143	-2.9349213
1493792110970	-5.388275	-10.6129	-3.580658
1493792111010	-3.7580109	-10.425247	-2.7946777
1493792111027	-3.692688	-10.406723	-1.743927
1493792111049	-3.5893707	-11.156555	-1.2801208
1493792111068	-1.9861298	-10.015106	-1.13031
1493792111086	-1.0952301	-8.541199	-1.1071777
1493792111110	-0.9247894	-8.471573	-1.5618744
1493792111132	-0.46176147	-9.009964	-0.3787079
1493792111143	0.41262817	-9.480072	1.4015045
1493792111164	0.5442505	-9.674057	1.7763214
1493792111183	-0.2721405	-10.331482	0.72151184
1493792111203	-0.88816833	-10.717239	-0.06695557
1493792111223	-1.9983215	-11.771393	-0.9721527
1493792111245	-2.819046	-11.294678	-1.1192474
1493792111265	-3.1370544	-10.162048	-1.0522461
1493792111283	-3.7071686	-8.874924	-0.90397644
1493792111304	-3.798996	-8.240646	-0.92578125
1493792111324	-3.5788116	-7.6817627	-0.90986633
1493792111347	-3.517807	-7.338257	-0.972229
1493792111366	-3.7717743	-7.1305847	-0.97509766
1493792111384	-4.010742	-6.7371826	-0.7556915
1493792111406	-4.216263	-6.1139374	-1.0211182
1493792111425	-4.179413	-6.0898743	-1.2445679
1493792111445	-4.2591248	-6.467819	-1.2770386
1493792111465	-4.097061	-7.156967	-1.9404144
1493792111484	-4.1730804	-8.184021	-3.3108978
1493792111505	-4.59346	-9.051956	-4.862152
1493792111524	-5.1234894	-9.163879	-5.387909
1493792111544	-5.6072235	-8.48172	-5.253952
1493792111564	-5.504959	-7.666748	-5.060486
1493792111582	-4.7436066	-7.0507965	-5.018112
1493792111602	-4.169983	-6.6532288	-5.0471497
1493792111631	-5.7848663	-8.0056	-5.784256
1493792111640	-9.181885	-13.810989	-5.8896027
1493792111659	-9.946228	-17.976608	-5.468155
1493792111679	-6.2233734	-12.928665	-3.0074005
1493792111699	-1.6851959	-5.1961517	1.8203735
1493792111718	-0.22512817	-2.8988495	3.1788177
1493792111741	-0.6648407	-5.304123	3.146286
1493792111758	-1.1484528	-9.395981	3.918991
1493792111781	-1.1790009	-11.955185	2.7811127
1493792111800	-0.43556213	-12.437347	1.2077332
1493792111819	-0.2808838	-12.455261	-0.086013794
1493792111841	-0.869339	-11.991135	-0.4335327
1493792111862	-1.8930206	-11.058853	-0.6371002
1493792111881	-2.293457	-9.640167	-0.019485474
1493792111902	-2.8444977	-8.972092	0.15812683
1493792111922	-2.0877838	-9.544373	-0.11047363
1493792111941	-1.572876	-10.139832	-1.376358
1493792111961	-2.3843384	-9.699738	-1.539566
1493792111980	-1.4644165	-9.234879	-0.37573242
1493792111999	-0.9602051	-9.037064	0.11187744
1493792112020	-1.330368	-8.535736	-0.24221802
1493792112038	-1.0493622	-8.356934	-1.0399323
1493792112058	-0.8405609	-8.491608	-0.6126404
1493792112079	-1.2371368	-8.228348	0.15657043
1493792112097	-1.1884613	-7.4705505	1.4789581
1493792112117	-0.7760773	-7.226532	2.5753937
1493792112141	-1.1889954	-8.759628	2.2664948
1493792112153	-1.0177612	-10.484802	0.88220215
1493792112192	-1.5307312	-10.506256	-1.1283417
1493792112211	-3.9334106	-11.375748	-0.8695526
1493792112233	-3.8569336	-12.518127	-0.29040527
1493792112255	-0.14331055	-13.188187	0.14483643
1493792112272	1.9303436	-12.939468	0.78167725
1493792112294	0.61538696	-12.878754	0.19094849
1493792112314	-0.087265015	-12.70253	-0.6579437
1493792112334	0.87875366	-12.842865	-1.6911926
1493792112356	2.062378	-13.080063	-1.7456665
1493792112375	2.3607788	-12.363754	-1.6714478
1493792112394	2.3412628	-11.828506	-2.6440125
1493792112415	0.9134064	-11.781631	-2.8734894
1493792112441	0.34701538	-10.793289	-0.9859619
1493792112451	0.06655884	-10.713699	1.2187958
1493792112472	-2.4543304	-13.791565	3.3211975
1493792112491	-5.674637	-16.679672	3.2365723
1493792112509	-6.611801	-16.659988	1.7310638
1493792112529	-6.7674713	-13.785049	0.29356384
1493792112552	-6.737076	-11.860107	-0.1865387
1493792112572	-3.9088135	-10.939789	-0.30082703
1493792112591	0.14079285	-11.202133	-0.51652527
1493792112609	2.0509186	-11.872009	-0.9562988
1493792112628	0.113861084	-10.970932	-0.6856384
1493792112647	-0.6526947	-9.1223755	0.2963562
1493792112667	-1.4796753	-7.6775208	1.6248627
1493792112686	-2.7417908	-5.4549103	2.3891602
1493792112707	-3.6320343	-3.2774963	2.7985992
1493792112730	-3.7848816	-2.3019257	2.2593231
1493792112751	-3.1062164	-1.6101837	1.215332
1493792112771	-2.468216	-1.8109589	0.05570984
1493792112796	-2.41539	-2.7907715	-1.2225342
1493792112813	-2.5823364	-3.445816	-2.5901642
1493792112832	-3.007553	-4.2309113	-4.366913
1493792112852	-3.2478333	-5.678238	-7.003723
1493792112872	-2.847992	-7.6189575	-9.397461
1493792112891	-3.351654	-9.229767	-8.333969
1493792112908	-4.1393127	-10.231262	-6.1467896
1493792112928	-4.9393616	-10.423294	-5.2959747
1493792112948	-6.544525	-8.931412	-5.324524
1493792112969	-8.417191	-5.4079742	-3.351532
1493792112988	-12.727921	-3.1702728	-1.3814392
1493792113010	-13.528061	-14.661209	-8.716797
1493792113027	-10.771576	-19.474823	-8.147003
1493792113048	-0.9239197	-11.689774	6.353012
1493792113067	-0.18719482	-2.6752625	5.553772
1493792113086	-0.43598938	-2.9165192	5.1225586
1493792113106	0.8358002	-9.320007	8.930908
1493792113131	0.28527832	-13.053909	4.7348175
1493792113145	0.21530151	-16.481201	-1.6573486
1493792113166	3.2577362	-16.51448	-2.3089752
1493792113184	-0.08746338	-14.072449	-0.15090942
1493792113204	-3.603592	-11.226578	-0.5124054
1493792113223	-3.3157654	-8.582642	-0.9772644
1493792113244	-3.4261627	-6.9019165	-2.9124603
1493792113265	-3.4091492	-7.810364	-2.9860992
1493792113284	-0.96591187	-9.957794	-1.3034058
1493792113303	-0.018737793	-11.260178	-3.348587
1493792113327	0.49102783	-10.023575	-2.5561676
1493792113342	0.32369995	-7.5900726	1.1109467
1493792113361	-0.8559723	-6.8989716	-1.4242554
1493792113400	-1.7956085	-7.0437317	-1.1248474
1493792113420	-2.5004425	-7.2774353	-0.4668274
1493792113439	-1.8513641	-7.2372437	0.18345642
1493792113463	-1.1675415	-7.6630707	1.0262604
1493792113483	-0.86961365	-7.3648376	1.530426
1493792113501	-0.7961426	-6.6636963	1.1039734
1493792113524	-1.6332397	-8.756561	1.382904
1493792113542	-2.2124481	-11.3737335	0.8226776
1493792113563	-1.6546783	-12.355011	-0.39045715
1493792113580	-0.42366028	-12.897354	-0.21678162
1493792113601	0.80848694	-12.918411	-0.11424255
1493792113621	1.8175507	-13.485489	-0.3338318
1493792113647	1.9877167	-13.941757	-0.18814087
1493792113660	1.1373444	-13.631592	-0.3946228
1493792113679	0.69003296	-12.8629	-1.0520782
1493792113701	0.6753235	-12.317902	-1.6798401
1493792113719	0.8990021	-12.646652	-1.8770905
1493792113739	1.5595093	-12.402557	-1.526947
1493792113761	1.5304565	-11.351822	-1.0122528
1493792113780	0.065322876	-10.739166	-0.2740631
1493792113801	-3.42482	-10.241959	-0.58322144
1493792113819	-6.1079254	-10.657318	0.3972168
1493792113839	-6.3848724	-12.229233	2.1434784
1493792113863	-5.7138214	-13.520569	2.380722
1493792113882	-4.835022	-13.651001	1.3937988
1493792113902	-3.091156	-13.289795	-0.2964325
1493792113922	-1.0599365	-12.827454	-1.0437775
1493792113943	2.3025818	-12.31189	-0.34335327
1493792113961	3.426056	-12.296753	-1.0865479
1493792113981	0.15187073	-10.95961	-0.6039429
1493792113998	-1.2352905	-8.682953	2.3036652
1493792114021	-2.4300537	-6.467392	3.16951
1493792114040	-3.0004425	-4.9355927	2.954895
1493792114062	-2.961609	-4.5490875	2.8027496
1493792114080	-3.592682	-4.3550415	2.6846313
1493792114099	-3.8305054	-4.146469	2.3867493
1493792114117	-3.2922516	-4.0566406	1.6364899
1493792114139	-2.8417206	-3.9992218	0.64990234
1493792114155	-2.9785614	-3.6634216	-0.49224854
1493792114175	-3.5169373	-4.0149384	-2.000885
1493792114195	-4.8363953	-6.5130463	-5.847412
1493792114214	-5.854355	-9.820236	-9.938309
1493792114234	-6.3208313	-14.169388	-11.271225
1493792114256	-6.3810425	-15.716644	-10.225327
1493792114276	-5.0117493	-12.848373	-7.4467163
1493792114295	-5.6506042	-8.352432	-5.7693024
1493792114316	-9.531387	-6.7894287	-7.2922363
1493792114335	-10.528763	-14.925873	-8.715088
1493792114357	-5.015503	-13.759171	-0.033935547
1493792114377	-2.8694305	-4.7534485	2.7983856
1493792114397	-2.566101	-2.0610046	4.29718
1493792114416	-3.5547943	-6.7041473	4.4016113
1493792114436	-1.4822845	-10.952728	7.612671
1493792114455	-0.013717651	-13.745956	6.66008
1493792114477	2.900055	-14.683075	2.7884521
1493792114496	2.622406	-14.891083	-1.076416
1493792114513	0.6333618	-13.16687	0.17468262
1493792114536	-0.87150574	-11.335419	0.63287354
1493792114554	-1.8050385	-9.178955	0.7978821
1493792114576	-2.3865356	-8.223846	1.0431519
1493792114595	-2.4487457	-7.882492	-1.1608276
1493792114639	-2.223648	-8.765213	-0.9774933
1493792114650	-2.2414703	-10.106873	-1.2218933
1493792114670	-0.60762024	-8.901611	-0.35928345
1493792114690	-0.21963501	-7.053894	1.3231049
1493792114711	-0.6720581	-6.653595	0.17227173
1493792114730	-1.6022644	-6.6699524	0.03543091
1493792114751	-2.3019867	-8.7655945	-0.11256409
1493792114774	-0.12762451	-9.570999	1.5771484
1493792114793	0.69493103	-9.747345	0.7588501
1493792114813	-0.2448883	-10.190445	-0.43702698
1493792114833	-2.0563507	-10.469131	-1.7676392
1493792114852	-1.7883453	-11.541977	-2.4337158
1493792114872	0.99116516	-11.9844055	-0.86650085
1493792114892	2.5607452	-12.33432	-0.672699
1493792114912	1.5009766	-12.354538	-1.1908417
1493792114932	1.0225067	-12.159561	-1.445282
1493792114951	1.3009491	-12.326172	-2.0140839
1493792114972	2.1522217	-13.099167	-1.7861633
1493792114991	3.0031586	-13.31842	-1.8918915
1493792115012	0.24127197	-12.273407	-1.4562683
1493792115031	-4.7756805	-11.7717285	-0.40763855
1493792115051	-7.5604706	-12.751083	2.04451
1493792115072	-9.079697	-15.796036	4.2257385
1493792115090	-9.437805	-17.114365	3.1996765
1493792115111	-7.715393	-15.361786	1.0179291
1493792115135	-5.8461304	-13.21315	-1.107254
1493792115147	-3.3139038	-12.264679	-0.88627625
1493792115166	-1.283783	-11.880341	0.47962952
1493792115189	0.6086731	-10.969208	0.9763336
1493792115204	1.0952606	-9.554367	0.3160553
1493792115225	0.0024261475	-7.328964	0.95277405
1493792115245	-0.56843567	-5.4833984	2.658432
1493792115265	-1.0814819	-3.8207245	3.7000732
1493792115287	-2.162735	-1.7632446	3.8751984
1493792115306	-2.4706726	-0.62908936	3.4764557
1493792115326	-2.2909088	-0.7328186	2.6993713
1493792115346	-1.7298279	-1.4809875	1.5785217
1493792115368	-1.2136841	-2.5644836	0.34339905
1493792115388	-1.1874847	-4.4040375	-0.50180054
1493792115407	-2.460083	-8.245407	-3.9120636
1493792115428	-5.5105133	-13.996094	-11.228638
1493792115447	-8.359497	-17.35379	-16.147049
1493792115467	-7.225815	-13.94223	-13.165649
1493792115487	-4.987915	-10.613617	-7.2075806
1493792115506	-4.6218567	-8.9604645	-4.447769
1493792115527	-7.093933	-6.7176666	-4.3366394
1493792115546	-9.226685	-11.22702	-6.449173
1493792115566	-10.551697	-16.329376	-6.9978027
1493792115586	-5.930084	-12.665527	1.4289551
1493792115605	-0.35191345	-6.686554	5.529785
1493792115624	-0.40556335	-4.8914948	8.065659
1493792115642	-1.7314148	-6.936081	7.5226593
1493792115663	1.6063385	-10.103058	7.7397003
1493792115682	2.33255	-14.258408	4.04364
1493792115700	2.1476746	-15.238205	-2.0943604
1493792115720	1.2535858	-13.244934	-2.6752167
1493792115740	-1.010315	-10.693665	0.9537811
1493792115781	-2.620575	-8.014679	0.24057007
1493792115782	-4.1112976	-6.6633453	0.9233093
1493792115822	-3.373642	-7.0475616	-0.11009216
1493792115841	-1.8317108	-9.895615	-0.5012512
1493792115861	-0.45440674	-11.685455	-0.40130615
1493792115883	1.4742279	-10.635513	-0.24424744
1493792115901	2.7921143	-8.914505	1.0833588
1493792115922	0.26882935	-8.763016	-0.17817688
1493792115943	0.20561218	-8.666534	-0.123916626
1493792115961	0.559906	-9.20192	-0.1793518
1493792115982	0.33061218	-9.946381	-0.495636
1493792116001	0.7267151	-9.916641	-1.2150574
1493792116023	-0.32260132	-9.449081	-1.0726776
1493792116042	-1.2449799	-9.390839	-0.63542175
1493792116061	-0.35011292	-10.261505	0.26287842
1493792116081	1.8404694	-11.146454	0.52482605
1493792116103	3.2957764	-11.288712	0.34378052
1493792116119	1.8674164	-10.946259	-0.35169983
1493792116142	0.5684204	-10.860123	-1.3811493
1493792116157	2.2683716	-12.096985	-1.0723877
1493792116180	3.0100403	-12.7009735	-1.169342
1493792116198	2.7046204	-12.314682	-2.5319366
1493792116215	0.3790741	-11.37941	-2.9205933
1493792116235	-2.6871796	-10.164825	-1.5797119
1493792116255	-4.5661163	-11.438202	1.0460663
1493792116275	-6.9881287	-15.387695	2.7911835
1493792116297	-9.373138	-18.717453	3.6434937
1493792116316	-9.464294	-17.748825	1.7599335
1493792116336	-7.9471283	-14.533096	-0.85054016
1493792116354	-5.9843597	-13.320557	-0.6143341
1493792116375	1.2594604	-13.205032	-0.4731598
1493792116395	4.277725	-14.397247	-2.2825928
1493792116413	-0.9369049	-13.454712	-1.475769
1493792116436	-3.4807892	-8.898163	1.583374
1493792116456	-4.353195	-4.410324	2.5282135
1493792116476	-4.1819763	-2.170044	2.3773499
1493792116496	-3.0311127	-1.8960876	1.8429718
1493792116515	-2.3422852	-2.0848389	1.2531433
1493792116536	-1.935379	-2.4904327	0.95521545
1493792116555	-1.0495605	-3.0836792	0.685379
1493792116575	-0.44633484	-3.8074036	-0.011764526
1493792116595	-0.5873871	-4.3111725	-1.2275085
1493792116614	-1.3038177	-4.978348	-2.9987793
1493792116635	-2.4345703	-6.7840424	-6.25914
1493792116652	-4.162857	-10.44458	-10.88089
1493792116672	-3.9503326	-12.11911	-11.412552
1493792116693	-3.923996	-11.538986	-8.331497
1493792116711	-4.8457794	-10.6839905	-6.189316
1493792116730	-5.5226746	-9.489853	-5.6980133
1493792116750	-6.718994	-7.372528	-5.502548
1493792116773	-8.390335	-7.038849	-6.0384216
1493792116793	-9.929794	-10.153275	-3.6141815
1493792116811	-8.934006	-9.9700165	-0.058395386
1493792116832	-6.6569214	-8.425858	-1.9284363
1493792116851	-3.2703094	-8.997055	-5.341202
1493792116872	1.8343048	-9.838989	2.6750946
1493792116894	1.7578735	-9.9474945	6.5872955
1493792116913	0.50639343	-10.145264	4.874405
1493792116932	2.0085907	-11.888992	2.5026855
1493792116953	1.8280945	-13.623825	0.6512451
1493792116971	0.11364746	-13.829025	-1.5322571
1493792116993	-1.0968628	-12.094055	-0.31497192
1493792117012	-2.7118225	-10.307739	1.261734
1493792117052	-4.430771	-7.8426056	0.93688965
1493792117054	-3.6101685	-6.30896	0.68907166
1493792117092	-1.4520264	-8.533112	0.19511414
1493792117113	-0.2520752	-10.260208	-0.4885559
1493792117128	0.49798584	-10.574799	-0.5413208
1493792117150	0.9350586	-8.4383545	1.7233429
1493792117182	0.0783844	-7.3612823	2.1314697
1493792117190	0.29570007	-7.6731415	0.7449188
1493792117207	-0.67037964	-8.629272	-1.7545624
1493792117226	0.28755188	-10.977951	-3.1325684
1493792117246	2.3721313	-11.619919	-1.4309692
1493792117265	2.518692	-10.677429	-0.3989563
1493792117287	0.9725647	-10.4505005	0.025161743
1493792117310	-1.0637512	-10.901779	-0.13302612
1493792117327	-0.9859619	-11.813339	0.1496582
1493792117350	0.45742798	-11.809753	1.2189789
1493792117369	0.24986267	-11.803421	1.0010223
1493792117391	-0.8195801	-11.73967	-0.00793457
1493792117409	-0.5342865	-11.882767	-0.6530762
1493792117427	0.88642883	-12.417847	-0.6233978
1493792117449	1.3257446	-13.234772	-2.1338043
1493792117468	1.2148743	-12.83284	-3.3583527
1493792117488	-0.8347931	-11.244812	-2.5388184
1493792117508	-2.8013306	-9.683502	-0.39286804
1493792117526	-3.9934998	-10.016541	2.1590424
1493792117548	-6.7649536	-12.986603	3.3637543
1493792117567	-9.395004	-16.13086	2.3872986
1493792117587	-8.907791	-15.506058	0.7561035
1493792117607	-6.5522156	-12.9776	-0.49905396
1493792117625	-3.893097	-12.628387	-0.85458374
1493792117645	-0.45317078	-12.837585	0.4367981
1493792117665	1.1077118	-12.034821	0.97094727
1493792117682	0.20780945	-10.098404	0.21783447
1493792117704	-0.24838257	-8.084488	0.31106567
1493792117721	-0.6190491	-7.2493134	2.447937
1493792117741	-1.6283569	-5.1336517	2.7511597
1493792117761	-2.046524	-2.6139374	3.3584442
1493792117783	-2.015396	-1.6259918	3.5845184
1493792117803	-1.9367828	-1.3745422	2.8328705
1493792117822	-1.8891907	-1.678772	1.8790131
1493792117842	-2.0032349	-2.497696	0.427063
1493792117861	-2.3611603	-3.8836823	-1.0084381
1493792117882	-3.9233246	-7.7698517	-5.361969
1493792117904	-7.0275726	-13.096344	-9.892334
1493792117923	-9.185135	-16.649628	-14.266754
1493792117944	-7.8379364	-13.684341	-11.699448
1493792117963	-5.341934	-9.706329	-6.829132
1493792117983	-4.934021	-7.829376	-4.3760834
1493792118002	-6.2123413	-5.385681	-4.3037567
1493792118022	-7.2589874	-6.2153015	-5.763336
1493792118042	-11.062515	-13.4449005	-5.08873
1493792118062	-7.7732086	-15.229218	-0.8096924
1493792118083	-4.4843445	-11.212418	-1.0533447
1493792118102	0.14891052	-7.3371277	5.5135193
1493792118122	-0.51820374	-6.703003	6.4148865
1493792118138	-0.37405396	-8.233551	5.931778
1493792118161	0.79785156	-10.951004	6.5564117
1493792118180	1.9888763	-13.123398	2.9477692
1493792118197	1.6366577	-14.32962	-2.5180206
1493792118236	0.13026428	-12.619202	-1.5126495
1493792118256	-0.998703	-10.248917	0.3299408
1493792118275	-3.602005	-8.227707	0.25958252
1493792118298	-3.8255768	-7.0027924	0.15756226
1493792118317	-3.4103394	-8.308395	-0.2541809
1493792118336	-1.7428131	-9.612976	-0.12045288
1493792118358	0.743454	-10.114624	-0.7242737
1493792118376	0.85202026	-9.418472	0.34539795
1493792118400	-0.11631775	-8.557388	0.18177795
1493792118418	-0.16671753	-8.198914	-0.6457672
1493792118439	-0.33155823	-8.2864685	-0.8016968
1493792118459	-0.01272583	-9.692566	-1.0151215
1493792118480	1.0433197	-10.395905	-0.9498596
1493792118499	2.0859833	-10.331055	-0.28044128
1493792118518	0.71806335	-10.467041	0.5914154
1493792118536	-2.8456268	-10.41217	0.09512329
1493792118560	-3.0290375	-11.298935	-0.58688354
1493792118575	0.23529053	-11.899948	0.76290894
1493792118596	0.9653015	-11.729507	1.2301483
1493792118613	-0.004760742	-11.310516	0.511322
1493792118632	0.48857117	-11.622086	-0.7049866
1493792118653	1.4472198	-12.176147	-0.96694946
1493792118670	1.904602	-13.254257	-1.9309692
1493792118690	2.701828	-13.666275	-2.8397064
1493792118710	1.7192688	-12.48085	-1.852768
1493792118731	-1.4365387	-10.843231	-1.119278
1493792118749	-3.8478851	-9.94696	-0.03488159
1493792118773	-4.7910004	-10.81665	2.8764648
1493792118791	-6.93927	-13.508774	3.0911102
1493792118811	-8.107803	-15.710159	1.7476807
1493792118831	-6.593628	-15.033493	0.48719788
1493792118854	-4.827118	-13.3461	-0.60443115
1493792118874	-3.4205017	-12.612213	-0.26856995
1493792118893	0.14250183	-12.200562	1.0675049
1493792118914	2.7862396	-11.461929	0.32260132
1493792118932	1.0055847	-9.5381775	-0.49656677
1493792118953	0.08747864	-7.6469727	0.5861206
1493792118972	0.007751465	-6.4643707	1.857727
1493792118992	-0.88497925	-4.6746674	2.7243347
1493792119013	-2.0176697	-2.7077332	3.7387085
1493792119032	-2.8730774	-1.8252869	3.6856384
1493792119052	-3.302948	-1.6304932	3.2108307
1493792119071	-3.4369965	-1.9455414	2.183136
1493792119091	-3.6015167	-2.7831726	0.9669342
1493792119112	-3.8826141	-4.6440125	-0.5472107
1493792119131	-4.5347137	-9.0716095	-5.4818573
1493792119147	-5.4250336	-14.840591	-11.132187
1493792119167	-6.8140564	-16.482956	-13.907471
1493792119192	-6.460083	-11.9891205	-11.547806
1493792119207	-5.158325	-9.119583	-6.9958344
1493792119226	-4.0045624	-7.9827576	-4.1865845
1493792119246	-4.5395203	-5.9069824	-3.9923553
1493792119268	-6.2243195	-6.3707275	-6.103073
1493792119288	-8.416504	-12.955093	-5.704071
1493792119308	-6.240555	-14.253143	-0.690155
1493792119328	-4.525284	-10.822311	1.3582764
1493792119348	-1.5133667	-8.070557	4.5266113
1493792119369	-1.8394318	-7.0051117	5.5611877
1493792119384	0.6518402	-8.259476	6.215378
1493792119406	2.4973755	-11.609161	6.851364
1493792119445	1.598114	-13.308044	2.1818542
1493792119465	-0.20565796	-13.439346	-1.2615204
1493792119482	-0.27841187	-11.929108	-0.7188721
1493792119503	-1.5826263	-10.539337	0.13265991
1493792119522	-3.73703	-8.186447	0.111572266
1493792119541	-4.2580414	-7.13797	0.7245636
1493792119562	-2.2991638	-8.207703	0.5993805
1493792119585	-0.6490326	-9.745392	-0.33699036
1493792119605	0.9737091	-9.8585205	-0.34158325
1493792119625	0.8287811	-9.571548	0.26190186
1493792119645	0.21061707	-8.731216	-0.628891
1493792119665	-0.22373962	-8.740707	-1.382019
1493792119682	-0.07650757	-9.303329	-0.59020996
1493792119702	0.52822876	-10.070908	-0.51000977
1493792119722	0.7829132	-10.524048	-0.8755951
1493792119740	1.1775208	-10.230637	-0.82543945
1493792119761	-0.36917114	-9.534576	-1.0361786
1493792119784	-2.0165405	-9.783417	-1.0991211
1493792119804	-1.0823822	-10.8046875	-0.3650818
1493792119822	0.5496063	-11.383469	0.2702484
1493792119842	0.96235657	-11.371017	0.7120514
1493792119864	0.4433899	-11.239243	0.6555176
1493792119885	0.12236023	-11.62323	-0.9262543
1493792119905	0.5696411	-12.672455	-1.781662
1493792119925	0.9226227	-13.6145935	-2.396286
1493792119943	2.0339508	-13.449799	-2.4524536
1493792119965	0.5319977	-12.518204	-1.8232422
1493792119984	-3.6445923	-10.938629	-1.2624359
1493792120004	-6.193039	-10.457474	1.0445709
1493792120024	-7.4799194	-12.349716	2.4163513
1493792120042	-8.597549	-14.879257	2.1392822
1493792120064	-7.635071	-15.278809	1.0450745
1493792120083	-5.6609344	-13.49498	-0.82458496
1493792120103	-3.0627747	-11.97171	-1.315155
1493792120123	-0.057266235	-11.801132	0.06474304
1493792120142	1.5850677	-11.517227	0.056152344
1493792120162	1.09552	-10.082016	-0.49023438
1493792120187	0.41679382	-8.218704	-0.031723022
1493792120199	-0.028930664	-6.6298523	1.4255829
1493792120220	-1.3786469	-4.9858246	2.2111359
1493792120237	-2.5861664	-3.3452148	2.418396
1493792120257	-3.166092	-2.3181	2.4839478
1493792120277	-3.2141418	-1.8179016	2.3548584
1493792120301	-2.917221	-2.0874023	1.6322021
1493792120321	-2.7340698	-3.04216	0.63822937
1493792120338	-2.5148468	-4.684067	-0.3765564
1493792120361	-2.9577484	-7.537979	-1.8588867
1493792120381	-3.857254	-12.317581	-7.0671387
1493792120402	-5.713028	-16.713654	-13.080704
1493792120420	-6.2669067	-13.683609	-12.967041
1493792120440	-5.03566	-9.846039	-9.81572
1493792120460	-3.5417786	-8.959656	-5.589081
1493792120479	-2.4565277	-9.007202	-4.344223
1493792120498	-2.7378845	-6.808975	-3.8871002
1493792120521	-3.5329895	-4.6581116	-4.679779
1493792120539	-5.6148834	-5.8924866	-1.9943542
1493792120555	-7.7934875	-11.499542	-0.9339447
1493792120578	-8.385864	-18.303116	-4.7289276
1493792120597	-3.9061737	-15.125687	-6.836151
1493792120618	1.2389374	-8.1983185	5.1732483
1493792120638	-1.4913635	-4.318451	6.60524
1493792120675	-3.386551	-6.311386	4.9830017
1493792120693	-0.9190979	-9.20845	5.567932
1493792120717	2.9035187	-13.078384	3.3766785
1493792120733	3.5264435	-14.904709	-1.5263062
1493792120753	2.2938843	-14.104309	-1.3032837
1493792120772	-2.381256	-11.330643	0.30056763
1493792120793	-5.410553	-8.517303	0.18563843
1493792120815	-5.0112762	-6.6589355	-0.037521362
1493792120834	-5.4770966	-7.396698	0.4261322
1493792120854	-3.5252686	-8.495819	0.7436981
1493792120873	-0.3287201	-10.280487	0.1763916
1493792120894	0.756546	-10.023636	-0.42268372
1493792120915	1.0706787	-9.506821	-0.4771881
1493792120935	0.29109192	-8.942764	-0.3395691
1493792120951	-0.07041931	-8.955475	0.25016785
1493792120975	0.41542053	-9.473923	-0.38615417
1493792120994	0.68647766	-9.928787	-0.7755127
1493792121014	1.1223907	-10.076889	-2.1326752
1493792121034	0.9050598	-10.368423	-2.9397888
1493792121052	-0.15678406	-10.437637	-2.1966095
1493792121074	-0.7748718	-10.369873	-0.56988525
1493792121093	-0.4446869	-10.568268	0.5657501
1493792121113	-0.66773987	-10.542145	1.0804291
1493792121133	-1.6467896	-10.385284	0.8930969
1493792121153	-1.7667389	-10.413101	0.09162903
1493792121174	-0.552536	-10.557571	-0.88890076
1493792121189	0.3391571	-11.58786	-1.4559326
1493792121210	1.0362854	-13.104843	-1.077179
1493792121230	1.8615265	-13.70752	-0.9060211
1493792121247	1.2259216	-12.17807	-1.0755463
1493792121267	-1.5079193	-10.300705	-1.212677
1493792121287	-4.9934235	-9.463562	-1.3698273
1493792121310	-6.5175323	-10.003784	-0.23410034
1493792121329	-5.935608	-11.970093	1.6181793
1493792121348	-4.673279	-13.649384	2.394455
1493792121369	-3.535324	-13.602097	1.5762329
1493792121387	-2.0253296	-12.48938	1.0206909
1493792121412	-1.2500916	-11.769363	0.28494263
1493792121431	-1.1779327	-11.504608	-0.2783203
1493792121450	-0.90242004	-10.667694	0.44241333
1493792121472	-0.54164124	-9.457703	0.80877686
1493792121490	-1.0545654	-8.177536	0.18887329
1493792121510	-1.564209	-7.1011505	0.44239807
1493792121531	-1.687973	-6.2479553	0.9584503
1493792121549	-1.3049316	-5.582611	1.3029938
1493792121570	-1.0113525	-5.008972	1.6173096
1493792121588	-0.6652832	-4.797409	1.4161835
1493792121609	-0.22802734	-5.3262787	0.45721436
1493792121629	-0.21746826	-6.7473297	0.01222229
1493792121650	-0.97720337	-9.413239	-2.3050537
1493792121667	-0.9126129	-13.060745	-5.2061005
1493792121690	-0.19876099	-15.854828	-9.334778
1493792121703	-1.6177216	-12.860519	-2.977539
1493792121723	-5.11557	-8.24472	5.9220886
1493792121743	-7.2897034	-5.4615173	7.534897
1493792121763	-6.2905884	-5.8041687	5.079895
1493792121783	-8.915482	-5.3767853	5.4401703
1493792121825	-8.415253	-9.223846	-0.6858978
1493792121825	-2.1687927	-15.056854	1.3694763
1493792121863	2.7807312	-15.290482	3.877594
1493792121885	-1.3696442	-14.212326	0.13476563
1493792121905	-2.602066	-14.32077	1.0016327
1493792121926	0.5193634	-11.974609	-1.226532
1493792121945	2.6145477	-9.5985565	-2.1648865
1493792121962	0.35301208	-8.791718	-0.83244324
1493792121985	-1.5641937	-9.362534	0.033859253
1493792122004	-2.5166779	-9.210114	0.52059937
1493792122025	-2.9273224	-8.399445	0.5470886
1493792122044	-2.2539978	-7.873657	0.089538574
1493792122064	-1.7101135	-8.2625885	-0.25273132
1493792122084	-1.4372101	-8.87355	-0.2915039
1493792122103	-1.0392303	-9.396317	0.02029419
1493792122120	-0.99087524	-9.7096405	0.66841125
1493792122139	-0.7079773	-10.190918	1.8259735
1493792122161	-0.3391571	-10.427048	2.387207
1493792122179	-0.35580444	-10.561005	2.4301758
1493792122197	-0.56718445	-10.740814	2.3072662
1493792122216	-0.8020477	-10.542572	1.726181
1493792122236	-0.83366394	-10.175919	1.0684814
1493792122255	-0.38313293	-9.892899	0.954834
1493792122276	-0.35102844	-10.164581	0.82621765
1493792122299	-0.6620178	-10.447556	0.7180023
1493792122316	-0.81817627	-10.12236	0.8238983
1493792122339	-0.8652649	-9.804199	0.9399719
1493792122360	-0.5947418	-9.737747	0.71513367
1493792122380	0.23278809	-9.787567	0.4283142
1493792122400	1.2679596	-10.236572	0.2079773
1493792122420	0.9937439	-11.270981	0.046081543
1493792122435	-0.75382996	-12.3650055	-0.7836304
1493792122455	-1.4670105	-11.833359	-2.1900787
1493792122477	-0.94918823	-10.337814	-2.688919
1493792122496	-0.7122803	-9.775604	-2.1729736
1493792122517	-1.6734619	-10.9314575	-1.9160309
1493792122538	-3.206009	-13.243805	-0.6528015
1493792122557	-3.4388428	-14.376709	0.9634857
1493792122578	-2.8245392	-13.289108	1.1867523
1493792122597	-2.4984741	-12.148865	0.63864136
1493792122618	-2.080658	-12.461121	1.9270935
1493792122637	-1.1978607	-12.502731	2.4484863
1493792122656	-2.119751	-12.273743	0.50471497
1493792122675	-2.5672913	-11.700638	-0.6287842
1493792122697	-1.658081	-10.324036	0.0914917
1493792122714	-1.3981323	-8.456055	1.5423279
1493792122734	-2.2635345	-6.325699	2.0699768
1493792122753	-2.0558014	-5.042465	1.311966
1493792122773	-1.8427124	-4.640915	1.414856
1493792122793	-2.7554321	-4.6273346	0.8673248
1493792122816	-3.4170532	-4.761566	0.71881104
1493792122833	-3.8750763	-4.7299194	0.37553406
1493792122853	-3.9588318	-4.6454926	-0.60539246
1493792122874	-4.3875427	-5.315323	-2.736267
1493792122896	-5.3908844	-7.3055115	-6.791107
1493792122920	-6.3016663	-10.303238	-8.931259
1493792122932	-8.306335	-12.1298065	-6.817108
1493792122954	-7.588455	-10.98967	-4.9953613
1493792122973	-5.8625336	-8.265289	-3.5673218
1493792122990	-4.994049	-5.7516937	-3.0172424
1493792123010	-5.6195374	-4.4368896	-3.894516
1493792123032	-5.0427094	-2.4428558	-2.6094055
1493792123070	-10.264404	-7.998398	-4.3569946
1493792123092	-10.887665	-19.474823	-5.940445
1493792123111	-1.9106903	-18.520706	-1.4017181
1493792123128	-1.8472748	-0.94654846	8.848022
1493792123147	-4.4026337	-1.2535706	2.5141602
1493792123166	-3.0746918	-4.995987	4.1249084
1493792123187	-1.8612671	-10.345413	5.001816
1493792123210	2.3135376	-14.091553	0.55622864
1493792123229	4.528351	-15.565964	-0.58917236
1493792123248	4.3225555	-13.322952	-1.0525818
1493792123268	1.6165009	-11.462723	-1.4046631
1493792123291	-1.3854828	-9.749527	-2.1474762
1493792123311	-3.814804	-7.740982	-0.9656067
1493792123330	-4.196274	-7.54541	-0.8378906
1493792123350	-3.0507507	-8.566727	-1.3163147
1493792123368	-1.9370422	-9.080521	-0.9061127
1493792123393	-1.4945831	-9.450821	-1.1295471
1493792123409	-1.777771	-9.301163	-1.6316376
1493792123431	-0.50605774	-8.818344	-0.512146
1493792123451	-0.6117554	-9.031082	-0.3431549
1493792123470	-1.1106415	-8.797714	0.40319824
1493792123491	-1.1573792	-8.883743	1.0360718
1493792123510	-1.4383698	-9.269089	1.4342499
1493792123532	-1.2728577	-9.275879	1.4370117
1493792123550	-1.0291901	-9.5486145	0.7013855
1493792123570	-0.6770477	-10.249634	-0.13150024
1493792123592	-0.26808167	-10.868347	-1.3083496
1493792123609	0.065338135	-11.639465	-1.6973724
1493792123633	0.43312073	-12.20549	-0.8170166
1493792123645	0.8569946	-12.1441345	-0.67341614
1493792123665	1.5175781	-12.284134	-1.0911713
1493792123690	2.2706451	-12.825607	-1.1283722
1493792123705	2.688324	-13.689133	-1.014389
1493792123726	2.11055	-14.13327	-2.4328918
1493792123744	0.16401672	-13.31218	-3.5497131
1493792123763	-2.0658112	-11.290466	-1.9344025
1493792123783	-3.5168152	-9.646881	-0.0947113
1493792123804	-4.640686	-10.711044	1.8718872
1493792123825	-6.4393616	-14.429749	2.9042053
1493792123843	-8.683014	-17.156464	3.2890472
1493792123863	-7.2707977	-14.384491	1.706955
1493792123883	-5.688675	-11.355209	-0.22612
1493792123903	-4.7208405	-10.863403	-0.38363647
1493792123924	-3.40654	-11.450333	0.24920654
1493792123942	0.40679932	-10.598175	0.6952362
1493792123962	1.2834015	-8.927444	-0.42256165
1493792123984	1.4976349	-7.5100403	-0.25395203
1493792124006	0.7541504	-6.7172546	1.5927277
1493792124023	-0.88757324	-5.0552216	2.3581085
1493792124044	-2.265442	-3.6663513	2.8969574
1493792124061	-2.9205627	-2.195221	2.9882507
1493792124081	-3.2097015	-1.8853912	2.3200226
1493792124104	-2.8640137	-2.2213135	1.6842804
1493792124121	-2.3418121	-3.2984161	0.72114563
1493792124142	-2.0897217	-5.242096	-0.16481018
1493792124160	-2.7593536	-8.382553	-2.2329254
1493792124180	-4.143265	-13.61908	-8.806442
1493792124200	-6.224533	-18.245087	-15.001236
1493792124240	-7.1825867	-12.828873	-13.980087
1493792124259	-5.510208	-9.14769	-8.468796
1493792124281	-3.6362152	-8.761673	-3.383484
1493792124298	-3.0242767	-8.17186	-3.4368439
1493792124318	-4.4921417	-6.1942444	-3.1441193
1493792124338	-7.7775726	-8.817596	-2.7139435
1493792124356	-10.34082	-12.662552	-2.5321503
1493792124377	-8.300888	-14.579422	-1.0509491
1493792124399	-3.1983337	-11.281784	-0.042617798
1493792124419	0.42567444	-7.68454	5.4718018
1493792124439	0.5122986	-6.3900146	6.7763214
1493792124459	0.12496948	-7.810425	7.105774
1493792124479	1.6000061	-10.620438	4.742584
1493792124499	1.1730499	-12.821045	0.58091736
1493792124518	0.90060425	-12.965622	-1.4943848
1493792124539	0.15164185	-12.0290985	-0.99453735
1493792124557	-1.4457703	-9.879074	0.50953674
1493792124576	-2.684967	-7.774353	0.6768799
1493792124599	-3.5674133	-7.8286285	0.36393738
1493792124619	-3.0048218	-8.334824	-0.25473022
1493792124639	-1.1630859	-9.732178	0.46032715
1493792124661	0.6597748	-10.656036	0.9396057
1493792124678	1.5117645	-10.172516	0.096588135
1493792124699	0.15435791	-9.321838	0.92108154
1493792124715	0.22045898	-8.638306	0.03286743
1493792124735	1.0108032	-9.088135	-1.2847137
1493792124754	1.4992065	-9.817963	-1.0562592
1493792124774	0.7333832	-10.125458	-0.7342224
1493792124793	-0.003829956	-9.350662	-0.26361084
1493792124814	-1.1096039	-8.98642	-0.45095825
1493792124836	-1.5037079	-9.693268	-0.5715637
1493792124855	-0.29396057	-10.50325	0.14846802
1493792124874	0.5204468	-11.017273	0.7998047
1493792124894	0.044052124	-11.195282	1.5157166
1493792124913	-1.4254913	-11.233826	0.7580719
1493792124937	-2.0626373	-11.195908	-0.47175598
1493792124957	-0.53845215	-12.518433	-0.10890198
1493792124975	1.1737671	-14.271683	-1.2178345
1493792124996	3.0563965	-14.586899	-2.909317
1493792125016	2.8452606	-13.094315	-2.4922028
1493792125035	-0.9606476	-11.039383	-2.4653625
1493792125056	-3.172104	-10.6384735	-0.6123352
1493792125075	-4.88945	-12.084763	2.1398773
1493792125095	-6.8188934	-14.725494	2.5453339
1493792125115	-7.6517334	-15.923431	1.8340912
1493792125135	-5.8009796	-14.2691345	-0.12371826
1493792125155	-4.8022766	-12.3038025	-0.89923096
1493792125174	-1.0333252	-11.6653595	-0.3985443
1493792125193	3.0291748	-11.893173	0.69692993
1493792125216	1.4546356	-10.984055	-0.6201019
1493792125229	-0.28356934	-8.88652	-0.39794922
1493792125249	0.3585205	-7.2286987	1.7316742
1493792125269	-0.8566742	-6.0733643	2.947754
1493792125289	-1.3293152	-4.7693024	2.434616
1493792125309	-2.4108582	-3.8795013	3.6555939
1493792125330	-3.2650604	-2.7345734	3.4370422
1493792125351	-3.3125916	-2.6079254	2.9413452
1493792125370	-3.0711975	-2.6455383	2.1910248
1493792125392	-3.2966003	-3.51857	0.41812134
1493792125410	-3.3926544	-4.531555	-1.1283417
1493792125432	-4.0578766	-7.0484314	-3.829605
1493792125452	-5.383667	-11.271866	-9.325226
1493792125471	-6.7810516	-14.9206085	-11.545197
1493792125511	-6.9207	-13.300568	-10.674438
1493792125527	-5.893173	-10.845459	-8.350281
1493792125548	-4.3522186	-10.231506	-4.50679
1493792125568	-5.1529083	-8.4301605	-4.301651
1493792125587	-6.689636	-5.939728	-3.8565521
1493792125609	-8.065506	-11.384186	-6.4548798
1493792125630	-7.54097	-15.676178	-6.087326
1493792125649	-2.642334	-12.53656	1.1411743
1493792125668	-3.0842285	-6.962082	2.4437866
1493792125688	-2.0487976	-5.166565	8.253067
1493792125708	-2.950592	-6.999344	5.4602966
1493792125731	-1.67099	-9.562073	5.5012207
1493792125745	2.7796326	-12.711105	5.0003204
1493792125764	2.9911804	-14.793564	-0.26312256
1493792125783	2.086975	-13.016159	-1.9612579
1493792125804	1.3123932	-10.824081	-1.0139313
1493792125824	-1.0488281	-9.617325	-0.30285645
1493792125845	-2.7290955	-7.897583	0.3895874
1493792125866	-2.7805328	-7.561325	-0.034988403
1493792125886	-2.61026	-9.219543	-0.7565613
1493792125908	-2.0637817	-10.393524	-0.6773071
1493792125927	-0.97579956	-9.791702	-0.61894226
1493792125946	0.028030396	-9.2659	-0.15866089
1493792125967	0.26759338	-9.038147	-0.07551575
1493792125987	0.34907532	-8.830154	-0.4972229
1493792126007	0.20535278	-8.755966	-0.42015076
1493792126026	0.27165222	-9.278	-0.12892151
1493792126046	0.26382446	-9.985016	-0.8282013
1493792126066	0.4262848	-10.210434	-1.117157
1493792126084	-0.1522522	-10.377563	-1.0266113
1493792126106	-0.8718872	-10.789185	-0.7575226
1493792126125	-0.4664154	-11.385651	-0.07574463
1493792126145	0.7579193	-11.801453	0.53826904
1493792126165	1.4806671	-11.399384	1.5254822
1493792126184	0.29606628	-11.008453	0.76872253
1493792126203	-0.32852173	-11.354294	-0.58924866
1493792126221	0.5483856	-12.72168	-0.93608093
1493792126242	1.4821167	-13.653732	-2.4533844
1493792126260	1.616745	-13.258774	-3.531128
1493792126280	-0.2546692	-11.633194	-2.2557678
1493792126299	-2.3561096	-10.331512	-1.1000977
1493792126319	-4.3137054	-10.670715	1.0721588
1493792126343	-6.2002716	-13.063736	2.7539063
1493792126361	-8.414658	-15.238373	2.033905
1493792126380	-8.098877	-15.282562	0.86494446
1493792126401	-5.875122	-13.52536	-0.29333496
1493792126421	-3.508133	-12.4318695	-0.8953705
1493792126442	-1.1600342	-12.124908	0.091415405
1493792126462	1.6931458	-11.986572	-0.18844604
1493792126481	1.65979	-10.4973755	-0.5253906
1493792126502	0.7241516	-8.586136	0.5071106
1493792126521	0.23927307	-6.818985	1.805542
1493792126540	-1.1949158	-4.936798	2.952118
1493792126561	-1.5142212	-2.877472	3.0396729
1493792126582	-2.3497925	-2.138321	3.3879852
1493792126598	-2.7935028	-1.6139526	3.227539
1493792126620	-2.9595795	-1.883194	2.228653
1493792126640	-2.9071045	-2.5273132	0.5255127
1493792126660	-2.6862946	-3.8445892	-0.735672
1493792126680	-3.7088318	-7.4256134	-3.3953094
1493792126718	-6.5757446	-14.049622	-10.946548
1493792126738	-8.912125	-18.415253	-15.137268
1493792126757	-7.032089	-12.043915	-9.8385315
1493792126775	-5.617218	-7.9223022	-6.291565
1493792126794	-4.268326	-7.516571	-3.6172485
1493792126814	-5.7763214	-7.0124207	-4.3232117
1493792126835	-7.4083557	-7.1385956	-2.977951
1493792126857	-7.6533203	-12.030121	-3.4081116
1493792126876	-6.9974976	-14.38501	-2.8796082
1493792126896	-3.7651825	-11.5998535	0.27941895
1493792126916	-0.33805847	-6.3757477	6.439438
1493792126937	-1.024765	-7.1130066	4.754196
1493792126958	1.2622833	-9.276123	5.1081085
1493792126977	3.0045166	-12.212997	4.463684
1493792126994	2.907547	-13.971802	1.0291595
1493792127017	1.6999054	-13.731293	-1.4144135
1493792127036	-1.0630493	-12.597168	-1.0881805
1493792127055	-3.2766113	-10.0924225	-0.59495544
1493792127074	-4.8301544	-7.5930176	0.15562439
1493792127093	-4.485016	-6.823349	0.22294617
1493792127113	-4.093033	-8.014069	-0.22660828
1493792127135	-2.7385254	-9.608627	-0.3179016
1493792127158	0.4908905	-10.251404	-0.2815094
1493792127171	1.7828827	-9.534103	-0.1478424
1493792127191	0.31582642	-8.422806	-0.5997772
1493792127208	-0.24438477	-8.550995	-0.253479
1493792127228	-0.2765503	-9.284439	0.046020508
1493792127252	-0.5382385	-9.737915	0.3840027
1493792127268	-0.56404114	-10.013245	-0.27693176
1493792127287	-0.42770386	-10.119919	-1.0882263
1493792127308	-0.8483124	-10.370865	-1.7376404
1493792127329	-1.4757538	-10.682098	-2.0599823
1493792127349	-1.0009918	-11.061371	-1.1052704
1493792127369	0.3559265	-11.578812	-0.0029449463
1493792127387	1.2348022	-11.733414	0.64193726
1493792127409	0.8854675	-11.639206	0.687973
1493792127430	-0.23616028	-11.476273	-0.7255707
1493792127448	0.34490967	-11.736023	-1.6560822
1493792127471	1.6734009	-13.0703125	-2.583023
1493792127490	3.4026947	-13.615189	-2.8276978
1493792127510	3.8398285	-12.952316	-1.3842163
1493792127527	0.50875854	-11.420166	-1.0519409
1493792127551	-4.098282	-10.332382	-0.30821228
1493792127571	-6.008301	-11.850891	1.262146
1493792127589	-7.13295	-14.539917	2.8606262
1493792127610	-6.718628	-15.018372	3.0217438
1493792127631	-4.9374695	-13.589188	1.0241852
1493792127650	-3.1892242	-13.040024	-0.96865845
1493792127669	0.22419739	-12.777557	-0.83078
1493792127688	5.606659	-12.925583	-0.29171753
1493792127709	2.4464264	-12.265884	-1.6258698
1493792127727	0.21902466	-9.417526	0.1820221
1493792127747	-0.8651428	-7.993805	1.4559784
1493792127765	-0.9068451	-7.1877747	3.119995
1493792127785	-1.4378662	-5.3628235	2.848587
1493792127805	-2.300766	-3.6985016	3.9094238
1493792127825	-3.5333862	-3.0274658	3.0397186
1493792127844	-4.2697296	-2.5809784	2.057129
1493792127886	-3.9287262	-2.825821	0.9412384
1493792127904	-3.655838	-3.6592865	0.093551636
1493792127925	-3.8807373	-4.859329	-0.4721222
1493792127944	-4.3495636	-6.7453613	-1.3639526
1493792127965	-4.9031525	-8.831955	-3.1704407
1493792127984	-5.745697	-11.246292	-6.611313
1493792128004	-6.077194	-13.884613	-9.809479
1493792128026	-5.5799103	-13.825043	-9.702911
1493792128045	-4.330261	-11.167679	-7.7527924
1493792128066	-3.0350494	-9.03685	-5.1439056
1493792128085	-4.2671204	-8.745117	-5.4589233
1493792128105	-6.295746	-13.035141	-5.8409424
1493792128125	-4.690796	-13.239685	-3.4552612
1493792128144	-3.87471	-8.999527	0.3431549
1493792128165	-3.1303406	-8.356857	2.9947968
1493792128185	-2.1547546	-8.158264	3.4190826
1493792128203	-1.6031494	-8.697418	3.460022
1493792128227	0.5849304	-10.0160675	2.8233185
1493792128248	2.339981	-11.875671	1.7960052
1493792128260	2.486084	-13.006912	1.0974579
1493792128281	0.05886841	-12.044266	1.0805206
1493792128302	-1.9832916	-10.268188	0.41513062
1493792128320	-2.8069153	-9.975769	-0.16117859
1493792128340	-3.9932404	-9.503418	-0.04875183
1493792128363	-4.904541	-8.536087	0.50453186
1493792128382	-3.9561768	-7.991165	0.45477295
1493792128401	-3.7140656	-8.098984	-0.34124756
1493792128420	-2.0003967	-8.761307	-0.54585266
1493792128441	0.73127747	-9.476837	-0.24758911
1493792128463	1.302414	-9.399231	-0.030441284
1493792128483	0.24812317	-9.2155	-0.036712646
1493792128503	-0.2980652	-9.509674	0.12892151
1493792128520	-0.8605957	-9.640015	0.6613312
1493792128539	-1.6129303	-9.595245	0.6824951
1493792128556	-1.927948	-9.840134	-0.040496826
1493792128575	-1.7803345	-9.91098	-0.53767395
1493792128595	-1.5887146	-10.121246	-0.48638916
1493792128615	-1.7091675	-10.450562	-0.10122681
1493792128635	-1.4404144	-10.625015	0.22410583
1493792128655	-1.1575623	-10.590866	0.42630005
1493792128678	-0.9855652	-10.218765	0.35839844
1493792128697	-0.48527527	-10.162308	0.39115906
1493792128716	0.16783142	-10.261795	0.7462616
1493792128735	0.4495697	-10.143097	0.8824463
1493792128754	-0.7444	-10.238907	-0.115982056
1493792128773	-0.88327026	-10.682343	-0.4799347
1493792128794	0.48017883	-11.049179	-0.3289032
1493792128814	2.4556732	-11.46138	0.002380371
1493792128834	2.8734283	-12.863113	0.5354614
1493792128857	-2.0969543	-12.582184	-0.30636597
1493792128877	-5.5510406	-11.135483	0.41827393
1493792128896	-5.381424	-9.636612	0.24256897
1493792128918	-5.365967	-9.292328	0.47175598
1493792128939	-5.377533	-9.931534	1.3477325
1493792128957	-4.31987	-9.5889435	1.9939728
1493792128978	-5.6957397	-12.005753	2.1519928
1493792128998	-5.2016144	-13.4496	2.1127625
1493792129015	-3.8409119	-10.031876	1.1006622
1493792129037	-3.2976532	-9.131378	0.21992493
1493792129077	-3.7573853	-10.093353	-0.18191528
1493792129078	-2.4717712	-9.466797	0.93659973
1493792129097	-2.4356537	-8.34021	0.8301697
1493792129137	-2.6437836	-7.1295013	0.5674896
1493792129155	-2.6187286	-6.869583	0.082214355
1493792129177	-2.5075836	-7.0532074	0.4423523
1493792129196	-2.5977478	-7.2522125	0.13757324
1493792129213	-2.8639374	-7.1426086	0.2710266
1493792129235	-3.1292572	-7.587311	0.25454712
1493792129257	-3.174942	-7.5523376	0.38049316
1493792129271	-3.2344818	-8.237122	0.0770874
1493792129290	-3.5888824	-9.732452	-0.9216156
1493792129309	-3.6036835	-10.565643	-2.3639832
1493792129330	-4.915634	-12.179642	-5.238617
1493792129350	-5.5540466	-12.826401	-8.758591
1493792129372	-4.4149323	-12.193512	-10.172272
1493792129392	-3.3385468	-11.508484	-7.4742126
1493792129412	-3.895401	-10.073151	-4.157303
1493792129432	-3.6439514	-8.020996	-2.1408691
1493792129451	-1.6480255	-7.641327	-1.9910583
1493792129474	0.016082764	-8.028854	-1.7684631
1493792129493	-0.69862366	-8.182632	-0.8282013
1493792129512	-2.664688	-7.259094	-0.4623413
1493792129533	-2.606964	-6.8002014	-1.0571747
1493792129552	-2.654602	-6.092865	-1.1721039
1493792129573	-2.6091766	-5.8177185	-0.9151764
1493792129592	-2.6391907	-6.084854	-0.79696655
1493792129613	-2.8835297	-6.7553864	-0.6932068
1493792129632	-3.2911072	-7.2032013	-0.54685974
1493792129651	-3.725647	-7.2441254	-0.34584045
1493792129671	-4.337372	-7.385193	-0.12124634
1493792129692	-4.6607056	-7.6350403	0.1108551
1493792129712	-5.0266724	-8.813568	-0.35157776
1493792129730	-5.799103	-11.029129	-1.2116241
1493792129755	-6.589798	-14.5354	-0.8342438
1493792129766	-8.008804	-17.520538	-2.4483795
1493792129786	-6.588608	-13.30455	-3.78714
1493792129806	-1.127121	-11.342865	-4.883728
1493792129826	2.3479004	-9.569382	-3.9479065
1493792129845	2.014511	-7.845581	-2.2375183
1493792129867	1.9407806	-8.34877	0.6641083
1493792129887	1.2714691	-9.87233	3.030136
1493792129907	-0.8698273	-8.646439	3.5716705
1493792129927	-3.4111633	-8.209122	5.3730774
1493792129947	-3.0088959	-8.69841	3.748642
1493792129968	-1.3449402	-9.1297455	1.6069336
1493792129989	-1.7990265	-9.407013	0.016296387
1493792130008	-1.6263428	-10.415222	-1.4318542
1493792130029	-2.2400055	-10.57251	-0.65000916
1493792130046	-2.9670715	-10.178146	-0.3656311
1493792130068	-3.7704773	-11.098602	1.0044708
1493792130088	-3.1591797	-11.056213	0.45036316
1493792130107	-1.7477417	-10.501389	0.28079224
1493792130127	-2.084076	-10.404404	-0.23718262
1493792130147	-1.8757019	-10.826263	-1.1013794
1493792130166	-1.2151184	-11.448578	-1.4067383
1493792130187	-0.4284668	-12.392731	-0.5758972
1493792130206	0.8492737	-13.169815	0.42762756
1493792130223	1.9322052	-12.643173	1.3734131
1493792130245	1.0953674	-10.426651	3.4551392
1493792130267	-1.6715088	-9.787918	3.2226105
1493792130301	-1.9555511	-10.059387	4.076889
1493792130321	-0.8095093	-11.179779	0.64653015
1493792130341	0.16511536	-11.620026	2.2709656
1493792130362	0.716095	-11.870041	5.543579
1493792130382	3.071457	-10.753952	0.10795593
1493792130402	-3.88385	-9.115509	-0.10832214
1493792130422	-1.1070099	-10.123169	2.8917694
1493792130442	1.4545288	-12.602356	0.69947815
1493792130464	2.7406921	-9.469345	1.7785492
1493792130484	2.4474945	-9.695374	-3.128708
1493792130503	1.3854828	-7.347763	0.4003601
1493792130523	-0.6711426	-8.839233	0.8192291
1493792130543	0.31484985	-8.375381	0.66212463
1493792130563	1.2138519	-8.889832	0.8427887
1493792130583	2.5402527	-10.712097	4.1314697
1493792130603	2.9194489	-11.101822	3.4724426
1493792130622	3.676361	-8.485321	1.1549683
1493792130638	1.9431	-9.275848	2.927475
1493792130658	1.2323151	-9.812714	3.2158813
1493792130676	1.7142334	-10.222641	3.5944672
1493792130695	4.7447815	-10.095047	4.404892
1493792130715	8.822159	-11.043991	3.768509
1493792130735	7.522583	-9.615616	1.2351837
1493792130755	3.7616425	-8.698425	3.2520447
1493792130776	1.605896	-9.006805	7.6666565
1493792130794	1.7576447	-10.297653	10.286636
1493792130813	4.5691986	-8.771088	9.743088
1493792130834	6.461975	-6.4426727	9.171677
1493792130854	5.5837708	-5.637329	9.835815
1493792130874	3.2690887	-5.659561	10.4917145
1493792130893	1.240921	-5.8614655	11.302994
1493792130912	-0.3986206	-6.354004	11.97287
1493792130933	-1.7158813	-6.657242	11.505997
1493792130953	-2.4560394	-5.9839325	9.684158
1493792130973	-2.6829834	-5.142807	7.2631683
1493792130992	-2.128418	-4.384903	5.569748
1493792131012	-1.8065643	-4.4639435	4.9541473
1493792131032	-1.7634277	-4.210037	5.270874
1493792131052	-1.5827026	-3.5932465	5.873398
1493792131071	-1.2969513	-2.989502	6.429077
1493792131091	-0.76963806	-2.7449036	6.0952454
1493792131111	11.381683	-2.36055	13.040512
1493792131131	7.225006	-3.4140625	10.703125
1493792131151	1.845047	-2.563858	7.810089
1493792131171	6.020508	-1.396164	6.3867188
1493792131191	5.281082	-0.526001	5.9607697
1493792131210	1.8266449	0.8791809	6.0055237
1493792131230	2.0568695	1.1670227	7.854355
1493792131250	2.7429047	1.1186066	8.248962
1493792131272	2.197403	0.79629517	8.929947
1493792131291	1.6073608	0.17306519	9.850647
1493792131311	1.123352	1.0873108	9.628632
1493792131331	0.85202026	0.9374695	9.383804
1493792131353	2.6140442	1.0095978	10.270187
1493792131375	2.920578	0.50398254	10.689392
1493792131396	2.6128845	0.48231506	10.382111
1493792131415	1.2904053	0.12686157	10.567368
1493792131433	0.85479736	0.5108948	9.922546
1493792131454	0.71707153	1.1289063	9.392685
1493792131472	0.6902008	1.438858	9.148209
1493792131514	0.17678833	2.5797577	7.319214
1493792131533	-0.008132935	2.0250092	8.722336
1493792131550	0.54933167	2.9386597	8.928635
1493792131569	0.045425415	3.491272	8.955597
1493792131591	-0.52375793	3.3814545	8.795471
1493792131611	-0.17214966	3.8376923	8.12854
1493792131629	-1.4335175	4.556015	8.664902
1493792131651	-1.077179	5.379944	7.967911
1493792131671	-1.1261292	4.651367	8.688797
1493792131693	-0.2630005	4.1077423	8.749252
1493792131711	0.06590271	3.4940186	8.814972
1493792131731	0.16744995	2.9265442	8.42691
1493792131753	-0.44477844	2.921646	8.859283
1493792131768	-0.28378296	3.4776154	8.533752
1493792131787	-1.3508453	4.477768	9.129257
1493792131807	-1.2352448	4.694031	9.404678
1493792131826	-0.541214	3.8508759	9.200897
1493792131847	0.5021057	3.330017	9.18811
1493792131866	-0.15821838	3.0401	9.627991
1493792131892	-0.4544525	3.2884827	9.799072
1493792131910	-0.13148499	3.5529938	9.185532
1493792131928	0.17030334	3.7539215	8.759659
1493792131952	0.28866577	4.084198	8.767029
1493792131969	-0.12991333	3.9801025	8.737061
1493792131991	-0.16680908	3.9876556	8.697189
1493792132004	-0.07826233	4.1526794	8.64476
1493792132024	-0.2035675	4.000992	8.585922
1493792132042	-0.13717651	4.150696	8.491943
1493792132062	-0.27285767	4.327057	8.552887
1493792132082	-0.5050354	4.206482	8.496643
1493792132102	-0.3671875	4.214859	8.406525
1493792132121	-0.40756226	4.177582	8.6128235
1493792132141	-0.5538635	4.0090027	8.910782
1493792132161	-0.54000854	4.050644	8.961639
1493792132181	-0.49299622	4.097702	9.045624
1493792132201	-0.57901	3.9326477	9.08783
1493792132221	-0.54226685	3.8870087	9.061386
1493792132241	-0.5143738	3.917694	9.030533
1493792132260	-0.5413208	4.0285645	8.908356
1493792132281	-0.6390686	3.9372864	8.838394
1493792132300	-0.6704254	3.845398	9.029129
1493792132320	-0.6620178	3.9096985	8.986618
1493792132340	-0.701004	3.935791	8.789917
1493792132360	-0.6371002	3.9181519	8.670258
1493792132379	-0.6390686	3.974121	8.722214
1493792132399	-0.577713	3.9920044	8.875336
1493792132419	-0.5734253	3.9482727	9.113449
1493792132439	-0.5654907	3.9361267	9.052795
1493792132459	-0.52726746	3.806656	8.999191
1493792132478	-0.45596313	3.9208984	8.995789
1493792132498	-0.561676	3.8538666	9.102783
1493792132518	-0.6593323	3.8135834	9.159256
1493792132538	-0.69036865	3.8036804	9.420258
1493792132557	-0.76542664	3.8241272	8.993195
1493792132577	-0.57196045	3.907837	8.809555
1493792132597	-0.5748291	3.925766	8.9292145
1493792132617	-0.7001953	3.8477783	9.139496
1493792132637	-0.7255554	3.7608948	9.036484
1493792132657	-0.698349	3.8344421	8.82695
1493792132676	-0.5418396	3.9377136	9.016113
1493792132718	-0.6592407	3.7747498	9.106522
1493792132736	-0.6283722	3.816101	8.973663
