accelerometer_timestamp	accelerometer_x_data	accelerometer_y_data	accelerometer_z_data
1493858775918	-4.191101	4.6670837	6.723755
1493858775918	-3.7848663	5.0812683	4.9514313
1493858775922	-2.9167633	5.8857574	5.2892
1493858775923	-1.8703308	6.435623	6.400177
1493858775942	-1.8159485	5.957184	7.18277
1493858775962	-2.10289	5.095398	6.8533173
1493858775982	-2.9536896	5.3204193	6.6914825
1493858776002	-3.1343231	5.6158295	6.1931763
1493858776021	-3.3880768	1.8654785	5.0415344
1493858776041	-4.352463	3.8029327	8.904877
1493858776060	-3.6331024	3.1229248	6.9760437
1493858776080	-1.9700775	1.2945557	7.655121
1493858776120	-1.2842865	-0.9869232	9.116913
1493858776139	-0.45825195	1.0116882	12.674484
1493858776159	0.10014343	2.734253	17.623093
1493858776179	-0.036697388	1.7405396	17.015198
1493858776199	0.24240112	-0.1481781	13.001755
1493858776219	-3.0220184	-0.42155457	5.9240417
1493858776239	-4.7110443	3.372055	7.523819
1493858776259	1.7603302	3.3069	11.394852
1493858776278	0.572525	1.2479706	9.703751
1493858776298	0.6014557	3.2884674	6.5125275
1493858776319	-0.16184998	0.5064392	8.411392
1493858776338	2.2158508	-0.08125305	11.445435
1493858776358	3.6893768	0.7889404	9.831192
1493858776378	3.6672363	2.0756989	9.451538
1493858776397	4.2939606	3.8748322	8.0168915
1493858776417	1.1812134	2.2237396	5.3174133
1493858776437	-5.3866577	-0.13868713	5.5280457
1493858776457	-3.007141	-0.40220642	9.503601
1493858776476	2.1323547	2.8458557	14.262283
1493858776496	1.3322906	2.6644135	13.095047
1493858776516	-1.6065369	1.7077789	10.438156
1493858776536	-1.6153107	2.0292206	10.427078
1493858776556	-1.2113647	2.2050476	11.246017
1493858776576	-0.56466675	2.465332	11.701691
1493858776595	0.26197815	2.9990845	10.687332
1493858776615	0.1820221	2.8909912	10.253632
1493858776635	0.2529297	2.7421112	10.923294
1493858776655	0.8177948	2.7331238	10.420029
1493858776675	1.1382294	2.8010864	9.508545
1493858776695	1.3690186	2.3445282	9.64183
1493858776714	0.8263855	1.8795013	11.482239
1493858776734	0.58680725	2.4588623	12.544571
1493858776754	1.5670929	2.4747162	11.82103
1493858776774	1.2820282	1.8321991	10.755798
1493858776793	0.4816742	2.111374	8.768341
1493858776813	0.6830292	2.5925293	6.6531525
1493858776833	1.4944458	3.2347107	8.696594
1493858776853	1.768219	3.4184113	9.888657
1493858776873	1.652008	2.783142	8.189346
1493858776892	1.6051483	1.5328369	8.220352
1493858776914	0.6450043	2.5205688	8.446091
1493858776932	1.6609344	4.6820984	9.000565
1493858776952	0.8768616	3.3067932	8.53746
1493858776972	-0.4837036	2.3698273	7.5964203
1493858776991	-0.5868988	2.1570892	8.996796
1493858777011	1.5139313	2.6338348	11.574692
1493858777031	0.9569397	3.410553	8.391937
1493858777051	-0.016326904	3.5353851	7.6907806
1493858777070	-0.04837036	2.740448	9.121246
1493858777090	0.23626709	3.4427185	9.750198
1493858777110	1.1011658	4.2842712	9.531052
1493858777130	1.078476	3.8538055	8.061295
1493858777150	1.539032	3.7831879	5.6254272
1493858777170	2.4944	3.3274536	3.8375854
1493858777203	2.4088745	0.9868469	5.1049347
1493858777240	2.585785	-1.4856415	7.848343
1493858777240	1.8495026	-3.3528595	8.592407
1493858777251	3.0219421	-5.0795593	5.1790924
1493858777270	4.7586517	-3.6452026	2.2983246
1493858777289	8.554169	0.16958618	0.49746704
1493858777328	5.310791	-3.1070557	-2.0637512
1493858777348	3.0949097	-7.6856995	-0.560379
1493858777368	4.5045166	-8.289124	1.2836761
1493858777387	7.8006744	-7.3604584	0.3974762
1493858777407	9.531799	-9.4869995	-0.05999756
1493858777427	11.123566	-9.765472	1.652359
1493858777447	12.330292	-10.947006	0.96203613
1493858777467	12.588196	-12.344925	3.1735535
1493858777486	14.631058	-12.408859	4.5323334
1493858777507	19.461044	-10.799667	5.1785736
1493858777526	19.461044	-6.927017	2.8321075
1493858777547	19.461044	-2.4336243	1.512619
1493858777566	19.461044	-0.59765625	1.7298279
1493858777586	19.025864	-0.41908264	-0.6034241
1493858777606	16.530273	-1.1022491	-2.434906
1493858777625	11.563065	-2.6288605	-5.827057
1493858777645	4.907547	-5.932602	-8.854538
1493858777665	1.8044739	-6.9248657	-4.6513977
1493858777685	3.6938171	-5.3175354	-3.8668213
1493858777705	7.4214783	-3.5727234	-5.181122
1493858777727	10.476532	-3.759552	-3.247818
1493858777744	13.198166	-6.3169556	0.9307709
1493858777764	9.560684	-12.379364	4.664749
1493858777784	2.5337372	-15.957443	7.014618
1493858777803	4.723633	-10.244568	1.0611877
1493858777823	6.5843353	-7.032913	-1.2433167
1493858777843	6.4465637	-5.1493835	-1.2968903
1493858777863	7.1580353	-3.262558	-0.19416809
1493858777883	7.72348	-3.8566742	1.6371155
1493858777904	9.313705	-5.858856	2.8260803
1493858777922	12.123459	-6.912323	1.3135529
1493858777942	11.925842	-7.5395355	-0.42596436
1493858777962	9.82872	-6.762375	0.19702148
1493858777982	10.9534	-5.012451	1.7077942
1493858778002	11.95018	-2.853897	0.73609924
1493858778022	6.133606	-5.1259003	0.5702362
1493858778041	2.1206512	-5.043045	1.7259064
1493858778065	5.8440704	-4.321747	2.1586914
1493858778081	6.053665	-3.069687	1.0371094
1493858778101	6.4898987	-1.9887085	0.82164
1493858778122	4.913025	-1.1489105	0.7109375
1493858778141	1.0771179	-1.4397125	0.3159485
1493858778160	2.3725739	-2.9844208	1.5032196
1493858778180	5.6140747	-2.8796387	0.5966034
1493858778200	11.799637	-3.3550262	0.9705963
1493858778219	14.897415	-1.9084167	1.1456604
1493858778239	12.03511	-5.4252014	-0.5917511
1493858778259	9.547882	-10.915482	-0.514801
1493858778279	10.890381	-13.120804	0.7909241
1493858778299	11.764282	-11.576523	0.12257385
1493858778318	9.036987	-9.836456	-0.9235687
1493858778338	10.1458435	-4.7209167	-0.53022766
1493858778358	7.351761	-0.42134094	1.3256683
1493858778378	8.152847	-4.569107	0.691864
1493858778398	7.1815186	-7.7730103	0.04953003
1493858778418	6.1461334	-10.220596	1.4161682
1493858778437	7.07605	-10.65712	0.19551086
1493858778457	6.96167	-9.11792	1.5618439
1493858778477	8.324448	-5.605957	0.35040283
1493858778497	7.8066406	-5.514023	-0.4657135
1493858778536	8.787933	-5.406555	0.40013123
1493858778556	9.286819	-6.9138794	2.583786
1493858778576	9.200577	-6.993973	2.827591
1493858778596	8.153809	-7.024811	-4.106903
1493858778616	7.9210205	-8.175156	1.1478882
1493858778635	7.432724	-5.880081	-0.018173218
1493858778655	3.1931458	-4.1800995	-1.002182
1493858778675	1.9576416	-6.183563	2.1918335
1493858778695	7.725601	-2.5844421	0.661911
1493858778715	8.268204	-3.2248535	0.8478546
1493858778735	2.014801	-5.2554474	-1.0297089
1493858778754	-4.46521	-7.6410217	-3.9833832
1493858778774	-2.5481567	-6.0358887	0.78152466
1493858778794	1.6011963	-7.45636	-0.067977905
1493858778814	2.1024017	-10.9179535	0.32287598
1493858778834	5.1345367	-9.577911	-2.252533
1493858778853	3.352188	-12.683517	2.4264984
1493858778873	4.702408	-16.000183	3.8776855
1493858778893	13.2157135	-9.772705	0.73805237
1493858778913	-1.6723022	-13.715683	2.8838196
1493858778933	-4.1957397	-11.318893	-0.16021729
1493858778952	-3.2929688	-7.7006226	-0.50035095
1493858778972	-1.3588104	-5.4813385	3.4003296
1493858778992	-3.3178558	-6.612488	2.232544
1493858779012	-3.004898	-4.653244	2.2884064
1493858779032	-2.5038452	-4.267151	2.1935272
1493858779052	-3.6765747	-5.5466614	0.82580566
1493858779072	-3.2838135	-6.3836365	-0.06188965
1493858779091	-1.16893	-8.369598	-2.6473694
1493858779112	0.72702026	-11.161865	-6.2500305
1493858779132	2.3287964	-13.738586	-11.201584
1493858779653	6.049698	-14.253357	-10.914658
1493858779653	7.6343536	-12.0295105	-3.965149
1493858779653	5.6897736	-9.970322	-1.6057587
1493858779653	3.6620789	-8.714142	-2.7012177
1493858779653	2.7417603	-7.0930634	-3.0016174
1493858779653	1.9153595	-8.532715	-0.9674988
1493858779653	0.0990448	-14.326736	0.6558838
1493858779653	-0.7384186	-16.860321	0.52986145
1493858779653	-4.2210083	-12.348282	-2.9990234
1493858779653	-8.938889	-5.159561	0.54582214
1493858779653	-8.38443	-2.6310272	9.026093
1493858779654	-2.651413	-7.62883	6.9581757
1493858779654	0.903595	-12.745651	2.1129303
1493858779654	4.5922394	-14.322006	0.77908325
1493858779654	6.6606293	-12.740723	2.3720093
1493858779654	4.2208405	-10.024475	2.4467163
1493858779654	0.549881	-9.099686	1.7866211
1493858779654	-1.9923096	-9.26181	1.5458527
1493858779654	-2.8236084	-9.378403	1.7692566
1493858779654	-2.1774292	-9.979172	1.2808533
1493858779654	-1.3833923	-10.310562	-0.14157104
1493858779654	-0.63253784	-9.603821	-0.65834045
1493858779654	0.43029785	-8.598236	0.4876709
1493858779654	1.3041687	-7.7706604	1.3795319
1493858779654	1.34021	-8.139877	2.3865204
1493858779654	0.94880676	-9.168472	2.8902588
1493858779667	1.2340698	-9.929474	2.3920593
1493858779687	1.5686646	-10.103241	0.3032837
1493858779706	2.203415	-10.064819	-2.375946
1493858779726	2.6172485	-10.334061	-2.540039
1493858779746	1.6615906	-10.804291	-0.15585327
1493858779786	-0.31706238	-11.38678	0.52893066
1493858779805	0.24902344	-11.689026	-1.0197906
1493858779825	3.1853027	-11.673996	-0.49134827
1493858779845	6.101242	-13.103226	-1.0052795
1493858779865	7.570389	-14.881744	-0.10331726
1493858779885	5.3542175	-14.168961	0.24050903
1493858779904	0.04071045	-13.659515	-4.485718
1493858779924	-2.5723267	-12.409775	-3.5893402
1493858779944	-2.9729156	-10.396088	2.6876678
1493858779964	-3.5154266	-10.924118	6.5297394
1493858815297	-2.4889374	-13.994064	7.439453
1493858815297	-1.1275177	-15.416107	0.4170227
1493858815297	-0.6227722	-14.286255	-5.110916
1493858815297	0.8580322	-11.701035	1.6138
1493858815297	2.7635956	-10.438324	5.287369
1493858815297	2.1081696	-9.753159	2.3935394
1493858815297	-0.27742004	-8.531616	0.42982483
1493858815297	-2.5873718	-7.1733856	1.5318756
1493858815297	-3.317337	-6.098938	1.740982
1493858815297	-3.0386047	-5.982971	1.4244995
1493858815297	-2.1518097	-5.8326263	1.4746094
1493858815297	-2.567276	-4.7661285	2.4473267
1493858815297	-3.2194061	-2.8509827	3.110611
1493858815297	-3.2221985	-1.7754822	3.4074707
1493858815297	-1.4934387	-3.6495667	1.6878204
1493858815297	1.4674225	-8.484909	-4.3090515
1493858815297	6.5568237	-15.235931	-13.94635
1493858815297	11.669907	-19.474823	-11.79895
1493858815297	7.2740936	-15.686325	-2.188675
1493858815297	0.3513794	-8.616074	-2.8821106
1493858815297	-3.5963287	-6.9033966	-2.3147278
1493858815297	-3.5935364	-12.392761	-3.7407837
1493858815298	0.5749054	-16.061676	-0.17547607
1493858815298	2.1090698	-11.742798	4.3889008
1493858815298	-2.9347076	-6.000229	3.0410767
1493858815298	-6.5439606	-3.9579926	5.8878326
1493858815298	-4.298126	-7.835724	6.764786
1493858815298	-0.7292938	-12.595367	4.208542
1493858815298	2.8356934	-13.149918	2.8144836
1493858815298	5.2210236	-11.533463	2.195877
1493858815298	3.60495	-10.040375	0.8613281
1493858815298	0.36480713	-9.155792	1.3756104
1493858815298	-1.9586029	-8.888916	2.1565857
1493858815298	-2.9469147	-9.257751	1.02948
1493858815298	-2.2630768	-9.806229	0.3946991
1493858815298	-0.78637695	-9.737061	-0.16435242
1493858815298	0.37132263	-9.000183	-0.37594604
1493858815298	1.2007751	-8.138794	0.43377686
1493858815298	1.2815094	-7.8917084	1.5749817
1493858815298	1.112793	-8.223145	2.0934753
1493858815298	0.78556824	-9.793106	2.2410583
1493858815298	0.9861603	-11.000656	0.9427185
1493858815298	2.0188904	-11.060425	-1.6181641
1493858815298	2.9707642	-11.301559	-2.755539
1493858815298	2.444107	-11.497589	-1.5509796
1493858815298	0.6247406	-11.339142	-1.7822113
1493858815298	1.4923553	-11.500916	-2.2129364
1493858815298	4.5878143	-12.080978	-2.2164154
1493858815299	8.551727	-13.737061	-2.2987976
1493858815299	8.01091	-14.49556	-1.0440369
1493858815299	2.3890839	-14.636856	-2.9619904
1493858815299	-3.1027985	-14.79393	1.4556122
1493858815299	-4.4911346	-12.602066	4.1137695
1493858815299	-5.2264557	-13.254059	4.1539307
1493858815299	-4.532837	-15.810394	4.832199
1493858815299	-4.358536	-15.77446	3.304123
1493858815299	-2.9105835	-13.108765	0.09539795
1493858815299	2.2105713	-9.742447	0.310318
1493858815299	6.5380554	-8.740845	1.0918274
1493858815299	4.871277	-8.29953	0.5797272
1493858815299	1.2389069	-7.954239	0.051574707
1493858815299	-1.501358	-6.6261597	1.7141113
1493858815299	-3.3566284	-5.3034363	2.692154
1493858815299	-4.654846	-4.8979034	3.5362396
1493858815299	-5.320343	-4.883972	3.5673828
1493858815299	-4.7735596	-4.5429077	3.0102844
1493858815299	-3.2083588	-3.7908173	2.5726624
1493858815299	-1.4324188	-3.668808	1.6590881
1493858815300	0.18833923	-5.329422	-0.13996887
1493858815300	1.1589508	-9.580612	-4.831314
1493858815300	4.5395966	-15.399017	-13.283524
1493858815300	11.197067	-19.474823	-13.976212
1493858815300	8.103378	-16.602112	-4.1029663
1493858815300	1.6755829	-9.558212	-3.0171661
1493858815300	-2.520584	-8.115814	-0.7069855
1493858815300	-4.228653	-13.149811	-0.721756
1493858815300	-1.7930603	-14.164261	1.039566
1493858815300	-1.2193756	-9.725876	2.0804596
1493858815300	-2.8704224	-6.2009735	2.9989777
1493858815300	-4.284027	-6.257721	7.3152466
1493858815300	-2.915512	-9.319824	5.8733063
1493858815300	-0.5085907	-11.647446	3.2126617
1493858815300	2.6891785	-11.137741	3.0239716
1493858815300	4.8544617	-10.483231	2.673996
1493858815300	3.6545563	-10.167404	1.4150848
1493858815300	0.6495056	-9.644806	1.3975983
1493858815300	-2.0312958	-9.3298645	2.044403
1493858815300	-3.2349854	-9.449081	1.5936432
1493858815300	-2.6295624	-9.47821	0.3304901
1493858815300	-1.2940063	-9.273636	0.42230225
1493858815300	0.13319397	-8.875488	0.77279663
1493858815300	1.3088379	-8.354355	1.3696289
1493858815303	1.963623	-8.418152	1.3661652
1493858815303	2.655548	-9.361588	1.8171082
1493858815303	2.8651123	-10.421814	1.7371368
1493858815303	2.5368042	-10.413605	-0.27244568
1493858815303	2.9927673	-10.241196	-2.513794
1493858815303	3.371582	-10.968079	-1.6796265
1493858815303	1.3610992	-11.248657	-0.6041565
1493858815303	0.20957947	-11.564453	-2.5921173
1493858815303	3.6029205	-12.302673	-2.876648
1493858815303	7.435547	-13.044128	-2.5440521
1493858815304	9.437637	-13.921036	-1.6880798
1493858815304	6.404846	-14.335556	-1.597702
1493858815304	-1.1598816	-15.377853	-5.404236
1493858815304	-5.8055115	-14.434204	-1.3508606
1493858815304	-4.6921997	-12.097122	7.1981354
1493858815304	-4.8776703	-13.256882	6.9042206
1493858815304	-4.7270355	-15.756012	2.2201538
1493858815304	-4.5579987	-16.283447	-1.0106201
1493858815304	-0.054382324	-12.485092	0.22492981
1493858815304	6.6578217	-9.8111725	1.8415375
1493858815304	5.0019073	-9.351837	1.4899292
1493858815304	0.8687744	-8.030731	0.14474487
1493858815304	-2.3657074	-6.972931	0.9163208
1493858815304	-3.2135468	-5.4303284	2.5753784
1493858815304	-3.771103	-4.5290375	2.9233704
1493858815304	-3.557251	-4.7435303	2.4692688
1493858815304	-2.7373657	-4.7494354	2.2930756
1493858815304	-2.685669	-3.5423737	3.045868
1493858815304	-2.8354187	-1.7957001	3.3601532
1493858815304	-2.402008	-2.4203644	2.6663055
1493858815304	-0.57359314	-6.221863	-0.21046448
1493858815304	3.3280945	-13.144974	-8.877579
1493858815304	10.003479	-19.474823	-19.529312
1493858815304	11.761215	-18.348694	-15.13327
1493858815304	2.8896027	-12.825378	-4.0765076
1493858815304	-1.7509003	-5.5493774	-1.2221222
1493858815304	-3.0348969	-5.921982	0.58843994
1493858815305	-2.2236023	-13.077621	2.6344757
1493858815305	-0.69003296	-15.054764	0.50946045
1493858815305	-0.9828186	-10.972488	-1.6132507
1493858815305	-2.9109344	-6.0968018	6.6631165
1493858815305	-4.168045	-6.139267	6.399811
1493858815305	-1.8126068	-9.495804	3.6460724
1493858815305	0.9749756	-11.065277	3.5451813
1493858815305	3.2588043	-10.429703	3.1279144
1493858815305	3.7087708	-10.504852	1.7724762
1493858815305	1.802063	-10.524963	1.0319366
1493858815305	-0.58631897	-9.801239	1.6732941
1493858815305	-2.3275604	-9.452972	1.7755127
1493858815305	-2.7246857	-9.344543	1.0115967
1493858815305	-1.7585907	-9.183441	0.78318787
1493858815305	-0.56959534	-9.01149	1.2556305
1493858815305	0.5729828	-8.847885	1.3581085
1493858815305	1.6845703	-8.692963	1.2569275
1493858815305	2.6485748	-8.913483	1.4477539
1493858815305	3.1417694	-9.7812195	1.7375946
1493858815305	2.7200775	-10.420898	0.9840393
1493858815305	1.9784698	-10.441254	-0.8640137
1493858815305	1.6997833	-10.654678	-1.672287
1493858815305	1.1131439	-11.450211	-1.2198181
1493858815305	0.48640442	-11.692093	-1.0541687
1493858815305	1.3014374	-11.77124	-1.7595215
1493858815305	3.3267517	-11.677872	-1.5886841
1493858815306	4.209671	-11.531387	-2.0100403
1493858815306	4.5447845	-12.259918	-3.8450623
1493858815306	5.599289	-13.186737	-2.9233398
1493858815306	3.7261505	-13.786652	-3.8603516
1493858815306	0.1836853	-13.486267	-3.1251068
1493858815306	-2.6291962	-12.475388	2.5286865
1493858815306	-3.9564972	-13.5390625	7.5550385
1493858815306	-4.509094	-15.236954	5.0842285
1493858815306	-5.109268	-17.24382	1.408905
1493858815306	-3.984253	-16.06285	-1.1174927
1493858815306	1.3621063	-11.439789	0.54522705
1493858815306	7.177246	-8.993378	1.318985
1493858815306	4.360916	-8.075806	-0.607666
1493858815306	0.9203949	-7.086258	0.3894348
1493858815306	-1.8756256	-6.161972	2.5909424
1493858815306	-3.8327026	-4.6717834	2.6268463
1493858815306	-4.7218323	-4.30809	2.7916718
1493858815306	-4.032959	-5.0729675	2.379776
1493858815306	-3.2324982	-4.6685486	2.769226
1493858815306	-3.548462	-3.3506317	3.285553
1493858815306	-3.296585	-2.7041473	2.732727
1493858815306	-1.9938965	-4.576462	0.97442627
1493858815306	1.7077942	-9.668198	-4.9565277
1493858815306	7.306717	-16.358185	-16.458588
1493858815306	14.946381	-19.231903	-16.472595
1493858815306	6.551697	-16.455505	-1.8555603
1493858815306	1.4579163	-8.648636	-3.1603699
1493858815307	-1.4565277	-5.5259705	-1.9395447
1493858815307	-2.1552887	-8.729218	1.9764099
1493858815307	-1.1534576	-13.861954	1.8810883
1493858815307	-1.3911133	-13.55957	0.057403564
1493858815307	-2.0090485	-9.380829	-4.1306
1493858815307	-5.3377533	-6.100189	7.3955994
1493858815307	-4.5233154	-7.2273254	6.6970825
1493858815307	-1.5632019	-10.837631	3.072937
1493858815307	1.7449493	-11.494965	2.793808
1493858815307	4.7122345	-10.464798	3.3944092
1493858815307	4.4214935	-10.114426	2.9372253
1493858815307	0.9907837	-9.937424	1.1134491
1493858815307	-2.1715088	-9.423859	1.0379639
1493858815307	-3.182022	-9.297607	1.2737274
1493858815307	-2.4658813	-9.467392	0.8314514
1493858815307	-0.9402771	-9.399582	0.5813141
1493858815307	0.2613678	-9.21788	0.5445099
1493858815307	1.0208282	-9.11058	1.0091553
1493858815307	1.5120392	-8.818298	1.7134247
1493858815307	1.9907837	-8.864883	2.148285
1493858815307	2.4786224	-9.802689	2.3372955
1493858815307	2.4644928	-10.450928	1.1714172
1493858815308	2.3752747	-10.455658	-1.7038879
1493858815308	2.9279938	-10.896149	-3.0217133
1493858815308	2.824707	-11.521271	-1.3377991
1493858815308	1.3003235	-11.709335	-0.6371918
1493858815308	1.0024414	-11.728348	-1.7447052
1493858815308	2.995758	-11.761429	-1.7900696
1493858815308	4.396408	-12.1540985	-1.9898224
1493858815308	5.8253326	-13.044571	-2.121231
1493858815308	5.513199	-13.614044	-1.0363159
1493858815308	2.2207642	-14.225815	-3.817215
1493858815308	-2.141861	-13.750046	-1.9438324
1493858815308	-4.0334167	-11.65303	3.7742615
1493858815308	-4.7756042	-11.632751	7.0992737
1493858815308	-3.3439484	-13.507492	4.1263885
1493858815308	-3.007904	-15.790848	-0.22659302
1493858815308	-2.3040009	-14.911728	-1.1084137
1493858815308	1.1149902	-11.128296	1.0475616
1493858815308	4.5112915	-9.285934	2.635498
1493858815308	3.6156921	-8.556137	1.1117096
1493858815308	0.6111908	-7.88118	0.11921692
1493858815308	-1.9197235	-6.8487244	2.0575714
1493858815308	-3.567505	-5.463867	2.1066895
1493858815308	-4.1952515	-5.013275	2.1952057
1493858815308	-3.853241	-5.152878	1.6421509
1493858815308	-2.5737152	-4.4744873	2.4825287
1493858815308	-2.2227325	-2.6528473	3.0872345
1493858815308	-1.8477631	-1.9201508	2.6976624
1493858815309	-0.7859955	-4.005951	1.1067352
1493858815309	1.4138641	-10.53009	-5.6595306
1493858815309	4.7231445	-18.167725	-18.047318
1493858815309	14.50235	-19.267838	-18.140366
1493858815309	5.7497406	-16.327835	-4.422882
1493858815309	-1.437027	-7.4133606	-1.4437866
1493858815309	-3.3011475	-6.3326416	-1.5975037
1493858815309	-1.2389526	-13.187164	-1.4197693
1493858815309	1.1021576	-14.599991	4.170105
1493858815309	-2.361847	-8.985474	4.6007385
1493858815309	-6.028702	-5.553314	-2.6652527
1493858815309	-5.196762	-6.593384	8.08078
1493858815309	5.187988E-4	-10.517426	6.9990845
1493858815309	1.5932465	-12.303345	3.0565796
1493858815309	2.9709167	-11.087753	2.0861359
1493858815309	3.0182495	-10.186218	2.079834
1493858815309	0.8510437	-9.934845	1.9881744
1493858815309	-1.5625763	-9.343323	2.0688934
1493858815309	-2.9876556	-9.077621	1.3558502
1493858815309	-2.8727112	-9.236542	0.42134094
1493858815309	-1.568512	-9.127823	0.5018463
1493858815309	-0.30046082	-8.942566	0.035888672
1493858815309	0.66145325	-8.933899	0.14569092
1493858815309	1.2362213	-9.011612	0.70640564
1493858815309	1.6707306	-9.253799	0.7240753
1493858815309	2.4390564	-9.731796	1.1591492
1493858815310	2.7756348	-10.223419	1.2064209
1493858815310	2.751419	-10.385605	-0.28474426
1493858815310	2.8242035	-10.732407	-1.5308228
1493858815310	1.8218994	-11.497513	-1.1502991
1493858815310	-0.2217865	-11.770279	-0.78964233
1493858815310	-0.3526764	-11.820374	-1.4886932
1493858815310	2.02417	-11.9040985	-1.1647339
1493858815310	4.114273	-12.127869	-1.0214691
1493858815310	5.692505	-12.994232	-1.9152374
1493858815310	6.3082275	-13.012894	-1.1803589
1493858815310	3.7572021	-13.319992	-2.7950897
1493858815310	-0.58551025	-13.609695	-3.7891998
1493858815310	-2.7611847	-12.328293	-0.5086975
1493858815310	-3.4526978	-11.440979	6.565216
1493858815310	-4.2897034	-12.65007	6.7950287
1493858815310	-4.048233	-15.464401	1.9423218
1493858815310	-4.218704	-16.263245	-0.6421509
1493858815310	-0.54325867	-12.8377075	-0.05807495
1493858815310	4.5214844	-9.788269	2.9312286
1493858815310	5.5180206	-8.666595	1.1278839
1493858815310	2.369278	-7.5629883	-0.80104065
1493858815310	-0.63316345	-6.576187	1.3827057
1493858815310	-2.4442139	-5.2723236	2.7247314
1493858815310	-3.5700378	-4.6977386	2.5122528
1493858815310	-3.3800507	-5.312271	2.7338715
1493858815310	-2.637741	-5.4573975	2.4250336
1493858815311	-2.7948303	-4.145874	2.816162
1493858815311	-2.872406	-2.5273438	2.9379272
1493858815311	-2.033142	-3.5706024	1.9165955
1493858815311	0.39024353	-8.158569	-2.5157928
1493858815311	1.3028259	-14.953674	-11.846344
1493858815311	9.833557	-19.474823	-19.536285
1493858815311	10.1154785	-19.220413	-6.234253
1493858815311	2.069931	-11.347031	-3.5675201
1493858815311	-1.5289459	-6.178192	-0.950119
1493858815311	-0.6806488	-5.4561615	1.0487518
1493858815311	1.0887451	-11.979492	1.6300964
1493858815311	-0.24313354	-15.046326	2.9930115
1493858815311	-3.3585968	-13.170776	-9.775513
1493858815311	-4.8133545	-7.8899994	2.6338959
1493858815311	-4.7805023	-4.8450623	12.753143
1493858815311	-3.804535	-7.8683014	6.7066345
1493858815311	-1.0101471	-11.910202	1.0760803
1493858815311	2.17836	-11.214233	2.4532013
1493858815311	4.055893	-10.729538	3.5274963
1493858815311	2.846222	-10.745377	1.9060059
1493858815311	-0.23492432	-9.77565	1.065979
1493858815311	-2.2128296	-9.408936	1.311264
1493858815311	-2.7581177	-9.5494995	1.2908936
1493858815311	-2.3682098	-9.868973	0.6561432
1493858815311	-1.293045	-9.3237	0.7071686
1493858815311	-0.17106628	-8.461594	1.2799835
1493858815311	0.8097687	-8.284439	1.2502747
1493858815312	1.8016357	-8.628784	1.0976868
1493858815312	2.5588226	-9.196686	1.6286926
1493858815312	2.286621	-9.692169	1.702301
1493858815312	1.2789154	-10.198715	0.7444916
1493858815312	0.6655731	-10.556015	-1.1539154
1493858815312	1.3748016	-10.952393	-2.3922577
1493858815312	2.550583	-11.417465	-1.9492493
1493858815312	2.4348145	-11.524002	-1.5136871
1493858815312	2.2149353	-11.539902	-1.6421814
1493858815312	3.2563171	-11.613968	-1.2322845
1493858815312	4.620056	-12.593918	-2.2659302
1493858815312	5.6407166	-13.929993	-2.8205261
1493858815312	4.4082794	-13.746826	-2.8440247
1493858815312	0.42123413	-13.691376	-3.6056213
1493858815312	-3.265686	-13.238083	-1.6646729
1493858815312	-3.6137695	-11.956284	4.914093
1493858815312	-3.7963867	-13.018829	8.136978
1493858815312	-3.4968567	-15.19603	4.6723175
1493858815312	-3.3736725	-16.345413	-1.3097992
1493858815312	-0.82392883	-13.966049	-1.9898376
1493858815312	3.2880402	-10.823593	2.0386505
1493858815312	3.9402008	-9.215515	1.7041473
1493858815312	1.7546387	-7.801956	0.53733826
1493858815312	-1.1390533	-6.9060364	1.8524628
1493858815312	-2.7057648	-5.6997375	2.1267395
1493858815312	-3.0025635	-4.826584	2.149063
1493858815312	-2.6059723	-5.2587433	1.5737152
1493858815313	-1.9239502	-5.3946686	1.7484283
1493858815313	-2.3662262	-4.2944794	2.8056183
1493858815313	-3.463272	-2.4306335	3.7630005
1493858815313	-3.398117	-2.5333862	2.9933624
1493858815313	-1.2479248	-5.3531494	1.2714386
1493858815313	0.5072479	-11.782745	-6.075943
1493858815313	4.6910706	-19.06424	-18.976974
1493858815313	15.961685	-19.474823	-16.382309
1493858815313	6.285721	-14.424179	-2.953537
1493858815313	-1.1671448	-6.7391663	-0.5193939
1493858815313	-4.1039124	-4.0875854	0.56321716
1493858815313	-2.6981964	-12.894165	-0.85650635
1493858815313	0.25907898	-16.404251	0.82933044
1493858815313	-0.17626953	-12.7226715	-2.0839539
1493858815313	-3.2580261	-5.9403534	5.15477
1493858815313	-6.5674133	-3.9570465	7.7871246
1493858815313	-4.535492	-9.11058	6.108032
1493858815313	-1.5243378	-12.993301	2.9673462
1493858815313	2.493988	-11.707977	2.9623566
1493858815313	5.2158356	-10.574646	2.9990387
1493858815313	2.7819366	-10.194611	0.994812
1493858815313	-1.206665	-9.64595	1.0631561
1493858815313	-2.8198395	-9.291885	1.6276398
1493858815313	-2.9833984	-9.392731	1.1101532
1493858815313	-1.8372192	-9.26384	0.3986969
1493858815314	-0.46510315	-8.842743	0.25080872
1493858815314	0.5804596	-8.551315	1.1282959
1493858815314	1.270752	-8.458298	1.1671906
1493858815314	1.6874542	-8.883377	1.160675
1493858815314	1.7308502	-9.847931	1.661377
1493858815314	1.7543945	-10.462082	1.2415924
1493858815314	1.6902161	-10.428345	0.0029449463
1493858815314	1.6585693	-10.422546	-1.304596
1493858815314	1.5632172	-11.111755	-1.3496704
1493858815314	0.90226746	-11.678238	-1.1395569
1493858815314	0.49873352	-11.675888	-1.5107269
1493858815314	1.8706207	-11.640213	-1.7792816
1493858815314	4.3059845	-12.068237	-1.4049072
1493858815314	6.2812805	-13.085449	-1.3374023
1493858815314	6.7689514	-13.658417	-0.6730652
1493858815314	3.2967377	-14.22757	-2.4052124
1493858815314	-2.0267944	-14.404938	-3.762146
1493858815314	-4.830261	-12.831787	0.30786133
1493858815314	-5.442215	-11.746704	5.1650085
1493858815314	-4.946335	-13.066055	5.7049255
1493858815314	-4.2373047	-15.101837	2.87883
1493858815314	-3.3129578	-14.936707	-1.1072845
1493858815315	-0.022201538	-12.142731	-0.9125519
1493858815315	4.014618	-9.953186	2.6598206
1493858815315	4.009079	-8.995758	2.4079742
1493858815315	1.1138153	-7.997818	0.041275024
1493858815315	-1.5022125	-6.8965454	1.2349548
1493858815315	-3.306778	-5.5742645	2.2904358
1493858815315	-3.8510437	-4.7588196	2.3105164
1493858815315	-3.4785004	-5.001602	2.0198975
1493858815315	-2.6855316	-4.790146	2.0379944
1493858815315	-2.742157	-3.386078	2.6510468
1493858815315	-2.8344269	-1.9687805	2.7580109
1493858815315	-2.1337128	-2.7379913	2.2516785
1493858815315	0.24821472	-7.132965	-0.76460266
1493858815315	1.9752197	-14.108093	-8.97261
1493858815315	10.81572	-18.917526	-18.500458
1493858815315	12.45195	-19.474823	-8.223984
1493858815315	5.273819	-12.236938	-5.3392487
1493858815315	-0.4434204	-5.7429504	-0.2527771
1493858815315	-4.8097687	-7.758148	4.1194916
1493858815315	-1.2815399	-12.967758	4.746399
1493858815315	-1.9849243	-14.734802	-2.3275604
1493858815315	-2.3008728	-11.9383545	-8.891586
1493858815315	-3.6803284	-5.2986755	10.418716
1493858815315	-4.6849213	-4.671051	8.565277
1493858815315	-3.5666656	-9.807938	3.509369
1493858815316	0.3639679	-11.574799	1.4890594
1493858815316	3.8289185	-11.346939	2.620758
1493858815316	4.197525	-11.445557	2.4468079
1493858815316	2.2700348	-10.269211	1.4641418
1493858815316	-1.0297699	-9.311081	1.9303436
1493858815316	-2.9056091	-9.235275	1.2320709
1493858815316	-3.44133	-9.545258	1.2258911
1493858815316	-2.2713623	-9.78035	0.6955719
1493858815316	-1.2008209	-9.36528	0.4801178
1493858815316	-0.20092773	-8.612244	1.2587738
1493858815316	0.682724	-8.053574	2.0019836
1493858815316	1.552185	-8.148666	2.1519775
1493858815316	1.9663544	-9.088699	2.4738464
1493858815316	1.5830994	-9.999817	2.0297241
1493858815316	0.92204285	-10.244141	-0.12698364
1493858815316	1.384018	-10.353897	-2.0394287
1493858815316	2.1914978	-11.157135	-1.4021301
1493858815316	1.9163055	-11.79512	-0.14698792
1493858815316	1.0105286	-11.984238	-0.4515381
1493858815316	1.6869049	-11.9861145	-1.1942444
1493858815316	2.957077	-12.032898	-1.5975647
1493858815316	4.095825	-12.630661	-2.578949
1493858815316	5.3832855	-13.664032	-2.1232758
1493858815316	4.1492004	-14.255234	-2.416748
1493858815316	0.15811157	-13.975403	-4.5160217
1493858815316	-3.3976746	-12.650925	-2.3111267
1493858815316	-4.665756	-11.656876	3.9260864
1493858815317	-4.966034	-12.930176	7.2149506
1493858815317	-4.3479156	-15.053879	4.6493225
1493858815317	-3.1993256	-15.879532	-0.076919556
1493858815317	-0.37245178	-13.667679	-1.9912109
1493858815317	3.9261475	-10.396896	1.6280518
1493858815317	4.220276	-8.707764	2.817566
1493858815317	1.3681793	-7.3902435	0.9445343
1493858815317	-1.1170349	-6.3405	0.9712372
1493858815317	-2.5308228	-5.419922	2.1714935
1493858815317	-3.5726624	-4.9184265	2.2166138
1493858815317	-3.4204712	-5.2063446	1.9715118
1493858815317	-2.6233673	-5.2375793	1.98526
1493858815317	-2.769699	-3.8728943	2.644867
1493858815317	-3.2646942	-2.1050415	3.0852509
1493858815317	-2.8183289	-2.1458435	2.513321
1493858815317	-0.71533203	-5.3472443	0.2820282
1493858815317	1.2943268	-12.067215	-7.21846
1493858815317	8.516098	-18.293198	-17.56137
1493858815317	13.685883	-19.474823	-9.182068
1493858815317	6.1630096	-13.747726	-5.747711
1493858815317	0.07885742	-5.8295135	-1.8709717
1493858815317	-3.8061829	-5.7278137	4.465103
1493858815317	-2.3910675	-12.842926	5.5797424
1493858815317	-2.9824219	-17.474854	0.30226135
1493858815317	-3.2675323	-12.618195	-9.4500885
1493858815317	-5.5669403	-5.207779	9.396057
1493858815317	-4.2798157	-4.3729095	7.018036
1493858815318	-0.6070862	-9.507858	3.9039001
1493858815318	2.9085083	-10.713501	3.6784058
1493858815318	5.281784	-10.999893	2.4373322
1493858815318	3.6476135	-10.782532	1.7901001
1493858815318	-0.5938873	-9.970154	1.0796204
1493858815318	-3.4525146	-9.221542	1.5949554
1493858815318	-4.4710693	-9.130859	1.1011353
1493858815318	-2.4692993	-8.818756	1.9433746
1493858815318	-0.8029785	-8.722473	1.3889618
1493858815318	0.049621582	-9.007523	1.5233154
1493858815318	0.36386108	-8.958862	1.3466492
1493858815318	0.5946045	-8.7213745	1.5874023
1493858815318	1.2543335	-9.176819	2.3469238
1493858815318	1.4095612	-10.327255	1.8359222
1493858815318	0.9086151	-10.791992	0.32060242
1493858815318	0.98387146	-10.29068	-1.6682587
1493858815318	2.0489807	-10.459015	-2.1956635
1493858815318	2.458252	-11.221115	-0.93273926
1493858815318	1.3252106	-11.5256195	-0.647583
1493858815318	1.0887146	-11.764114	-1.7828827
1493858815318	2.561737	-11.989304	-1.9873352
1493858815318	4.6625366	-12.438263	-2.7409058
1493858815318	6.1367493	-13.471771	-3.1100006
1493858815318	4.028778	-15.014908	-4.3031464
1493858815318	-1.5945129	-15.261475	-4.921509
1493858815318	-5.495407	-13.809494	3.8041077
1493858815318	-4.4762115	-12.154709	8.3186035
1493858815319	-3.914627	-11.762238	5.7410736
1493858815319	-3.635971	-12.642502	1.8685608
1493858815319	-1.8286285	-13.639481	-0.6188202
1493858815319	0.61842346	-12.339737	-1.163147
1493858815319	2.6060333	-9.370895	1.4321289
1493858815319	1.8109131	-7.930664	2.2124481
1493858815319	-0.4201355	-7.484497	1.2920685
1493858815319	-1.3867493	-6.9607697	1.4481201
1493858815319	-2.3385468	-6.8701935	0.95414734
1493858815319	-2.9358978	-6.782913	-0.072525024
1493858815319	-2.765625	-6.568878	0.15631104
1493858815319	-2.7954712	-5.7692566	1.4498138
1493858815319	-3.4189148	-4.175812	2.724121
1493858815319	-3.645752	-2.8954468	2.9527588
1493858815319	-2.9552917	-3.108307	2.063324
1493858815319	-0.7590027	-6.219101	-0.57855225
1493858815319	2.2345734	-12.376556	-7.499878
1493858815319	7.822052	-18.0103	-16.871185
1493858815319	11.173859	-19.474823	-12.614471
1493858815319	5.5210724	-13.016861	-5.37912
1493858815319	0.29574585	-7.5094757	-2.6777802
1493858815319	-2.20224	-7.782654	1.5057831
1493858815319	-1.236618	-14.069061	2.2275543
1493858815319	-0.7137146	-15.9184265	3.360443
1493858815319	-3.0824127	-10.987976	-9.278046
1493858815319	-5.7649994	-6.100525	4.2504883
1493858815319	-6.795685	-5.356491	9.448685
1493858815320	-3.2912903	-10.416611	3.823059
1493858815320	1.0914764	-11.318207	2.8017426
1493858815320	5.619278	-10.440231	3.4326324
1493858815320	5.9325714	-10.683121	3.0337067
1493858815320	2.3039398	-10.608032	1.4966583
1493858815320	-2.2005157	-9.755341	0.8538208
1493858815320	-4.867798	-9.169952	1.2773132
1493858815320	-4.333954	-9.113632	1.5702667
1493858815320	-2.0466156	-9.265839	0.8150177
1493858815320	-0.21586609	-8.630386	0.8721771
1493858815320	1.1182251	-8.656479	1.1039734
1493858815320	1.1445618	-8.675171	0.86701965
1493858815320	0.6147003	-8.842972	1.7276917
1493858815320	0.48106384	-9.440247	2.342804
1493858815320	0.66690063	-10.506668	2.1148682
1493858815320	1.0503082	-10.39267	0.5340729
1493858815320	2.151245	-9.953506	-1.5721741
1493858815320	2.9971008	-11.129349	-1.6452942
1493858815320	1.9906921	-11.914185	-0.54418945
1493858815320	0.6746063	-11.921951	-1.5709076
1493858815320	2.2984161	-12.106415	-2.5958557
1493858815320	4.7424164	-12.2005005	-2.7257538
1493858815320	6.354553	-13.133179	-3.6082458
1493858815320	5.860794	-14.721497	-1.3584442
1493858815320	0.061416626	-15.075226	-1.2206421
1493858815320	-5.248993	-13.800034	-2.1198883
1493858815321	-5.928253	-12.646317	-0.09207153
1493858815321	-3.538437	-11.395538	7.275345
1493858815321	-1.8964539	-11.630875	5.4866486
1493858815321	-2.4142303	-14.02536	0.91830444
1493858815321	-2.6706085	-14.986359	-1.3536072
1493858815321	0.27668762	-11.925964	0.25862122
1493858815321	2.8347015	-9.053619	2.87146
1493858815321	2.1396332	-7.9039307	2.1828766
1493858815321	-0.20968628	-7.1558228	0.58628845
1493858815321	-1.7029266	-6.6690826	0.71754456
1493858815321	-2.5321655	-6.3391876	0.884079
1493858815321	-2.3371277	-6.19841	0.7870178
1493858815321	-2.0664063	-6.0141144	1.5295258
1493858815321	-2.9806366	-5.0223694	2.5006866
1493858815321	-3.7505493	-3.2480621	2.8255005
1493858815321	-3.201767	-2.319992	2.2940674
1493858815321	-1.5368347	-4.1711884	0.6676636
1493858815321	1.0721741	-9.047607	-4.187668
1493858815321	4.1628723	-15.789429	-13.481018
1493858815321	11.533386	-19.136139	-17.476578
1493858815321	9.801025	-16.867157	-8.790207
1493858815321	3.1326141	-10.669281	-2.9187012
1493858815321	-0.24787903	-5.1427	-0.2829895
1493858815321	-2.7437134	-8.560181	2.133194
1493858815321	-1.3938904	-14.5130005	5.707077
1493858815321	-0.50946045	-15.76297	-4.38266
1493858815321	-4.1382904	-10.633255	-3.6966858
1493858815322	-8.201599	-5.3679504	7.9384613
1493858815322	-7.024597	-5.854721	9.553864
1493858815322	-2.182129	-9.918549	4.0677795
1493858815322	2.5422974	-11.283264	2.5672302
1493858815322	6.864456	-11.376038	3.2547913
1493858815322	5.785141	-11.8706665	2.1802368
1493858815322	1.0964813	-9.90654	1.6017914
1493858815322	-2.9085846	-8.46582	1.7090149
1493858815322	-4.007019	-8.321823	2.1161194
1493858815322	-2.2676086	-8.695343	2.4843903
1493858815322	-0.604187	-9.2535095	0.9744873
1493858815322	0.06716919	-9.55368	1.2239532
1493858815322	0.4928589	-9.724106	0.3648529
1493858815322	0.6632843	-9.395477	0.6868286
1493858815322	0.7043152	-9.313019	1.6741638
1493858815322	0.85176086	-9.941269	1.8499603
1493858815322	0.98820496	-10.620056	1.0818787
1493858815322	1.1719208	-10.561951	-0.6155853
1493858815322	1.7492371	-10.69754	-2.0490112
1493858815322	1.7611389	-11.52356	-0.960968
1493858815322	0.8121338	-11.724106	-0.5616913
1493858815322	0.97280884	-11.726196	-1.2217102
1493858815322	2.5694733	-11.771393	-1.3981934
1493858815322	3.5611725	-11.987976	-2.2372284
1493858815322	4.789215	-12.8515625	-3.5614624
1493858815322	6.1016693	-13.652985	-1.2176514
1493858815322	2.5298157	-13.995285	-3.368576
1493858815323	-3.731186	-13.467209	-2.7900085
1493858815323	-7.1548157	-12.006424	3.3753967
1493858815323	-6.333832	-11.5603485	7.680786
1493858815323	-5.1984863	-13.15065	3.4069824
1493858815323	-4.709656	-15.901093	-0.5851135
1493858815323	-4.586975	-15.794739	-0.62809753
1493858815323	-0.7621765	-12.005051	0.81092834
1493858815323	3.639389	-9.098862	1.5495148
1493858815323	4.8437347	-8.002304	1.0040283
1493858815323	1.7537994	-7.688278	0.3713379
1493858815323	-1.3970947	-6.8299866	1.21698
1493858815323	-3.0924683	-5.7241516	1.8674011
1493858815323	-4.0963135	-5.462097	2.2496338
1493858815323	-3.5689545	-5.298645	2.3210297
1493858815323	-2.828598	-4.4282837	2.489334
1493858815323	-2.7391357	-2.793167	2.8381958
1493858815323	-2.4744873	-2.3528442	2.2632446
1493858815323	-0.8547821	-4.0819244	0.3761139
1493858815323	1.6078796	-8.281967	-3.9950562
1493858815323	5.0834656	-15.577469	-12.993912
1493858815323	9.752975	-19.474823	-16.632278
1493858815323	7.2411346	-16.42546	-9.657684
1493858815323	1.5031586	-10.492035	-4.447998
1493858815324	-0.771225	-5.7610626	-2.4428558
1493858815324	-1.5995789	-4.858246	0.05279541
1493858815324	-0.73513794	-11.013412	1.8203888
1493858815324	0.6223297	-17.70372	3.917038
1493858815324	0.30325317	-16.493423	-7.92688
1493858815324	-5.5167847	-7.2670135	-0.81199646
1493858815324	-7.8159943	-1.796814	9.787704
1493858815324	-4.230072	-6.888611	7.047043
1493858815324	0.26646423	-12.688583	3.2993317
1493858815324	3.3884125	-13.394623	1.230545
1493858815324	4.277054	-11.716675	1.5978546
1493858815324	2.2883759	-10.448959	2.0330963
1493858815324	-0.5583496	-9.381912	1.6939087
1493858815324	-2.4336243	-9.024704	1.3963013
1493858815324	-2.8764954	-9.43425	1.1465607
1493858815324	-2.077301	-9.762894	1.2077484
1493858815324	-1.0569763	-9.022156	0.7180481
1493858815324	-0.064575195	-8.197205	0.90068054
1493858815324	0.6634064	-8.054672	1.2084808
1493858815324	1.1549072	-8.258133	1.4518738
1493858815324	1.1966248	-8.78389	2.0969238
1493858815324	0.72865295	-9.400452	2.263916
1493858815324	-0.067596436	-9.82486	1.2344818
1493858815324	-0.050491333	-9.93605	-0.6683655
1493858815324	1.1625671	-10.943573	-2.0875397
1493858815324	2.12854	-12.029633	-1.2769623
1493858815324	1.4176483	-11.798599	-1.2281952
1493858815325	1.8177948	-11.778503	-2.357956
1493858815325	3.6408844	-12.169373	-2.333435
1493858815325	5.415634	-13.111664	-2.9780579
1493858815325	7.76416	-13.953812	-2.9538574
1493858815325	4.8484497	-14.854736	-0.4291687
1493858815325	-1.590271	-15.2230835	-4.864151
1493858815325	-6.4590607	-13.39415	-1.3316193
1493858815325	-7.204651	-11.95192	6.3088226
1493858815325	-5.596573	-13.046967	7.690216
1493858815325	-3.0419312	-13.572006	5.495041
1493858815325	-1.2597656	-14.868118	0.44535828
1493858815325	1.2559814	-13.365112	-3.6588135
1493858815325	3.6906433	-10.444733	-0.42219543
1493858815325	2.6817627	-8.661072	2.947464
1493858815325	-0.48640442	-7.9754333	2.39888
1493858815325	-2.353897	-7.167816	1.6813354
1493858815325	-3.0434875	-6.407181	2.4125977
1493858815325	-2.9818878	-5.687088	1.8575592
1493858815325	-2.9015808	-5.690445	0.8136139
1493858815325	-2.7404633	-5.463791	1.430893
1493858815325	-3.2281952	-4.2845306	2.3782501
1493858815325	-3.813263	-2.6077576	3.0208435
1493858815325	-3.4985352	-2.226532	2.4644318
1493858815325	-1.3851318	-4.5997314	0.63131714
1493858815325	1.431015	-10.162735	-4.330078
1493858815325	5.327835	-16.654495	-13.909241
1493858815325	11.302063	-19.474823	-13.193985
1493858815326	9.247574	-15.434906	-4.9656067
1493858815326	1.7374878	-8.798508	-2.3231049
1493858815326	-2.003769	-6.7216797	0.674469
1493858815326	-2.0677948	-11.290253	0.72976685
1493858815326	-0.8718872	-15.248947	1.8184967
1493858815326	-1.3110352	-13.035889	-2.1775818
1493858815326	-5.005127	-7.8060303	-0.5311432
1493858815326	-7.276886	-4.850235	7.6236725
1493858815326	-5.475174	-7.6122894	5.48526
1493858815326	-0.90515137	-10.825012	2.096878
1493858815326	4.096634	-11.231888	2.1126099
1493858815326	6.4710236	-11.007553	2.4505463
1493858815326	4.241852	-9.985413	1.7420502
1493858815326	-0.3930359	-9.3267975	1.525177
1493858815326	-3.3032684	-9.295807	1.6611328
1493858815326	-3.6651917	-9.529663	0.67456055
1493858815326	-2.9584198	-9.802994	0.3294983
1493858815326	-2.1907501	-9.501953	0.12138367
1493858815326	-1.1135864	-8.54184	2.3298035
1493858815326	0.39286804	-8.620422	2.367508
1493858815327	1.714447	-9.305695	1.9131012
1493858815327	1.9261017	-9.44223	1.8523865
1493858815327	1.2459869	-9.29686	1.3790131
1493858815327	0.4356537	-9.491882	0.77641296
1493858815327	0.09883118	-9.788605	0.3259735
1493858815327	0.0046539307	-9.926453	-0.47912598
1493858815327	0.70918274	-10.893097	-0.7137604
1493858815327	0.99124146	-11.735886	-0.6721802
1493858815327	0.87760925	-11.228073	-1.329071
1493858815327	2.3081055	-11.115463	-1.3881531
1493858815327	3.501175	-11.464355	-0.6214142
1493858815327	3.9305115	-12.594345	-2.076889
1493858815327	5.3606873	-13.167572	-2.4360046
1493858815327	3.4734955	-14.382614	-1.9400787
1493858815327	-0.90715027	-14.34227	-4.4064026
1493858815327	-4.652252	-13.448502	-3.0578766
1493858815327	-6.052414	-11.850693	2.9599304
1493858815327	-6.7557373	-12.912704	5.8691864
1493858815327	-5.796158	-14.255127	6.7539673
1493858815327	-4.3350067	-14.289261	3.3326416
1493858815327	-0.65252686	-13.156723	-2.8049774
1493858815327	3.0155182	-11.085892	-2.3458557
1493858815327	4.218048	-9.375732	1.6577759
1493858815327	2.0179749	-8.587265	2.056366
1493858815327	-0.33920288	-7.4222107	0.9828644
1493858815327	-1.6375122	-6.784622	1.2547607
1493858815327	-2.5829773	-6.0640106	1.756485
1493858815328	-3.4455261	-5.9993286	1.41539
1493858815328	-2.9559479	-5.9220276	1.026413
1493858815328	-1.927124	-5.01947	1.2212982
1493858815328	-2.120987	-3.5958557	2.4007874
1493858815328	-2.8342133	-2.7541351	2.7219696
1493858815328	-2.4890747	-3.6383362	1.809082
1493858815328	-1.0808105	-6.7953033	-1.1773224
1493858815328	1.2933502	-12.512817	-8.826523
1493858815328	7.123886	-17.772644	-17.346619
1493858815328	10.227692	-19.074844	-13.386795
1493858815328	4.286911	-14.51915	-4.3226624
1493858815328	-0.45672607	-7.6488495	-1.8418732
1493858815328	-2.5091248	-5.1199036	-0.49502563
1493858815328	-2.9042969	-8.962357	-0.12658691
1493858815328	-1.3095398	-14.105759	2.6084137
1493858815328	0.85079956	-14.7703705	-0.77571106
1493858815328	-0.47268677	-11.139648	-1.6957245
1493858815328	-5.4177094	-6.712723	4.561371
1493858815328	-6.6857452	-5.8049927	6.0447083
1493858815328	-2.8245544	-8.701691	3.4433594
1493858815328	1.736084	-10.460556	2.7258606
1493858815328	4.701782	-10.638824	3.1047974
1493858815328	4.397583	-11.041931	1.244751
1493858815328	1.4957123	-9.917435	0.46037292
1493858815328	-1.4651947	-8.608582	1.6210938
1493858815328	-2.857605	-8.478806	1.8149872
1493858815328	-2.65448	-8.914444	1.6017914
1493858815329	-1.3417358	-9.235031	0.71728516
1493858815329	-0.24734497	-8.968628	0.5397949
1493858815329	0.3553772	-8.994965	0.2737732
1493858815329	0.88578796	-8.981262	0.50923157
1493858815329	0.91300964	-9.033051	2.3931427
1493858815329	1.1334229	-10.091782	3.2192383
1493858815329	1.171875	-11.427185	2.4925537
1493858815329	1.364563	-11.292297	-0.43782043
1493858815329	1.7617493	-11.262878	-2.7844696
1493858815329	0.7282715	-11.824539	-1.3216705
1493858815329	-1.6282196	-11.802231	0.15161133
1493858815329	-0.46492004	-12.026581	0.029266357
1493858815329	2.550354	-12.287308	-0.06478882
1493858815329	4.911087	-12.123886	-0.74154663
1493858815329	4.939209	-12.398209	-2.3080597
1493858815329	5.8368225	-12.844421	-1.7695618
1493858815329	3.992447	-13.252716	-1.0421753
1493858815329	-0.115112305	-13.739716	-5.4290466
1493858815329	-4.4509735	-13.801376	-3.8047943
1493858815329	-5.9553986	-11.530304	2.6544037
1493858815329	-4.716446	-11.190704	9.171646
1493858815329	-3.7594757	-12.231537	5.9234314
1493858815329	-3.6590576	-14.327545	-0.6532898
1493858815329	-3.4555817	-14.812363	-2.9161835
1493858815329	1.5330963	-11.565918	0.70010376
1493858815329	6.0811615	-9.022125	4.018921
1493858815329	4.112442	-8.534851	1.1247711
1493858815330	0.21313477	-7.299011	-0.33442688
1493858815330	-1.5381012	-5.982193	1.1128235
1493858815330	-3.007721	-4.9806976	2.4467773
1493858815330	-3.3206177	-4.9140625	2.2480927
1493858815330	-2.567688	-5.2642365	1.5792542
1493858815330	-2.1787415	-4.7678375	1.972702
1493858815330	-2.7477417	-3.390808	2.7488098
1493858815330	-2.7458038	-2.8709106	2.6272278
1493858815330	-1.7565765	-4.420807	1.1071167
1493858815330	-0.2043457	-8.424744	-3.4894562
1493858815330	2.8201752	-14.933823	-12.346054
1493858815330	10.210114	-19.474823	-17.854004
1493858815330	11.886368	-17.517776	-10.455841
1493858815330	3.832428	-11.595062	-2.4880524
1493858815330	-0.5292053	-6.0014954	0.08052063
1493858815330	-2.7564392	-8.462906	-0.8153076
1493858815330	-0.21220398	-15.675568	-0.7137604
1493858815330	3.2117004	-15.9765625	2.780075
1493858815330	-0.77778625	-10.999847	-0.26307678
1493858815330	-9.91394	-4.4188538	-1.859436
1493858815330	-11.063477	-1.2812195	10.683792
1493858815330	-4.631668	-7.2721405	10.910339
1493858815330	0.086517334	-14.10524	2.6069794
1493858815330	4.931793	-14.9769745	0.48568726
1493858815330	5.9599457	-12.455872	0.9320526
1493858815330	2.511032	-9.522278	2.4872284
1493858815331	-1.0583801	-7.8500366	1.5869598
1493858815331	-2.7885437	-8.107086	1.0505371
1493858815331	-2.3003082	-9.087555	1.187149
1493858815331	-0.87942505	-9.344742	1.7562561
1493858815331	-0.16485596	-9.177521	0.99905396
1493858815331	-0.05632019	-9.387939	-0.052597046
1493858815331	0.019683838	-9.264435	0.12957764
1493858815331	0.4560852	-8.75264	1.4073181
1493858815331	1.3304291	-8.917343	2.5031586
1493858815331	1.2092438	-10.167725	2.5828247
1493858815331	0.79385376	-10.8294525	0.58470154
1493858815331	1.4335785	-10.722504	-1.9368134
1493858815331	1.8183899	-11.062027	-1.108902
1493858815331	0.6161804	-11.436371	0.36613464
1493858815331	-0.33735657	-11.68988	0.6105957
1493858815331	0.6477051	-11.841431	-0.1730957
1493858815331	2.750122	-12.110596	-1.1361694
1493858815331	4.8503113	-13.111725	-2.5713959
1493858815331	5.1291656	-13.667664	-0.38201904
1493858815331	3.7269135	-12.444504	-2.0254974
1493858815331	-0.5969696	-13.766525	-6.182785
1493858815331	-3.9420624	-12.909164	-2.4152832
1493858815331	-3.8772888	-10.975571	5.4078217
1493858815331	-4.377426	-11.827362	6.3903503
1493858815331	-5.097229	-12.94783	3.7641907
1493858815331	-4.6808167	-14.900757	-0.30368042
1493858815331	-2.543106	-14.237335	-1.1020355
1493858815332	2.6332855	-10.893967	-0.22129822
1493858815332	5.3956146	-8.793732	1.7319183
1493858815332	1.8923645	-8.258057	1.1331635
1493858815332	-1.070343	-7.478134	0.41220093
1493858815332	-2.2701416	-6.584564	1.3200073
1493858815332	-2.6332245	-5.8178253	1.5388947
1493858815332	-2.9105988	-5.975708	0.842865
1493858815332	-2.199646	-5.9257965	0.56936646
1493858815332	-2.0692291	-4.7328186	1.6481018
1493858815332	-2.996872	-2.8899384	2.9284973
1493858815332	-3.2211456	-2.4625244	2.8702087
1493858815332	-2.2032928	-3.8430023	1.4326019
1493858815332	0.0074157715	-7.077774	-2.152298
1493858815332	3.7743835	-13.684937	-10.250366
1493858815332	10.131897	-19.21521	-18.792007
1493858815332	12.787415	-18.291962	-14.121674
1493858815332	4.1975403	-13.376617	-3.546402
1493858815332	-1.0203857	-8.569992	-0.58766174
1493858815332	-4.002289	-10.746628	0.032592773
1493858815332	-1.2663269	-14.301514	1.4694061
1493858815332	1.3896637	-11.922867	3.477295
1493858815332	-3.5949554	-6.978775	-1.5350494
1493858815332	-8.738464	-3.7479553	1.2461853
1493858815332	-7.881363	-5.1687164	9.921921
1493858815332	-2.8565521	-11.279343	6.3321075
1493858815332	1.607193	-14.094498	0.4774933
1493858815332	4.924103	-11.824936	1.404068
1493858815333	5.401764	-9.835785	2.696518
1493858815333	2.9461517	-9.006317	2.4272003
1493858815333	-0.005935669	-8.738998	1.9122314
1493858815333	-2.3511353	-9.285446	1.7189941
1493858815333	-3.0262604	-9.729706	1.2714996
1493858815333	-2.103119	-9.610123	0.40092468
1493858815333	-1.3714294	-8.974106	0.30691528
1493858815333	-0.7600708	-8.409729	1.1560822
1493858815333	0.15873718	-8.627777	1.9161377
1493858815333	1.025711	-9.293106	2.0951996
1493858815333	1.6193237	-9.993408	2.0240173
1493858815333	1.4965515	-10.446426	1.7645416
1493858815333	0.79267883	-10.394485	0.25019836
1493858815333	0.91130066	-10.084259	-1.553299
1493858815333	1.6128998	-10.539932	-1.3833618
1493858815333	1.1723175	-11.347519	0.0569458
1493858815333	-0.34979248	-11.312393	0.05543518
1493858815333	-0.16461182	-11.350342	-1.2770538
1493858815333	2.5697632	-11.835617	-1.0731354
1493858815333	4.880417	-12.625137	-1.3232574
1493858815333	6.413498	-13.261093	-1.1718903
1493858815333	5.450699	-13.577988	-0.43458557
1493858815333	0.83221436	-14.344421	-3.8172913
1493858815333	-4.2543793	-14.534912	-5.797287
1493858815333	-7.6384125	-11.934204	1.3248749
1493858815333	-6.3536377	-10.5625305	8.848068
1493858815333	-5.9832153	-11.632874	5.7095337
1493858815334	-4.377426	-13.369888	0.70121765
1493858815334	-3.0915375	-14.8836975	-2.9943695
1493858815334	0.7684784	-12.655197	-0.83717346
1493858815334	5.4196625	-9.572891	2.287735
1493858815334	2.9617615	-8.838867	1.9903717
1493858815334	-0.09022522	-7.8035736	0.62968445
1493858815334	-1.9453278	-7.065384	0.41741943
1493858815334	-2.532959	-5.9226227	1.7203827
1493858815334	-2.9052887	-5.4223022	1.1323395
1493858815334	-2.7856598	-5.598526	0.93995667
1493858815334	-2.2964783	-5.273987	1.4618835
1493858815334	-2.8363037	-3.9349976	1.9756622
1493858815334	-3.6870117	-2.6680603	2.3651123
1493858815334	-3.0706177	-3.5139923	1.4089355
1493858815334	-0.69692993	-6.7064514	-1.2863617
1493858815334	2.9157104	-12.547333	-7.325409
1493858815334	7.430542	-17.992966	-15.446182
1493858815334	10.773636	-17.930786	-14.849289
1493858815334	5.416336	-12.814041	-5.680298
1493858815334	1.1218567	-8.538666	-1.9089508
1493858815334	-0.10385132	-6.818344	0.124694824
1493858815334	-0.38026428	-10.391922	-0.06411743
1493858815334	0.49752808	-16.047134	-0.08305359
1493858815334	0.69003296	-14.504242	-0.17883301
1493858815334	-4.0998077	-8.558502	-5.0477753
1493858815335	-8.8280945	-4.71463	0.8169098
1493858815335	-7.250595	-5.3954773	10.246979
1493858815335	-2.2563171	-10.048523	6.1550903
1493858815335	1.6013031	-12.739426	0.7150421
1493858815335	4.3953857	-11.530045	2.1916962
1493858815335	4.983078	-10.620743	2.938507
1493858815335	2.9858704	-10.001404	1.3456116
1493858815335	-0.0022735596	-9.232391	1.0382538
1493858815335	-2.4869843	-9.289886	1.906784
1493858815335	-3.4174347	-9.642426	1.4480438
1493858815335	-2.8928833	-9.779205	0.36247253
1493858815335	-1.9819489	-9.535614	-0.27381897
1493858815335	-0.8511505	-8.855286	0.70140076
1493858815335	0.27366638	-8.286942	2.0978394
1493858815335	0.91433716	-8.452759	2.7481232
1493858815335	1.2549744	-9.215271	3.1473846
1493858815335	1.286087	-9.728073	2.8516083
1493858815335	1.0866089	-9.755249	1.4424133
1493858815335	0.9273529	-9.932327	-0.5207367
1493858815335	0.70462036	-10.493546	-1.4100647
1493858815335	0.44802856	-11.331696	-1.0249481
1493858815335	0.49302673	-11.453445	-0.54959106
1493858815335	1.2662659	-11.427734	-0.5374603
1493858815335	2.2981567	-11.578995	-0.36697388
1493858815335	2.5127106	-11.87735	-1.2135925
1493858815335	3.505661	-12.719467	-2.8377686
1493858815335	4.6800537	-13.441467	-0.8050232
1493858815335	2.8330688	-13.196991	-1.8178558
1493858815336	-1.4589233	-13.740555	-5.580353
1493858815336	-4.7675476	-13.260651	-3.16539
1493858815336	-5.5659027	-11.559021	2.9139404
1493858815336	-6.373413	-12.395935	7.8684235
1493858815336	-5.9168243	-13.372604	5.7430725
1493858815336	-5.0347137	-14.70932	-0.6326904
1493858815336	-2.6449738	-13.165436	-3.6105804
1493858815336	2.3962555	-10.215103	-0.1461792
1493858815336	4.6613617	-8.985458	2.1548615
1493858815336	1.379303	-8.485901	1.1456146
1493858815336	-1.4714355	-7.3300323	0.5463257
1493858815336	-3.0345917	-6.3395233	0.574646
1493858815336	-4.0765686	-5.67041	1.6832733
1493858815336	-4.155716	-5.513611	1.499054
1493858815336	-3.0087738	-5.5975037	0.983963
1493858815336	-1.4071503	-4.825882	1.4602203
1493858815336	-1.291336	-3.6796722	2.0991821
1493858815336	-1.7277069	-2.9661255	2.5356903
1493858815336	-1.3551178	-4.011566	1.7553406
1493858815336	0.10021973	-7.2795105	-2.0061646
1493858815336	3.6368256	-13.202744	-9.573242
1493858815336	8.829117	-19.474823	-17.136566
1493858815336	11.273956	-18.408005	-14.685455
1493858815336	3.9540405	-13.294662	-7.1540985
1493858815336	-1.8883057	-7.3272095	0.6039276
1493858815336	-7.1200714	-8.963593	3.2407074
1493858815336	-5.652603	-14.845169	2.394867
1493858815337	0.50782776	-14.96756	-2.0577087
1493858815337	1.8803711	-9.525604	-3.2462158
1493858815337	-2.2779388	-3.3749542	7.482437
1493858815337	-7.03714	-3.5777588	6.186783
1493858815337	-4.56485	-9.900757	5.4089203
1493858815337	1.4061127	-14.432098	3.3166351
1493858815337	4.3655243	-12.93129	1.8286438
1493858815337	3.3825684	-10.156296	1.6247711
1493858815337	0.8006897	-9.092575	2.2027588
1493858815337	-1.1425323	-9.028503	2.4682617
1493858815337	-2.2451172	-9.296783	2.4178162
1493858815337	-2.0508118	-9.660309	1.7320709
1493858815337	-1.3148956	-9.48494	1.4358978
1493858815337	-0.8834381	-8.926239	2.1347504
1493858815337	-0.067092896	-8.552429	2.7804413
1493858815337	1.1974792	-8.6766205	2.6114502
1493858815337	2.45813	-9.04306	2.4647827
1493858815337	2.5917664	-9.368698	2.3443146
1493858815337	1.5783386	-9.751938	1.7645569
1493858815337	0.23956299	-10.188812	0.461792
1493858815337	-0.0044403076	-10.704926	-1.4576111
1493858815337	1.2888184	-11.318268	-1.622818
1493858815337	2.4014282	-11.692459	-0.66648865
1493858815337	2.1468658	-11.987564	-0.4554901
1493858815337	2.0320587	-12.149719	-0.8748169
1493858815337	2.709137	-11.90303	-1.3280182
1493858815337	3.318344	-12.254974	-3.0886688
1493858815338	5.159897	-12.833908	-2.3279877
1493858815338	2.990799	-14.345428	-2.3618927
1493858815338	-1.6021576	-14.50325	-6.0470886
1493858815338	-5.9724884	-13.621429	-5.2216797
1493858815338	-7.3293457	-12.178909	1.0960236
1493858815338	-9.051819	-13.259613	7.60672
1493858815338	-6.9067383	-13.504974	8.843399
1493858815338	-3.052719	-13.927948	1.4587097
1493858815338	-0.03288269	-13.894211	-4.5362244
1493858815338	4.577484	-11.433105	0.05303955
1493858815338	3.7315063	-9.894791	2.6835022
1493858815338	0.04057312	-8.448395	1.6459045
1493858815338	-1.9679871	-6.7321014	0.29438782
1493858815338	-3.7746735	-5.8004303	1.0448914
1493858815338	-3.8864899	-4.462799	1.4832153
1493858815338	-3.6166534	-4.2062225	1.7839813
1493858815338	-2.605194	-4.9582825	1.5247803
1493858815338	-1.1203003	-4.154175	2.1183777
1493858815338	-0.5032196	-2.9373627	2.8850555
1493858815338	-0.9449463	-2.4450989	3.1093597
1493858815338	-0.59672546	-3.9566956	1.6624756
1493858815338	1.4590607	-8.248978	-3.8148346
1493858815338	5.3218994	-14.908447	-14.130463
1493858815338	13.931549	-19.474823	-18.023407
1493858815338	7.624466	-17.805908	-10.012405
1493858815338	0.5774231	-10.225388	-4.12825
1493858815338	-5.881119	-7.604477	1.4772186
1493858815338	-8.490402	-13.00528	2.9685059
1493858815339	-3.1061401	-13.47467	3.811432
1493858815339	-2.4598236	-9.65361	-4.6627045
1493858815339	-1.5825195	-5.188156	7.4021454
1493858815339	-2.2013702	-4.9407196	10.405899
1493858815339	-1.5719757	-10.004608	3.0864258
1493858815339	1.1916351	-13.307907	0.4716339
1493858815339	2.6217804	-11.813553	2.3723907
1493858815339	2.8531036	-9.408798	2.0486298
1493858815339	1.237503	-8.815811	1.5092316
1493858815339	-1.0615692	-8.934769	1.5394135
1493858815339	-2.2667084	-9.183731	1.6374054
1493858815339	-2.1469574	-9.62767	1.458786
1493858815339	-1.3821106	-9.784714	0.50535583
1493858815339	-1.0145111	-9.241196	0.21524048
1493858815339	-0.40766907	-8.542694	1.7776794
1493858815339	0.5157623	-8.557892	2.3101807
1493858815339	1.1964874	-9.111694	2.2087097
1493858815339	1.1123505	-9.789963	2.1530457
1493858815339	0.5802002	-10.262802	1.1587219
1493858815339	0.5121918	-10.3398285	-0.34674072
1493858815339	1.0334778	-10.493256	-1.090683
1493858815339	1.0467834	-11.045334	-0.72203064
1493858815339	0.057037354	-11.32843	-0.2781067
1493858815339	-0.24125671	-11.272751	-0.8651428
1493858815339	1.6284332	-11.379669	-1.3933563
1493858815339	3.442688	-11.854065	-2.0813446
1493858815340	5.0029907	-13.060852	-3.85701
1493858815340	5.343155	-14.139557	-2.0030212
1493858815340	2.1577148	-14.427872	-3.9687653
1493858815340	-3.229065	-14.750931	-5.9954376
1493858815340	-5.875107	-13.09465	2.8048706
1493858815340	-6.0980988	-12.709488	7.5942993
1493858815340	-5.8449554	-13.027695	6.185425
1493858815340	-6.7506866	-15.337418	1.0674286
1493858815340	-4.172714	-15.41394	-2.7300873
1493858815340	2.3813171	-11.688553	-0.6302948
1493858815340	6.0052795	-8.996613	0.8917084
1493858815340	2.7809296	-8.022751	-0.38179016
1493858815340	0.10745239	-6.4930115	0.14701843
1493858815340	-2.345047	-5.7079926	0.99476624
1493858815340	-3.0302582	-4.3968506	2.1429443
1493858815340	-3.8249054	-4.1879425	2.4123993
1493858815340	-3.9408875	-4.8476257	1.9661865
1493858815340	-2.2276	-4.988144	1.5767059
1493858815340	-0.45404053	-4.2783966	2.4014893
1493858815340	-0.6836853	-3.4181976	2.818863
1493858815340	-1.3017731	-4.445221	1.7896576
1493858815340	-0.531662	-7.4155273	-2.0087128
1493858815340	1.6314392	-12.125076	-10.253647
1493858815340	8.418137	-19.474823	-19.164185
1493858815340	7.102585	-18.955841	-13.469315
1493858815340	0.5391388	-14.13205	-6.607559
1493858815340	-2.0839539	-7.227173	-1.7669525
1493858815341	-5.556473	-5.9388733	1.6494904
1493858815341	-4.5915375	-11.37413	2.2467957
1493858815341	-0.2942047	-13.004852	3.798645
1493858815341	1.5217896	-11.828293	-2.6610718
1493858815341	-1.2667236	-8.174637	5.321121
1493858815341	-4.173996	-7.248001	5.410019
1493858815341	-1.9888763	-9.220108	2.9342499
1493858815341	0.83940125	-10.008148	3.4067993
1493858815341	3.0056	-9.6085205	2.6766052
1493858815341	2.7480164	-10.121017	1.3244476
1493858815341	0.39089966	-10.335022	1.0742798
1493858815341	-2.1961517	-9.207916	1.7687225
1493858815341	-3.1602173	-8.386246	2.0848694
1493858815341	-2.3211365	-8.543961	1.3509369
1493858815341	-0.4398346	-8.813629	1.0965729
1493858815341	0.6792145	-8.987793	0.9365845
1493858815341	0.8951874	-9.179016	0.32113647
1493858815341	0.8479614	-9.153534	0.16203308
1493858815341	0.9665222	-9.239471	1.8115845
1493858815341	1.2185822	-10.23143	2.8158264
1493858815341	1.3978882	-11.364792	1.8270721
1493858815341	1.837616	-11.548553	-1.1520233
1493858815341	2.6533966	-11.744232	-2.9464111
1493858815341	2.2952118	-11.986237	-1.0787354
1493858815341	0.18260193	-12.017456	0.32077026
1493858815341	-0.8152466	-12.186508	-0.91371155
1493858815341	1.219101	-12.137085	-1.9833527
1493858815342	3.8691864	-12.610489	-2.2825623
1493858815342	5.2891083	-13.354675	-1.5445404
1493858815342	5.083069	-13.660431	-0.6293793
1493858815342	1.9793396	-14.587128	-3.7815094
1493858815342	-2.2431793	-14.743805	-4.8239136
1493858815342	-4.665741	-12.82579	1.2361298
1493858815342	-6.353668	-12.256485	6.950897
1493858815342	-5.94928	-12.5503235	6.612686
1493858815342	-4.372513	-13.725281	1.3586884
1493858815342	-2.5504456	-13.920074	-2.7966766
1493858815342	1.9100494	-11.5924225	-1.2103271
1493858815342	5.7563934	-9.684586	3.965042
1493858815342	3.4435425	-8.621429	1.9720154
1493858815342	-0.25646973	-7.2693024	-0.076660156
1493858815342	-2.2924194	-6.068268	1.4648438
1493858815342	-3.2229614	-5.055176	2.4258423
1493858815342	-3.7084503	-4.9138336	2.6527863
1493858815342	-2.9499207	-5.0605316	2.104126
1493858815343	-2.330185	-4.50914	2.1509705
1493858815343	-2.5136414	-2.8084717	2.79068
1493858815343	-2.2166748	-1.9340668	2.5422058
1493858815343	-1.4777374	-2.95813	1.9617157
1493858815343	0.4360962	-7.257431	-2.1657562
1493858815343	1.3360748	-14.570663	-13.321304
1493858815343	11.450867	-19.474823	-19.364136
1493858815343	9.331772	-19.120117	-4.1725006
1493858815343	2.5849915	-10.273254	-3.0317535
1493858815343	-1.0539551	-5.000656	-0.6145935
1493858815343	-4.095749	-10.395935	3.446869
1493858815343	-4.44133	-14.853516	3.8705597
1493858815343	-6.44368	-13.551865	-1.8019257
1493858815343	-2.6275024	-8.490799	2.4974365
1493858815343	-4.8805847	-6.2162476	6.759323
1493858815343	-3.0093536	-8.126022	4.0317993
1493858815343	0.8787384	-9.698669	2.5705872
1493858815343	3.5007782	-9.622162	2.6624603
1493858815343	5.145462	-9.975464	1.565033
1493858815343	3.5224304	-10.568939	0.03945923
1493858815343	0.8262787	-9.80246	0.48161316
1493858815343	-1.5383301	-8.929138	1.7050323
1493858815343	-2.6130066	-8.705383	2.0894623
1493858815343	-2.5910797	-9.050125	0.97210693
1493858815343	-1.664917	-9.381424	0.080581665
1493858815343	-0.7991791	-9.218597	0.7283478
1493858815344	-0.34173584	-8.864105	2.050064
1493858815344	-0.15081787	-8.948822	2.401764
1493858815344	0.36332703	-9.640121	2.0674133
1493858815344	0.90592957	-10.431595	1.4569397
1493858815344	1.2676544	-10.709915	0.24790955
1493858815344	1.6276093	-10.761261	-1.818985
1493858815344	2.497406	-11.138107	-2.5112
1493858815344	2.8252716	-11.487427	-1.3349609
1493858815344	1.815979	-11.374466	-0.8568115
1493858815344	1.2495422	-11.238861	-1.5366974
1493858815344	1.9181061	-11.510239	-1.7901917
1493858815344	3.3583221	-12.347885	-2.8420715
1493858815344	4.5865936	-13.544891	-2.5329895
1493858815344	3.730133	-14.674652	-1.4874878
1493858815344	-0.5822296	-14.948929	-2.485443
1493858815344	-5.282257	-14.023132	-0.98521423
1493858815344	-6.6598663	-12.582733	4.0318604
1493858815344	-5.739319	-12.416443	6.717926
1493858815344	-4.986206	-13.686264	3.9529572
1493858815344	-4.6491547	-14.870789	-0.57058716
1493858815344	-1.1760101	-12.739365	-1.8161469
1493858815344	3.4340363	-9.629211	1.2041779
1493858815344	4.126602	-8.51799	2.7603912
1493858815344	1.4717712	-7.3639526	0.8847351
1493858815344	-1.3378448	-6.8337555	0.36990356
1493858815344	-2.4385223	-6.1061096	1.6561737
1493858815345	-3.2316742	-5.6011047	2.0585938
1493858815345	-3.3143768	-5.5152893	1.9576111
1493858815345	-2.4738464	-5.180481	1.6786804
1493858815345	-2.3367004	-4.203537	1.9487457
1493858815345	-2.5705566	-2.6373596	2.005371
1493858815345	-2.089508	-2.4942932	1.8123779
1493858815345	-1.4305878	-5.1266785	-0.42411804
1493858815345	0.55540466	-10.166458	-7.0074005
1493858815345	5.8621216	-18.663681	-18.864166
1493858815345	13.675461	-19.464172	-16.410294
1493858815345	4.5795135	-16.135468	-7.775772
1493858815345	-0.12162781	-8.50943	-2.199936
1493858815345	-2.5128174	-6.4771576	2.2207031
1493858815345	-2.8479614	-14.139374	-1.1406708
1493858815345	-0.5496826	-16.169037	6.8986816
1493858815345	-4.661072	-9.981003	-7.4065704
1493858815345	-5.188904	-4.063446	7.352707
1493858815345	-6.215973	-3.8418884	8.626877
1493858815345	-3.15831	-10.647659	3.8823395
1493858815345	0.6615143	-13.167053	3.1142426
1493858815345	4.735092	-11.933548	3.7341766
1493858815345	5.978943	-10.755859	2.094513
1493858815345	2.9834137	-10.210922	0.7123871
1493858815345	-1.5380859	-9.380722	1.4123383
1493858815345	-3.922638	-8.665558	2.147049
1493858815345	-4.2386017	-8.849182	1.090805
1493858815345	-2.4889526	-9.172546	0.65052795
1493858815346	-0.684433	-9.103088	0.2576294
1493858815346	0.4845276	-8.731995	0.74990845
1493858815346	0.9913788	-8.413696	0.8663025
1493858815346	0.99201965	-8.286209	1.1239624
1493858815346	1.0646362	-8.892426	2.1467285
1493858815346	1.2071075	-10.14772	2.2490234
1493858815346	1.4320831	-10.584625	0.86483765
1493858815346	1.8184357	-10.368286	-1.1900024
1493858815346	1.8348999	-11.068619	-1.4394379
1493858815346	1.1618805	-11.942963	-0.4307251
1493858815346	0.5171051	-12.132263	-0.44361877
1493858815346	1.1913757	-12.000076	-1.119751
1493858815346	2.3622131	-11.842453	-1.6602478
1493858815346	3.348114	-12.51564	-3.1799011
1493858815346	5.147049	-13.544922	-2.4614868
1493858815346	5.2415314	-14.236664	-1.3056946
1493858815346	0.17808533	-14.636734	-4.6917725
1493858815346	-5.6851654	-13.813019	-2.856659
1493858815346	-6.635208	-12.551819	5.273102
1493858815346	-4.7881775	-11.879974	7.9213104
1493858815346	-3.7076569	-12.797211	2.7863922
1493858815346	-4.3778076	-15.189438	-0.650177
1493858815346	-3.7350311	-15.018341	-0.63645935
1493858815346	-0.0491333	-11.20874	0.6428833
1493858815346	2.4456482	-8.432816	2.8312073
1493858815346	1.9395905	-7.949753	2.0519714
1493858815346	-0.40737915	-7.1658783	0.86387634
1493858815346	-2.1327515	-6.267212	0.8794708
1493858815347	-2.7844849	-5.6320496	0.9794922
1493858815347	-2.5846863	-5.5717316	0.4293213
1493858815347	-1.7541656	-5.316681	1.0240936
1493858815347	-2.196991	-4.200058	1.9244385
1493858815347	-2.1434937	-2.721817	2.743225
1493858815347	-0.921463	-2.618866	2.328537
1493858815347	0.27433777	-4.038788	0.83018494
1493858815347	1.6450958	-8.30957	-4.5113525
1493858815347	6.546463	-16.405777	-17.578568
1493858815347	14.504288	-19.237411	-19.722397
1493858815347	4.215027	-17.085312	-7.9602356
1493858815347	0.04119873	-8.968689	-1.352829
1493858815347	-1.869751	-4.143799	-1.828125
1493858815347	-1.5217896	-2.1788025	-0.55363464
1493858815347	-6.535202	-10.378937	3.0638733
1493858815347	-4.7797546	-12.827576	7.483734
1493858815347	-1.2951508	-16.678192	-12.685287
1493858815347	1.5711975	-12.010162	3.5813293
1493858815347	-2.9967194	-8.5169525	7.044876
1493858815347	-2.1200714	-7.595932	4.10495
1493858815347	0.58280945	-9.372513	1.63237
1493858815347	2.6681976	-9.830368	3.1850586
1493858815347	3.2491455	-11.007477	1.9246674
1493858815347	1.5319366	-11.496979	0.3237915
1493858815347	-1.398468	-9.917679	0.50468445
1493858815347	-2.9026794	-8.180359	1.9238892
1493858815347	-3.5127106	-7.874298	1.6438446
1493858815348	-2.4808197	-8.477341	0.65504456
1493858815348	-0.6960144	-8.829163	0.9143982
1493858815348	0.41960144	-9.286911	0.5673065
1493858815348	0.7579498	-9.601166	0.26042175
1493858815348	0.79911804	-9.711884	-0.6159973
1493858815348	0.5997162	-9.340866	0.4494934
1493858815348	0.24330139	-9.388504	1.6643524
1493858815348	0.8225403	-10.697815	1.6656189
1493858815348	2.737854	-12.190857	0.4662323
1493858815348	3.9141846	-12.220032	-1.8536224
1493858815348	3.508194	-11.768768	-3.2635345
1493858815348	1.8798676	-11.602554	-2.227417
1493858815348	1.4284363	-11.819504	-0.4961853
1493858815348	2.3312988	-12.546875	-1.1290283
1493858815348	4.0189667	-14.188522	-3.315628
1493858815348	5.3979645	-14.5448	-2.8442383
1493858815348	2.7962341	-14.086029	-2.5995483
1493858815348	-2.2095947	-14.57753	-3.9891663
1493858815348	-4.510849	-13.34111	-0.019058228
1493858815348	-3.283966	-11.787994	6.12677
1493858815348	-2.695572	-12.173599	7.072159
1493858815348	-4.130432	-14.134552	3.0541992
1493858815348	-4.6543884	-15.82608	-1.7528534
1493858815348	-1.1596985	-13.497864	-1.3484344
1493858815348	4.3508606	-9.741455	1.8638916
1493858815348	4.7517395	-8.306747	1.4776764
1493858815349	1.3807373	-7.4250183	0.838562
1493858815349	-0.7345123	-6.239685	1.4056396
1493858815349	-2.1311798	-5.4730225	1.6179199
1493858815349	-3.155655	-5.0865784	1.3851013
1493858815349	-3.0783691	-5.528946	0.86920166
1493858815349	-2.479599	-5.8506165	1.3203888
1493858815349	-3.0216827	-4.3714294	2.7050781
1493858815349	-3.5669556	-2.4196472	3.5379944
1493858815349	-3.0372772	-1.9892578	3.37706
1493858815349	-1.9979706	-3.6567078	1.8678589
1493858815349	0.6139984	-8.590149	-2.8412476
1493858815349	2.4435425	-16.443558	-13.314682
1493858815349	11.715759	-19.231293	-18.944931
1493858815349	10.236832	-19.474823	-7.6871643
1493858815349	4.4866943	-10.885147	-1.937912
1493858815349	-0.103881836	-3.6234436	1.2888947
1493858815349	-2.6838074	-6.4708405	3.84729
1493858815349	0.0524292	-14.87381	2.3612213
1493858815349	-1.1848755	-18.801071	-4.8093567
1493858815349	-2.6248016	-11.724533	-0.9970856
1493858815349	-7.077423	-3.2254944	7.991852
1493858815349	-8.747925	-2.9578552	10.796783
1493858815349	-4.6339417	-10.268372	4.1021576
1493858815349	-1.3170929	-12.246338	2.5569763
1493858815349	3.0788574	-11.956757	4.917038
1493858815349	5.5169983	-12.26033	1.8130951
1493858815349	3.863327	-10.69252	-0.13607788
1493858815350	0.52404785	-8.346283	0.7785034
1493858815350	-1.794693	-7.977768	2.496704
1493858815350	-2.130066	-8.493195	1.7674866
1493858815350	-1.8518829	-9.124908	-0.35333252
1493858815350	-0.5449066	-9.178528	-0.18534851
1493858815350	0.16625977	-9.396927	-0.16320801
1493858815350	0.5207672	-9.184692	0.90675354
1493858815350	0.7518158	-9.441605	1.7641449
1493858815350	1.3688507	-10.187851	1.9602203
1493858815350	1.3681488	-10.760712	1.289505
1493858815350	1.7786255	-10.357544	-1.288208
1493858815350	2.5186157	-10.259598	-1.7382965
1493858815350	1.787384	-11.115662	0.36187744
1493858815350	-0.9381256	-11.684265	0.7906494
1493858815350	-0.91729736	-12.003067	-1.237381
1493858815350	2.840088	-12.180038	-1.2405701
1493858815350	4.8454437	-12.222061	-1.2188568
1493858815350	5.286728	-12.812592	-2.569641
1493858815350	5.851883	-13.32869	-1.908783
1493858815350	3.0839539	-13.733398	-2.7551575
1493858815350	-2.1047974	-14.144592	-4.249588
1493858815350	-6.0004425	-12.986771	0.20880127
1493858815350	-5.9816437	-11.862534	6.6876526
1493858815350	-4.72377	-12.758881	5.6288757
1493858815350	-5.0569916	-14.720154	2.7543793
1493858815350	-4.6584625	-16.172241	0.23928833
1493858815350	-0.29577637	-13.680206	-0.79522705
1493858815351	4.7887115	-9.933533	0.9736786
1493858815351	5.037964	-8.269852	0.27326965
1493858815351	1.3821411	-7.5615387	-0.08758545
1493858815351	-1.0753021	-6.6141357	1.207489
1493858815351	-1.952713	-5.431839	1.9478455
1493858815351	-2.6690674	-4.689331	2.1403503
1493858815351	-2.8915253	-4.786484	1.8994598
1493858815351	-2.4941864	-4.7852783	1.9834137
1493858815351	-3.1007233	-3.6009674	2.811325
1493858815351	-4.088394	-2.052765	3.1846771
1493858815351	-3.6901703	-2.0749512	2.828354
1493858815351	-2.212082	-4.356735	0.84669495
1493858815351	0.2412262	-9.641327	-5.3180695
1493858815351	6.241455	-17.170517	-16.21341
1493858815351	14.546799	-19.474823	-18.884995
1493858815351	7.313202	-17.254425	-9.5542755
1493858815351	0.73760986	-9.451248	-1.2440796
1493858815351	-1.7654419	-2.1280975	0.8697357
1493858815351	-3.8248596	-6.350815	3.7469788
1493858815351	-3.1545105	-14.371506	2.966339
1493858815351	-1.6464386	-17.15628	-4.6623077
1493858815351	1.2064514	-12.470169	-1.2672272
1493858815351	-2.5951233	-5.569931	6.539215
1493858815351	-7.1833496	-3.1927948	6.5330963
1493858815351	-4.290924	-7.8277893	3.5524445
1493858815351	-0.38813782	-11.611145	2.8982086
1493858815351	4.319214	-11.900986	4.3785553
1493858815352	5.108841	-12.661102	2.3965454
1493858815352	2.5126953	-10.673599	0.05508423
1493858815352	-0.48458862	-8.935974	0.9360657
1493858815352	-2.452896	-8.81871	2.3093414
1493858815352	-2.7729187	-9.267532	1.493103
1493858815352	-1.5136108	-9.213638	0.70085144
1493858815352	-0.46507263	-8.742111	0.80926514
1493858815352	-0.08383179	-8.945633	0.69799805
1493858815352	-0.38334656	-9.190475	0.20559692
1493858815352	0.07887268	-8.900803	0.83192444
1493858815352	1.1150513	-9.333282	2.3793793
1493858815352	1.6888275	-10.27211	3.4046326
1493858815352	1.8434296	-9.835068	2.1595154
1493858815352	2.275589	-9.365265	-0.56951904
1493858815352	2.5677795	-10.109512	-2.157959
1493858815352	1.8647308	-11.210815	-1.1744995
1493858815352	0.63313293	-12.151779	-1.5355072
1493858815352	1.5098724	-12.625107	-2.2747345
1493858815352	3.9870148	-12.795227	-3.0666656
1493858815352	5.6024475	-13.295456	-4.4305115
1493858815352	7.075989	-14.132172	-3.8641663
1493858815352	4.947403	-14.657059	-1.402298
1493858815352	-1.872055	-14.610748	-2.7098846
1493858815352	-6.6142426	-13.489548	0.20404053
1493858815352	-6.456665	-12.987625	3.7572784
1493858815352	-3.9914093	-13.590439	7.3430023
1493858815352	-3.5747223	-14.616364	4.157257
1493858815353	-3.7814178	-16.157257	0.5364227
1493858815353	-1.540451	-14.311768	-1.3160858
1493858815353	2.2824402	-10.302216	1.0762634
1493858815353	2.9944153	-8.188187	1.8517151
1493858815353	0.15956116	-7.1125946	0.47323608
1493858815353	-1.7984924	-5.984665	0.8217621
1493858815353	-2.5526428	-5.0880737	0.989563
1493858815353	-3.0338745	-4.59787	0.88635254
1493858815353	-2.8456879	-4.825836	1.3401489
1493858815353	-1.9738464	-4.986145	1.833435
1493858815353	-2.0991669	-4.005066	2.6516418
1493858815353	-2.9178925	-2.765915	2.823639
1493858815353	-2.8510437	-2.7864227	2.0932465
1493858815353	-1.4160919	-4.662155	-0.029266357
1493858815353	2.1333008	-9.292404	-5.6563873
1493858815353	6.908798	-16.575882	-15.60228
1493858815353	12.925461	-19.474823	-17.299911
1493858815353	9.642899	-16.620193	-8.223038
1493858815353	2.9080505	-10.859528	-2.8426514
1493858815353	-0.12350464	-5.830002	-2.5011444
1493858815353	-2.919403	-8.977921	0.15054321
1493858815353	-0.15100098	-14.628372	4.0108337
1493858815353	-0.95666504	-15.336548	0.8846588
1493858815353	-6.3094025	-10.468552	-7.642395
1493858815353	-8.334549	-4.5464478	6.5590363
1493858815353	-5.4785156	-4.380295	10.459152
1493858815354	-1.2967682	-9.877899	3.2859192
1493858815354	1.7676239	-12.584702	1.6209412
1493858815354	4.7926483	-11.969925	3.2621307
1493858815354	3.6575317	-11.692413	1.8384857
1493858815354	0.70822144	-9.894409	0.7989197
1493858815354	-1.7536011	-8.663757	2.073761
1493858815354	-3.0891876	-8.763763	2.1997986
1493858815354	-2.5642395	-9.176254	1.3051147
1493858815354	-1.004715	-9.359924	0.778656
1493858815354	-0.27574158	-9.150909	0.40699768
1493858815354	0.2215271	-9.141678	1.1048126
1493858815354	0.71517944	-9.067947	1.256424
1493858815354	1.1596527	-9.110764	1.6528168
1493858815354	1.5782318	-9.748627	2.0274506
1493858815354	1.6212006	-9.792404	1.7204742
1493858815354	1.0889587	-9.446564	0.20063782
1493858815354	1.2161102	-9.731674	-2.520691
1493858815354	2.0972443	-10.756775	-2.681076
1493858815354	2.5991516	-11.408188	-0.6610565
1493858815354	1.4724884	-11.7187805	-0.33358765
1493858815354	1.1051178	-11.765549	-1.5536041
1493858815354	2.1972198	-11.867386	-2.3019257
1493858815354	4.2245483	-13.211884	-2.7998352
1493858815354	6.6316223	-14.262604	-1.008316
1493858815354	4.0508423	-14.767349	-1.3660278
1493858815354	-2.419693	-15.198898	-5.5911407
1493858815354	-5.7633514	-13.732544	-0.65592957
1493858815355	-6.0646667	-12.460037	5.8182526
1493858815355	-5.416031	-13.531601	6.794052
1493858815355	-4.056671	-15.148514	2.5739746
1493858815355	-3.3622131	-15.790146	-0.07458496
1493858815355	-0.58880615	-13.290085	-0.46055603
1493858815355	3.4466248	-10.436508	1.8947144
1493858815355	3.6488953	-9.241959	2.2734375
1493858815355	0.63134766	-8.28244	0.06878662
1493858815355	-1.8687439	-6.992996	0.6457825
1493858815355	-3.3716278	-5.4844513	2.0995789
1493858815355	-4.1020203	-4.2411957	2.2977905
1493858815355	-3.8087463	-4.020447	1.8887787
1493858815355	-2.7094574	-3.9289246	2.0173035
1493858815355	-2.2489471	-3.0051422	2.456726
1493858815355	-2.1835327	-2.037674	2.6771088
1493858815355	-1.6578369	-2.9539185	2.1791077
1493858815355	0.1816101	-7.0875397	-1.7478638
1493858815355	2.8591766	-14.10228	-11.044907
1493858815355	9.702301	-18.655258	-18.162918
1493858815355	11.398285	-17.810623	-11.27681
1493858815355	4.9730835	-11.355057	-3.420288
1493858815355	0.05091858	-5.0417633	0.21472168
1493858815355	-2.920166	-8.16481	2.7367554
1493858815355	-1.6558838	-16.280685	1.5887451
1493858815355	-0.68200684	-18.021667	-4.481064
1493858815355	-5.0079346	-10.038986	-2.6611938
1493858815355	-10.332367	-2.7844543	5.4118195
1493858815355	-6.693466	-2.5346527	11.388992
1493858815356	-1.1189575	-10.729187	3.8160095
1493858815356	2.9937592	-14.561432	1.2265778
1493858815356	6.0306244	-13.053467	3.2821045
1493858815356	5.0723724	-11.092072	2.410736
1493858815356	1.6674652	-9.0	1.0722198
1493858815356	-1.2264862	-8.2873535	1.6362152
1493858815356	-2.8604736	-9.062363	2.187271
1493858815356	-2.750473	-9.803757	0.9689026
1493858815356	-1.817276	-9.767883	0.53253174
1493858815356	-1.2684784	-9.585403	-0.21377563
1493858815356	-0.64849854	-9.046875	0.7548523
1493858815356	0.12458801	-8.386688	0.90867615
1493858815356	0.75445557	-8.332596	0.89675903
1493858815356	1.2113953	-9.286713	2.3103027
1493858815356	1.1932831	-10.287033	2.6707
1493858815356	0.89749146	-9.895355	0.5844574
1493858815356	1.2810211	-9.780029	-3.1989594
1493858815356	2.574417	-10.77861	-1.6755371
1493858815356	1.6461487	-11.552765	0.5956421
1493858815356	-0.40031433	-11.562851	-0.0039367676
1493858815356	0.24473572	-11.823059	-1.2887726
1493858815356	3.1166077	-12.143997	-0.73890686
1493858815356	5.1773987	-13.18959	-1.8365326
1493858815356	6.4165497	-13.697372	-1.1533508
1493858815356	5.940933	-13.868286	0.4091339
1493858815356	0.82173157	-15.052444	-4.786438
1493858815357	-2.8937683	-14.76387	-4.5879517
1493858815357	-4.3042297	-12.299667	1.858429
1493858815357	-5.1511536	-11.757629	6.0140076
1493858815357	-6.5477753	-13.871735	6.185135
1493858815357	-6.3424835	-15.050491	4.0328827
1493858815357	-3.9796753	-14.452591	-0.6911011
1493858815357	0.7102356	-11.692322	-1.2681885
1493858815357	4.4102173	-9.830017	2.1302795
1493858815357	2.552124	-8.957321	1.4340973
1493858815357	-0.9946594	-7.843384	0.12913513
1493858815357	-2.704483	-6.364273	1.7790833
1493858815357	-3.673874	-4.8135986	3.0861664
1493858815357	-4.069412	-4.5065155	2.1972504
1493858815357	-3.331131	-4.8049774	1.3749084
1493858815357	-2.2366486	-4.163452	1.1046448
1493858815357	-2.0414124	-2.5428467	2.2161865
1493858815357	-2.3064575	-1.1481476	3.2434235
1493858815357	-2.0149841	-1.7784729	2.6531372
1493858815357	-0.07048035	-5.534363	-0.59584045
1493858815357	2.3474884	-13.303696	-9.496887
1493858815357	10.561691	-18.855118	-17.8833
1493858815357	13.028656	-19.474823	-14.037643
1493858815357	4.887329	-13.499939	-5.2183228
1493858815357	-2.7438812	-8.168091	0.56437683
1493858815357	-6.597534	-11.97583	1.5333557
1493858815357	-0.49671936	-14.193741	4.381424
1493858815357	1.8783569	-11.000595	-1.2416382
1493858815357	-4.0161743	-5.9366455	-5.154831
1493858815358	-8.396118	-2.2101898	6.9884033
1493858815358	-7.0966034	-6.4692383	9.914001
1493858815358	-2.5885925	-13.998779	2.9534454
1493858815358	1.8668823	-15.131409	1.0205231
1493858815358	5.0876617	-11.744354	1.7927399
1493858815358	4.190796	-9.42984	2.8522797
1493858815358	1.3806305	-8.783188	2.4381866
1493858815358	-1.3384094	-8.760956	2.235443
1493858815358	-3.2775574	-9.284943	1.8353271
1493858815358	-2.5583801	-9.68895	1.3385162
1493858815358	-1.4138489	-9.593414	0.28996277
1493858815358	-0.66571045	-8.811905	0.142807
1493858815358	0.38032532	-8.254318	0.45341492
1493858815358	0.7979889	-8.173813	0.589798
1493858815358	0.75398254	-8.565857	1.280365
1493858815358	0.7232208	-9.4769745	1.9858246
1493858815358	0.6732025	-9.82695	1.6665802
1493858815358	0.9959259	-9.850983	-0.5893097
1493858815358	2.2283478	-10.298447	-1.968277
1493858815358	2.8324127	-11.247009	-0.44859314
1493858815358	1.0045471	-11.563461	0.5583954
1493858815358	-0.4389038	-11.759171	-1.3518372
1493858815358	1.3250885	-12.070084	-1.818512
1493858815358	3.959137	-12.821686	-1.4851532
1493858815358	5.980896	-14.25975	-2.7488556
1493858815358	6.076874	-14.5660095	-0.73553467
1493858815359	1.9450378	-14.501663	-2.7718353
1493858815359	-4.026535	-14.508347	-5.9688416
1493858815359	-6.388855	-12.855347	0.62072754
1493858815359	-5.892868	-11.200912	7.391281
1493858815359	-5.3982544	-12.281097	5.765686
1493858815359	-5.3150635	-15.018784	2.4668427
1493858815359	-5.2484436	-16.04042	-0.80015564
1493858815359	0.29344177	-12.387543	-1.4922485
1493858815359	5.4500732	-9.28183	1.4960175
1493858815359	5.034073	-8.394211	1.2424164
1493858815359	0.65870667	-7.333893	0.8650665
1493858815359	-1.7485504	-6.121353	1.0827484
1493858815359	-3.286438	-4.7884216	1.4079437
1493858815359	-3.6744232	-4.2220306	2.1661072
1493858815359	-3.5461884	-4.795639	2.267746
1493858815359	-2.822342	-4.8503265	2.0220642
1493858815359	-2.849884	-3.620163	2.612976
1493858815359	-3.0536346	-2.2082672	3.0690765
1493858815359	-2.4906006	-2.4438171	2.465744
1493858815359	-0.8654785	-4.9324646	-0.07507324
1493858815359	2.1939545	-11.4743805	-8.120361
1493858815359	10.009003	-18.00232	-17.47876
1493858815359	13.683594	-19.474823	-14.100067
1493858815359	6.055847	-15.016724	-5.237808
1493858815359	-0.57618713	-7.225891	-0.001449585
1493858815359	-5.6700287	-8.07222	1.7489319
1493858815359	-2.907364	-13.361862	5.447235
1493858815359	0.041122437	-13.899216	0.2801361
1493858815360	-1.6629944	-9.049423	-2.1824493
1493858815360	-6.5753937	-3.5914917	4.8601837
1493858815360	-9.484634	-4.2488556	8.267746
1493858815360	-5.3098297	-10.390457	5.391678
1493858815360	0.78715515	-13.547089	2.9020996
1493858815360	6.40329	-12.294189	2.4325714
1493858815360	6.882019	-10.642151	1.404419
1493858815360	2.6764374	-8.956696	1.8157654
1493858815360	-1.1648254	-8.166168	1.8258514
1493858815360	-3.2214966	-8.672546	2.2742004
1493858815360	-3.3848572	-9.54451	1.2558136
1493858815360	-2.6013336	-9.84877	-0.08061218
1493858815360	-1.8673248	-9.123306	0.66589355
1493858815360	-0.9102936	-8.514267	1.8011932
1493858815360	0.2004242	-8.570755	2.0653992
1493858815360	1.4953461	-9.088211	2.559021
1493858815360	1.9552917	-9.959671	2.052124
1493858815360	1.4445801	-10.609543	0.15861511
1493858815360	1.2699432	-10.75827	-2.054062
1493858815360	2.6268463	-10.872177	-1.7773895
1493858815360	2.6184235	-11.488953	-0.25578308
1493858815360	0.004470825	-11.540039	-0.16316223
1493858815360	-0.5410156	-11.560181	-1.8776855
1493858815360	2.284134	-11.763733	-0.87828064
1493858815360	4.3999023	-12.943359	-1.3457489
1493858815360	5.7001495	-13.791428	-1.6181641
1493858815360	5.545639	-14.748428	-0.54670715
1493858815361	-0.22106934	-15.387238	-4.884918
1493858815361	-4.98822	-14.017853	-4.130493
1493858815361	-6.6273804	-11.840683	3.3249512
1493858815361	-7.486969	-12.482941	7.0572968
1493858815361	-7.182434	-14.61142	4.859192
1493858815361	-6.7370453	-15.727066	1.5165863
1493858815361	-4.109833	-14.3732605	-1.5301056
1493858815361	2.400879	-10.379272	-0.18804932
1493858815361	6.5638885	-8.557373	3.20076
1493858815361	4.1188507	-8.351242	0.3882141
1493858815361	0.48643494	-7.2159424	0.16503906
1493858815361	-1.7046509	-5.5854187	1.6062317
1493858815361	-3.6726685	-3.9121704	2.9584045
1493858815361	-4.258255	-3.5449066	2.5905151
1493858815361	-3.510254	-4.134094	2.127777
1493858815361	-2.1889648	-3.802826	1.8014526
1493858815361	-1.7952728	-2.5431976	2.3242645
1493858815361	-1.6921692	-2.1837463	2.4395905
1493858815361	-1.1747742	-4.2587585	1.25914
1493858815361	-4.8828125E-4	-9.282166	-4.2528076
1493858815361	4.537857	-15.895416	-13.837616
1493858815361	11.95459	-19.474823	-15.203796
1493858815361	7.929291	-16.884659	-5.6376953
1493858815361	0.70176697	-9.425446	-2.5867462
1493858815361	-1.9858398	-4.5660553	1.424942
1493858815361	-3.6447601	-8.6813965	1.4303131
1493858815361	-3.2766266	-16.332428	1.1049194
1493858815362	0.15400696	-16.222076	-1.6058655
1493858815362	0.24581909	-10.4734955	-4.414093
1493858815362	-5.797531	-4.792618	4.322815
1493858815362	-8.430527	-4.5625305	7.300659
1493858815362	-4.464157	-8.423447	4.097595
1493858815362	0.4663849	-11.144241	2.1477356
1493858815362	4.5924225	-11.340546	3.27948
1493858815362	5.5630646	-11.459274	1.8426208
1493858815362	2.780075	-10.273376	0.58732605
1493858815362	-1.1422882	-8.694183	1.203949
1493858815362	-3.6894836	-8.463013	1.9425354
1493858815362	-3.8307343	-8.798584	1.612915
1493858815362	-2.507309	-9.083282	0.8306427
1493858815362	-1.1761475	-9.145264	0.4971466
1493858815362	-0.044174194	-9.007584	1.0397644
1493858815362	0.51171875	-8.892471	1.6661377
1493858815362	0.52749634	-8.988571	2.5508728
1493858815362	0.9177551	-9.633194	2.654663
1493858815362	1.3720398	-10.7764435	0.7421875
1493858815362	2.1484528	-11.281921	-1.8001099
1493858815362	2.7239532	-11.69136	-1.3100433
1493858815362	1.1038513	-12.127487	0.2945099
1493858815362	-1.02034	-11.943298	0.31706238
1493858815362	-0.38534546	-12.085541	-1.172409
1493858815362	3.0878906	-12.663956	-1.5380554
1493858815362	5.9831085	-13.61171	-2.33255
1493858815362	7.760086	-13.526794	-0.5791168
1493858815363	5.609726	-12.762985	-0.80485535
1493858815363	0.92697144	-13.9552765	-5.684021
1493858815363	-2.6613007	-13.832245	-2.2324524
1493858815363	-4.9376373	-11.387802	3.3959198
1493858815363	-7.109329	-11.417435	6.4312134
1493858815363	-7.6609344	-13.506393	6.2907257
1493858815363	-6.5655518	-15.740128	1.5873871
1493858815363	-3.9239502	-14.079666	-1.5009003
1493858815363	3.1806946	-10.185074	0.14982605
1493858815363	6.91893	-9.0282135	1.7070465
1493858815363	4.6978607	-8.839218	1.0569305
1493858815363	0.25219727	-8.166168	-0.6545868
1493858815363	-2.159256	-6.3303375	0.7394867
1493858815363	-3.6485138	-4.6608276	2.1116638
1493858815363	-4.3171997	-4.4031982	2.7560577
1493858815363	-4.1354218	-4.6950073	2.6425018
1493858815363	-3.720169	-3.7631836	3.0478363
1493858815363	-3.8539276	-2.3137512	3.5263062
1493858815363	-3.5623016	-2.1369019	3.0180664
1493858815363	-2.04422	-3.9148865	0.94003296
1493858815363	-0.11425781	-8.658783	-5.410843
1493858815363	4.9867554	-16.084763	-15.713104
1493858815363	14.654526	-19.474823	-16.920135
1493858815363	9.025635	-17.442856	-7.2338867
1493858815363	0.75738525	-9.302536	-2.3419647
1493858815363	-2.5883179	-2.5014954	0.95529175
1493858815364	-0.7202606	-5.159775	6.773987
1493858815364	1.436676	-13.69426	9.23526
1493858815364	-1.1770477	-17.548508	-4.7666626
1493858815364	-4.4976196	-12.12822	-8.255646
1493858815364	-8.857132	-5.447693	9.344254
1493858815364	-8.37027	-6.8993683	7.66803
1493858815364	-4.623474	-9.725571	2.7110443
1493858815364	0.8230896	-10.015671	3.330902
1493858815364	5.7219696	-11.308212	3.9588013
1493858815364	6.804474	-12.198181	1.549057
1493858815364	3.612442	-10.553467	-0.19767761
1493858815364	-1.3757782	-8.697266	0.6515045
1493858815364	-4.1979523	-8.656113	1.5228424
1493858815364	-3.924286	-9.018143	0.72454834
1493858815364	-2.1222992	-9.037811	0.030822754
1493858815364	-0.34152222	-8.921219	-0.111694336
1493858815364	0.7141266	-8.872269	0.4797821
1493858815364	1.0442657	-8.824295	1.1973877
1493858815364	1.0444946	-9.092102	2.190918
1493858815364	0.6528168	-9.621597	2.7727966
1493858815364	0.28936768	-9.792709	1.2249603
1493858815364	1.4193573	-9.972748	-1.3014069
1493858815364	2.697235	-11.119217	-1.9023438
1493858815364	0.9758606	-11.786331	-0.5190582
1493858815364	-0.6679077	-11.753387	-0.944046
1493858815364	1.1378632	-11.690659	-0.8056488
1493858815364	4.0086975	-12.224396	-0.5957947
1493858815365	5.245178	-13.408524	-2.6114044
1493858815365	6.0615845	-13.721283	-1.034729
1493858815365	4.2805786	-14.597168	-0.7887726
1493858815365	-0.72320557	-15.242126	-5.36705
1493858815365	-4.2776947	-13.801376	-2.341095
1493858815365	-5.7177734	-11.287277	4.3228607
1493858815365	-6.6395874	-11.8989105	7.128586
1493858815365	-6.8548126	-13.820267	4.331436
1493858815365	-6.7034454	-16.31514	-1.0509491
1493858815365	-3.244049	-14.206299	-2.1602478
1493858815365	3.0691528	-10.491394	0.55740356
1493858815365	5.911743	-8.810013	2.5204773
1493858815365	2.9130554	-8.514389	-0.16517639
1493858815365	-1.26651	-7.815094	0.9183655
1493858815365	-2.319687	-6.0710907	1.8222198
1493858815365	-3.9669495	-4.5372925	1.576767
1493858815365	-3.7825623	-3.9165802	1.5836182
1493858815365	-2.7420044	-4.495819	1.6082306
1493858815365	-1.958435	-4.0445404	2.1293488
1493858815365	-2.292511	-2.5282135	3.2162476
1493858815365	-2.1403198	-1.9011993	3.1253967
1493858815365	-1.0419464	-3.6182404	1.8502808
1493858815365	0.9139099	-7.758362	-1.8919983
1493858815365	4.089737	-14.696564	-10.931366
1493858815365	10.268021	-19.474823	-18.451889
1493858815365	9.119019	-18.277328	-11.403687
1493858815365	2.638855	-11.7183075	-5.6845856
1493858815366	-1.206543	-5.8760986	0.14215088
1493858815366	-3.9297028	-7.472992	3.9938202
1493858815366	-4.4711304	-13.004623	0.73973083
1493858815366	-2.750595	-13.534668	-1.2933502
1493858815366	-0.7187805	-11.039581	-1.9006653
1493858815366	-3.2384033	-6.347763	7.8339386
1493858815366	-4.791519	-6.535736	5.110901
1493858815366	-1.937851	-9.571869	3.0299225
1493858815366	1.0844421	-11.160553	3.7527008
1493858815366	3.5068054	-11.209976	3.9613495
1493858815366	3.2971954	-11.378143	1.4940643
1493858815366	0.975647	-10.643066	0.2756195
1493858815366	-1.4083405	-8.954163	1.7204742
1493858815366	-2.787445	-8.337051	2.4508514
1493858815366	-2.849472	-8.796371	1.3847809
1493858815366	-1.7754211	-9.022858	0.43807983
1493858815366	-0.5774231	-8.900497	0.2006073
1493858815366	0.30586243	-9.027222	0.15206909
1493858815366	0.5892334	-9.054306	0.7807617
1493858815366	0.6325226	-8.868851	1.6417999
1493858815366	1.0588226	-9.288849	2.0716095
1493858815366	1.5709991	-10.266617	2.2527618
1493858815366	1.8716583	-10.658783	0.9073334
1493858815366	2.3993988	-10.769363	-2.284378
1493858815366	2.413681	-11.629044	-2.8907928
1493858815366	0.60879517	-12.158783	-0.85783386
1493858815366	-0.5970001	-12.132996	-0.47525024
1493858815367	0.53126526	-12.052841	-0.39401245
1493858815367	2.4272308	-12.518204	-1.4471436
1493858815367	5.0216064	-13.566864	-2.8033905
1493858815367	6.451721	-13.786606	0.14787292
1493858815367	3.4553223	-14.3124695	-0.5083618
1493858815368	-2.2127838	-14.470154	-5.3120575
1493858815388	-5.018875	-12.938553	-1.1700134
1493858815408	-5.249115	-10.920227	4.8339233
1493858815428	-5.0916595	-11.938873	6.7999573
1493858815448	-4.2601166	-13.775269	4.033325
1493858815467	-3.8826141	-14.680557	-1.0848541
1493858815487	-1.0292358	-12.317673	-2.0628967
1493858815507	3.9350128	-9.233566	1.2164917
1493858815527	6.736435	-8.728394	2.7632751
1493858815547	3.3775024	-8.675842	0.057128906
1493858815566	-0.32281494	-8.112534	-0.21458435
1493858815586	-2.3475342	-6.51593	1.4519653
1493858815606	-3.6701355	-5.315735	2.3031921
1493858815626	-3.6083221	-5.458481	1.8443756
1493858815646	-2.4282532	-5.2949524	2.669159
1493858815685	-1.9404144	-4.598465	2.4483032
1493858815705	-2.2380524	-3.3986511	2.1917114
1493858815725	-2.5861359	-3.0649261	1.8093109
1493858815745	-1.8843689	-4.8002777	-0.22857666
1493858815765	0.4179077	-9.4357605	-4.4181366
1493858815784	3.2464905	-15.320068	-12.358536
1493858815804	8.221832	-19.474823	-18.309814
1493858815824	5.266464	-18.349731	-7.3381653
1493858815844	1.6842804	-10.212875	-4.1232452
1493858815864	0.9347687	-6.2906036	-1.9017334
1493858815884	-1.6760559	-11.93457	2.5248718
1493858815908	-2.3647766	-15.678314	2.4073334
1493858815926	-5.7121887	-13.77301	-3.5228424
1493858815948	-5.5314636	-6.162262	3.0808868
1493858815966	-5.1957855	-2.4000397	10.640045
1493858815985	-3.0677643	-7.00766	7.646347
1493858816008	-0.18273926	-13.495636	2.9050903
1493858816028	2.0195618	-14.100464	2.4873047
1493858816048	3.684082	-11.859665	2.1271667
1493858816068	1.7721558	-9.679871	1.6030121
1493858816086	-0.4579773	-8.509811	1.617218
1493858816107	-1.8551636	-8.929565	1.9880371
1493858816126	-2.5205078	-9.744568	1.0535583
1493858816146	-1.8550262	-9.936508	0.55514526
1493858816167	-1.1704407	-9.564331	-0.10221863
1493858816187	-0.4638214	-8.814102	0.57051086
1493858816206	0.6668854	-8.606049	0.7373352
1493858816225	1.6184387	-8.99791	0.58999634
1493858816246	1.8718109	-9.431412	1.1960907
1493858816262	1.3214569	-9.588226	1.6425018
1493858816282	0.6776123	-9.584854	1.1530457
1493858816302	0.7475281	-9.724976	0.11791992
1493858816327	1.5675201	-10.328857	-0.59217834
1493858816345	2.2183533	-11.209564	-0.4996338
1493858816365	1.0954895	-11.322952	-1.0637665
1493858816386	0.72120667	-11.245911	-2.2588654
1493858816405	2.8123322	-11.450333	-0.92100525
1493858816423	4.6103973	-12.322281	-1.6104584
1493858816447	5.8953705	-13.426102	-3.1014557
1493858816463	5.755615	-14.614273	-1.5526733
1493858816484	0.5656433	-16.050827	-3.0709229
1493858816503	-5.9559174	-15.294754	-3.880066
1493858816523	-7.8237	-12.760666	3.2917786
1493858816543	-7.302902	-12.550964	6.2146454
1493858816561	-5.694519	-14.418823	3.3624725
1493858816583	-5.974457	-16.698257	1.0251312
1493858816601	-3.2282867	-14.787933	-2.1877136
1493858816621	2.3519592	-10.523865	-0.44285583
1493858816642	5.92955	-8.532547	2.3620148
1493858816665	3.4122467	-8.070343	0.5057068
1493858816682	0.025177002	-7.1868286	0.8558655
1493858816700	-2.1435394	-5.6327057	2.267746
1493858816722	-3.5788116	-4.232483	2.4933167
1493858816741	-3.7844086	-3.5729523	2.5832672
1493858816759	-2.844986	-4.15094	2.2334442
1493858816781	-2.1074066	-4.3316956	2.3719025
1493858816801	-2.1924896	-2.3546295	3.1500244
1493858816819	-2.3140411	-1.5581818	2.5634613
1493858816842	-0.8544769	-2.924347	2.2093353
1493858816857	0.4835968	-8.07489	-3.0078278
1493858816880	3.7250519	-16.633163	-18.75058
1493858816900	10.820984	-19.326141	-19.693207
1493858816939	3.7271423	-18.967606	-7.9373016
1493858816958	-1.2015839	-6.88678	-1.9968414
1493858816979	-2.9278564	-3.0006409	-1.2514954
1493858816997	-3.746994	-11.826538	1.762619
1493858817019	-0.3560791	-16.601593	0.83180237
1493858817039	-0.35635376	-13.878433	0.33332825
1493858817056	-2.6420898	-6.457596	0.73825073
1493858817078	-5.9218445	-3.2046967	6.556671
1493858817098	-2.4751892	-6.558441	6.0847473
1493858817125	0.24906921	-13.266907	3.0153809
1493858817133	2.0945892	-13.401154	2.3533173
1493858817154	3.5533752	-10.683273	2.0693665
1493858817177	1.791626	-9.746338	1.3586578
1493858817199	-0.4398651	-9.13504	1.1815948
1493858817217	-1.9627686	-8.686966	2.0585785
1493858817237	-2.800232	-8.9561	1.628128
1493858817254	-2.2919464	-9.268402	0.8515625
1493858817272	-1.2173004	-9.241531	0.53959656
1493858817292	-0.048095703	-8.873077	0.34986877
1493858817315	0.6904144	-9.251251	-0.28144836
1493858817336	1.0214691	-9.605515	0.21520996
1493858817357	0.97875977	-9.53569	1.2131348
1493858817374	1.1204529	-9.416504	1.8339691
1493858817394	1.880661	-9.770798	1.6919861
1493858817412	2.6470032	-10.460968	-0.29458618
1493858817435	2.9345245	-11.026398	-2.117279
1493858817456	1.770462	-11.562576	-1.7377625
1493858817472	-0.19943237	-11.943588	-1.3576202
1493858817494	0.058776855	-12.03157	-1.329773
1493858817516	2.3280945	-12.037903	-1.3168793
1493858817532	4.348297	-12.865311	-3.1764374
1493858817550	5.7838287	-13.878052	-1.9921112
1493858817570	4.4817047	-14.49205	-1.1072845
1493858817589	-0.4680481	-14.765289	-4.3737946
1493858817609	-4.183975	-13.371414	-2.1678925
1493858817629	-3.602829	-11.49762	5.024063
1493858817652	-2.5462646	-11.541107	6.238266
1493858817672	-2.7870636	-13.898239	3.1224213
1493858817688	-4.24588	-16.517517	0.78326416
1493858817711	-2.4316711	-14.550262	-0.620636
1493858817728	3.0582275	-10.492493	0.9739227
1493858817751	5.6276855	-9.0578	0.6059723
1493858817771	3.4488983	-8.537323	-0.34910583
1493858817788	-0.19981384	-7.5982056	1.0761566
1493858817811	-2.6479492	-6.0447693	2.6114502
1493858817831	-3.85701	-4.6677246	2.4852753
1493858817847	-4.1102753	-4.7445984	1.947937
1493858817870	-3.3539429	-5.289505	1.5280762
1493858817886	-3.0507965	-4.9013824	2.0203705
1493858817907	-3.189392	-3.2071228	3.227539
1493858817933	-2.8798676	-2.396576	3.2976685
1493858817947	-1.5331573	-3.9314575	1.772232
1493858817966	0.8248749	-8.915298	-1.7988129
1493858817986	2.7630005	-17.024368	-14.56781
1493858818003	12.314285	-19.368973	-19.481766
1493858818024	9.538864	-17.926239	-4.130478
1493858818047	3.5523071	-9.987473	-1.7937164
1493858818066	-0.44561768	-4.0642242	-0.84510803
1493858818106	-0.6977234	-2.5090485	6.5507813
1493858818106	-6.588028	-12.971039	2.1031342
1493858818146	-5.840042	-19.112946	-4.262665
1493858818164	0.099823	-16.447037	-5.3810577
1493858818186	-2.4415283	-6.336441	8.190475
1493858818206	-5.0796356	-4.434067	8.719681
1493858818225	-2.2222595	-7.425247	4.8129272
1493858818245	-0.51693726	-11.47139	3.6614227
1493858818262	2.0939026	-11.980118	4.1733246
1493858818286	2.285553	-12.651123	2.0252228
1493858818304	0.20010376	-10.600983	0.90660095
1493858818325	-2.3805847	-9.107697	1.3582611
1493858818345	-3.0335693	-8.716507	1.1314392
1493858818368	-2.2568665	-8.612305	1.0421753
1493858818386	-1.045105	-8.591003	0.7888336
1493858818405	-0.13978577	-8.79097	1.087326
1493858818426	0.580719	-9.345596	0.5880585
1493858818445	1.1422882	-9.206528	0.83203125
1493858818463	1.3086395	-8.9778595	0.8909302
1493858818487	1.4363251	-9.451187	1.0850677
1493858818505	1.2904205	-10.208923	1.0290833
1493858818524	1.765976	-10.204575	-0.5124817
1493858818546	2.8947144	-10.5403595	-1.9486694
1493858818564	3.020996	-11.3927765	-1.2509918
1493858818582	1.411087	-11.79657	-0.9148407
1493858818609	0.32814026	-11.878784	-1.7716675
1493858818619	1.5982513	-11.789978	-1.213028
1493858818639	2.767685	-12.157944	-1.9095154
1493858827318	3.86203	-13.206696	-3.3110657
1493858827319	4.8746796	-14.178207	-2.2768555
1493858827319	2.6898804	-14.296982	-2.8457184
1493858827319	-0.95062256	-13.774384	-3.1362457
1493858827319	-3.1730042	-12.656158	1.0765533
1493858827319	-3.8677673	-12.440033	5.506592
1493858827319	-4.5933533	-14.067215	5.0339966
1493858827320	-5.572052	-16.534042	3.0059814
1493858827320	-3.7795258	-15.711746	0.29870605
1493858827320	1.1340027	-11.599991	-0.3486328
1493858827320	5.601227	-9.148987	1.0822906
1493858827320	4.6318817	-8.524551	0.620224
1493858827320	0.6710205	-7.8104553	0.853714
1493858827321	-2.1188354	-6.638031	1.4508057
1493858827321	-3.3282166	-5.283432	2.400711
1493858827321	-3.4596558	-4.833374	2.5861359
1493858827321	-3.2167664	-5.1789856	2.7863312
1493858827321	-3.030487	-4.729019	2.901245
1493858827321	-3.7315826	-2.9747467	3.3565674
1493858827321	-3.9592133	-1.8113556	3.120453
1493858827322	-2.8716736	-3.268341	1.912735
1493858827322	-0.5224762	-7.7677307	-2.3954163
1493858827322	1.4134979	-14.8424835	-13.124985
1493858827322	10.466949	-18.889969	-18.938644
1493858827322	8.898605	-19.252197	-3.973175
1493858827322	2.8986816	-11.08432	-2.3639526
1493858827322	-1.0247955	-4.970825	-1.7175446
1493858827323	-0.50213623	-4.673172	3.3088684
1493858827323	-2.0703125	-14.3615265	-0.44699097
1493858827323	-3.7518616	-18.32251	-1.0857239
1493858827323	-0.84776306	-13.405746	-5.638336
1493858827323	-4.643112	-4.9445343	7.1236115
1493858827323	-5.446762	-3.1322632	9.281158
1493858827323	-1.9125977	-9.468826	4.8533783
1493858827324	0.835968	-13.189117	1.8253937
1493858827324	3.4294128	-11.668167	3.6953888
1493858827324	2.7948456	-10.976486	2.1644592
1493858827324	-0.40499878	-9.885025	1.1447144
1493858827324	-3.032257	-8.975586	1.6267853
1493858827325	-2.9797058	-8.763824	1.5232086
1493858827325	-1.8542328	-8.936508	1.6115265
1493858827325	-0.75753784	-8.729034	1.1444092
1493858827325	-0.07777405	-8.346405	1.2198792
1493858827325	0.31973267	-9.103027	0.3138733
1493858827325	0.55784607	-9.437454	0.61239624
1493858827352	0.78056335	-9.184235	1.457962
1493858827352	1.1754456	-9.766159	1.4514923
1493858827352	1.3661957	-11.297379	1.3401642
1493858827352	1.7928619	-11.333115	-0.20326233
1493858827352	2.6977692	-10.75737	-1.9442902
1493858827352	2.3935852	-11.270477	-1.4232788
1493858827353	0.23725891	-11.397095	-0.61338806
1493858827353	-0.3009491	-11.418884	-1.1364288
1493858827353	1.9511871	-11.658463	-0.7760773
1493858827353	3.7314758	-12.364624	-0.87142944
1493858827353	4.4501038	-13.589127	-1.7177887
1493858827353	4.410721	-13.804077	-1.0674286
1493858827353	1.868927	-13.694473	-2.8045044
1493858827354	-1.6856384	-13.6853485	-4.0452576
1493858827354	-3.319809	-11.883942	0.24417114
1493858827354	-4.376816	-10.713165	4.7848663
1493858827354	-5.4430237	-12.1749115	5.8727417
1493858827354	-5.6609955	-14.865143	3.3501587
1493858827354	-4.8417816	-15.7561035	-0.45750427
1493858827355	-0.6161194	-12.660919	-1.6330872
1493858827355	4.8253937	-9.526855	0.6455841
1493858827355	6.020233	-8.82753	1.5227661
1493858827355	2.689499	-8.27655	0.8336029
1493858827355	-1.0775146	-7.1402283	0.93748474
1493858827355	-3.2735748	-5.8784485	2.053009
1493858827356	-4.135559	-5.1082916	2.5965118
1493858827356	-3.846756	-5.3706055	2.401474
1493858827356	-3.0951538	-5.6410065	2.2763367
1493858827356	-3.0254517	-4.5213776	2.5475006
1493858827356	-3.3132324	-2.690857	2.8002777
1493858827356	-2.782013	-2.7375183	2.2086945
1493858827357	-0.98275757	-5.513077	-0.36865234
1493858827357	1.0411377	-11.780228	-8.202942
1493858827357	7.025406	-17.932617	-17.306015
1493858827357	10.053864	-19.474823	-9.936142
1493858827357	4.627289	-13.271515	-4.9855804
1493858827357	-0.06213379	-6.1822357	-1.1246338
1493858827357	-2.8114471	-9.4635315	0.029541016
1493858827358	3.138855	-15.155441	2.2302246
1493858827358	-0.17329407	-14.006805	0.77845764
1493858827358	-6.3593445	-7.0373993	-6.2361145
1493858827358	-8.469315	-2.1317291	9.008804
1493858827358	-5.677948	-4.7576447	11.480164
1493858827358	-1.9275055	-14.06456	3.6452637
1493858827359	1.5262451	-15.056534	1.1429443
1493858827359	5.52507	-11.458893	1.8478394
1493858827359	3.96698	-9.781601	2.100418
1493858827359	-0.038528442	-8.628906	1.5467987
1493858827359	-2.7635345	-8.293274	2.2357483
1493858827359	-3.3196716	-9.392044	1.9446716
1493858827359	-2.246643	-9.852158	1.974823
1493858827360	-1.5592957	-9.573257	0.5994415
1493858827360	-0.5509796	-8.745026	1.0730438
1493858827360	0.22595215	-8.754684	0.75720215
1493858827360	0.66578674	-8.534439	1.0095062
1493858827360	1.0075226	-8.828842	1.2417908
1493858827360	1.7640533	-10.454254	2.0549316
1493858827360	1.8148804	-11.400238	0.9440613
1493858827361	1.9472504	-10.364395	-1.9072266
1493858827361	2.4156036	-10.340637	-2.322403
1493858827361	1.6082001	-10.960236	-0.28308105
1493858827361	-0.15623474	-11.400574	-0.26036072
1493858827361	0.5296478	-11.742813	-1.5907288
1493858827361	3.5165558	-12.287918	-1.3847046
1493858827362	4.785309	-12.812576	-2.7073517
1493858827362	5.6180573	-13.718277	-3.291092
1493858827362	4.756424	-14.415054	-2.2642517
1493858827362	0.7194061	-14.346542	-4.6397705
1493858827362	-3.8809204	-13.555466	-2.0231323
1493858827362	-5.762451	-12.636993	4.0098114
1493858827363	-5.864746	-13.754349	5.932831
1493858827363	-5.801468	-15.446518	3.974121
1493858827363	-5.4291687	-16.2621	1.8118439
1493858827363	-2.4151764	-14.41098	-1.1655273
1493858827363	3.1004791	-10.778397	-1.0802155
1493858827363	5.8021545	-8.998428	0.12879944
1493858827363	3.5810242	-8.357285	0.56988525
1493858827364	0.12345886	-7.5553894	1.37146
1493858827364	-2.0587158	-6.1828613	1.7210083
1493858827364	-3.510437	-4.5753784	2.5619202
1493858827364	-4.0805206	-3.968979	2.8548431
1493858827364	-3.3349915	-4.0309753	2.1432343
1493858827364	-2.6214905	-3.708725	2.5005798
1493858827365	-3.094284	-2.6605072	3.54805
1493858827365	-3.4431763	-1.9622955	3.6059265
1493858827365	-2.745224	-3.1131897	2.4184265
1493858827365	-0.83576965	-7.515686	-1.5130615
1493858827365	2.3723602	-15.853394	-13.685699
1493858827367	11.072571	-19.474823	-19.722397
1493858827367	8.336182	-18.807663	-10.073959
1493858827367	1.2806244	-10.997147	-2.3763275
1493858827367	-1.7816925	-3.678131	-1.2888794
1493858827368	-3.5657043	-7.5802917	-0.6605377
1493858827368	0.3119812	-15.024506	-1.9148712
1493858827368	2.2641296	-15.970566	1.7265015
1493858827368	-1.9547424	-9.007492	-0.12124634
1493858827368	-6.51593	-3.3979492	4.018173
1493858827368	-5.155716	-4.275467	8.567017
1493858827369	-2.5047455	-11.696747	3.9444275
1493858827369	-0.98039246	-13.2751465	0.3778534
1493858827369	1.2349548	-10.84256	3.6645355
1493858827369	1.6764984	-10.174438	3.0255585
1493858827369	0.9553833	-9.956009	0.6976166
1493858827369	-0.03239441	-9.433472	1.5934143
1493858827369	-1.3184204	-9.486847	3.032837
1493858827370	-1.732605	-9.551422	2.0835571
1493858827370	-0.69366455	-9.162659	0.7935486
1493858827370	0.31976318	-8.529724	1.074173
1493858827370	1.0813599	-8.621658	0.34576416
1493858827370	1.3443604	-9.232605	0.3786621
1493858827370	1.0605011	-9.069061	1.005249
1493858827370	0.89149475	-9.365204	1.5122833
1493858827371	1.6186523	-11.030991	1.6010895
1493858827371	1.892807	-12.324249	0.9382477
1493858827371	2.4537354	-11.330551	-2.6300201
1493858827371	3.1448975	-11.11084	-3.2722015
1493858827371	1.5986938	-11.580933	-0.3594818
1493858827371	-0.98905945	-11.771942	0.3417511
1493858827372	0.46621704	-12.075653	-1.8641205
1493858827372	4.349701	-12.576294	-1.7472229
1493858827372	6.274109	-13.186279	-1.8058167
1493858827372	6.190216	-13.194687	-1.1937103
1493858827372	4.006912	-13.053726	-1.0793457
1493858827372	-0.62802124	-14.36322	-4.0889435
1493858827372	-4.183716	-14.005783	-0.44334412
1493858827373	-6.8034363	-12.2973175	4.4791107
1493858827373	-7.5579376	-12.866638	5.931244
1493858827373	-6.786682	-14.899841	3.4398193
1493858827373	-5.0501404	-15.586212	0.4648285
1493858827373	-1.7552338	-13.16507	-1.0746918
1493858827373	3.7707977	-9.863678	0.5519409
1493858827374	6.2903137	-8.838638	1.6270599
1493858827374	3.7426453	-8.579803	0.42469788
1493858827374	-0.5294647	-7.6354065	0.7548981
1493858827374	-2.8495026	-6.195053	1.7512817
1493858827374	-4.127182	-4.813553	3.214325
1493858827374	-4.070923	-4.5298615	3.005951
1493858827375	-3.0040894	-4.8388367	2.4130402
1493858827375	-2.3035126	-4.048126	2.6724396
1493858827375	-2.6349487	-2.4683533	3.182846
1493858827375	-2.580719	-1.9532166	2.691452
1493858827375	-1.5759583	-3.529892	1.1599121
1493858827375	-0.20365906	-8.321701	-3.7473907
1493858827375	3.3048859	-15.890533	-14.131882
1493858827376	9.790085	-19.474823	-15.837723
1493858827376	7.376419	-16.732239	-9.692001
1493858827376	0.69200134	-8.76918	-4.0483093
1493858827376	-3.7360382	-5.010437	1.0361328
1493858827376	-4.18248	-11.530899	0.7644348
1493858827376	-0.49531555	-16.506592	1.8408508
1493858827377	-1.696106	-12.726746	-3.9095764
1493858827377	-4.9088593	-5.1603394	3.537384
1493858827377	-6.096649	-1.6758423	10.129959
1493858827377	-3.6598358	-8.195465	6.478195
1493858827377	-1.2020264	-14.506348	2.2070465
1493858827377	2.1786194	-13.616821	3.197998
1493858827377	4.200424	-11.420822	3.1503906
1493858827378	3.1951904	-10.313599	1.6922607
1493858827378	0.18553162	-9.060104	1.3965759
1493858827378	-2.2619934	-8.527756	2.2600708
1493858827378	-3.3159332	-9.087921	1.7811432
1493858827378	-2.9782104	-9.34845	0.8008728
1493858827378	-1.6867218	-9.177017	0.41392517
1493858827379	-0.40031433	-8.984863	-0.12454224
1493858827379	1.1372833	-9.129898	-0.0038757324
1493858827379	1.5273895	-9.19664	0.32632446
1493858827379	1.5249786	-9.214447	1.1861725
1493858827379	1.4216461	-9.8402405	2.177414
1493858827379	1.5077362	-10.239304	2.1531525
1493858827379	2.038437	-10.234619	-0.13578796
1493858827380	3.6177979	-10.378983	-2.4629974
1493858827380	3.3857422	-11.32872	-1.1750641
1493858827380	-0.1421051	-11.127548	-0.014755249
1493858827380	-1.5827484	-11.240204	-1.0458374
1493858827380	0.69937134	-11.502029	-0.348938
1493858827380	2.4143066	-12.151108	-1.4422607
1493858827381	3.875061	-13.560989	-3.697281
1493858827381	7.6910553	-13.658417	0.033737183
1493858827381	3.8458405	-13.957809	-1.359726
1493858827381	-2.0672302	-13.886795	-5.7734833
1493858827381	-5.5446625	-13.3654175	-0.54112244
1493858827381	-5.5714417	-11.704285	5.6327667
1493858827381	-5.3719177	-13.052399	6.5315704
1493858827382	-5.151367	-15.046753	2.8336182
1493858827382	-5.1287537	-15.898041	-1.0022888
1493858827382	-2.132492	-12.848541	-0.34881592
1493858827382	3.0694275	-9.375946	1.1103516
1493858827382	5.561249	-8.747467	1.4181824
1493858827382	2.5927734	-8.948273	0.55114746
1493858827382	-1.2092438	-7.7901764	1.0823822
1493858827383	-3.3749084	-6.46196	1.5039825
1493858827383	-4.1181335	-5.3806	2.2078552
1493858827383	-3.7735443	-5.1961517	2.3861542
1493858827383	-3.162033	-5.255005	2.016632
1493858827383	-2.6821747	-4.141968	2.1560364
1493858827384	-2.5191803	-2.1121063	3.3384552
1493858827384	-2.2052155	-1.4398041	2.9597473
1493858827384	-0.843277	-3.5509186	0.78170776
1493858827384	1.6516571	-8.864197	-3.99852
1493858827384	5.4269714	-16.064102	-13.729309
1493858827384	10.840729	-19.474823	-14.617264
1493858827384	9.004456	-16.260132	-7.6262665
1493858827385	2.0309753	-8.905792	-3.9749298
1493858827389	-1.5236816	-5.6940765	3.3380585
1493858827389	-2.2165375	-10.3688965	6.0208893
1493858827389	-4.145569	-15.686859	0.012451172
1493858827389	-6.321823	-13.793716	-2.6865082
1493858827389	-6.2528076	-6.0611115	7.116806
1493858827389	-5.7295685	-3.4883728	9.573853
1493858827389	-2.250183	-8.712326	4.7208405
1493858827389	0.76127625	-12.749863	3.0912018
1493858827389	3.6087341	-12.317017	3.237442
1493858827389	3.4645538	-11.491974	1.5034943
1493858827389	0.7551422	-9.968048	0.8854065
1493858827389	-1.9975433	-8.463257	1.4785309
1493858827389	-2.9420624	-8.619904	1.9047852
1493858827389	-2.0909882	-9.3992	1.4103546
1493858827389	-0.6138458	-9.593369	1.1436462
1493858827389	0.1368103	-9.373688	0.3515625
1493858827389	0.31793213	-9.104004	0.6980133
1493858827389	0.39421082	-9.151672	0.4739685
1493858827389	0.8293152	-9.416901	0.5124359
1493858827389	1.4177094	-9.82254	1.7045593
1493858827390	1.6850586	-9.986099	2.2104187
1493858827390	1.4228363	-10.06456	0.9297638
1493858827390	1.6337433	-9.968674	-1.3152771
1493858827390	2.690918	-10.5720825	-2.1788025
1493858827390	2.8626251	-11.738235	-1.0443115
1493858827390	0.8886566	-11.885101	-0.45335388
1493858827390	-0.084991455	-11.6401825	-2.273407
1493858827390	1.956192	-12.065475	-2.0700989
1493858827390	5.5286407	-13.205078	-1.0567169
1493858827390	5.776352	-13.64473	-0.38212585
1493858827390	4.452835	-14.975967	-0.3661499
1493858827390	-2.1663818	-15.699066	-4.656662
1493858827390	-6.7056885	-14.183655	-1.397171
1493858827390	-6.8414764	-11.085327	4.7959137
1493858827390	-6.5243073	-11.315475	5.639511
1493858827390	-4.807892	-13.718231	4.4553223
1493858827390	-4.030487	-15.023163	-0.25404358
1493858827390	-1.7261505	-13.413696	-2.9187012
1493858827390	3.065216	-10.401093	0.47511292
1493858827390	5.1872253	-9.088287	3.1988373
1493858827390	2.1982727	-8.645325	0.6669159
1493858827390	-0.597229	-7.6601257	0.2680664
1493858827390	-2.6762543	-6.28685	1.1949921
1493858827390	-3.8742676	-4.758438	2.6632233
1493858827390	-3.8019714	-4.325714	2.3060913
1493858827390	-2.8926544	-4.63266	1.7947083
1493858827390	-2.1878204	-4.4272766	2.3250122
1493858827390	-2.12883	-2.9952698	2.9957123
1493858827390	-2.1501007	-2.171875	2.9512787
1493858827390	-1.0620575	-3.6174774	1.5726471
1493858827390	0.6488342	-7.81839	-2.7883759
1493858827390	3.325714	-14.9270935	-12.437363
1493858827390	8.114334	-19.474823	-15.851547
1493858827390	8.356644	-16.945114	-8.933075
1493858827390	1.9733429	-10.2202	-5.1135864
1493858827390	-3.0780792	-8.646011	-1.7243805
1493858827390	-2.779602	-13.869232	0.6599426
1493858827390	1.3829346	-13.880066	2.6476898
1493858827390	-2.375	-8.191864	-2.1701355
1493858827390	-8.125336	-3.1797485	0.46861267
1493858827391	-5.9622498	-2.5715027	10.030441
1493858827391	-1.9334717	-9.42099	6.3208313
1493858827391	-0.2515564	-15.30423	0.6374359
1493858827391	1.8956451	-13.839249	1.2335968
1493858827391	3.3879547	-10.457077	2.7704773
1493858827391	2.4677582	-8.912109	2.8755188
1493858827391	0.32637024	-8.567062	2.324997
1493858827391	-1.5623932	-9.042053	2.3628845
1493858827391	-2.968811	-9.689438	1.6573334
1493858827391	-2.8260956	-9.668533	1.2221069
1493858827391	-1.9716339	-9.486938	0.14701843
1493858827391	-1.0183716	-9.099289	0.33839417
1493858827391	-0.008392334	-8.663773	0.9983368
1493858827391	0.89219666	-8.638397	1.2047882
1493858827391	1.3434143	-9.395813	1.2242737
1493858827391	1.5394897	-10.434616	1.75177
1493858827391	1.1890564	-10.698059	0.8617554
1493858827391	1.0634613	-10.366455	-1.9268799
1493858827391	1.8293304	-10.657806	-2.9005737
1493858827391	1.535202	-11.416122	-1.2262726
1493858827391	-0.53775024	-11.844269	-0.54241943
1493858827391	-0.10636902	-12.215744	-2.2120514
1493858827391	2.4251099	-12.552002	-1.789566
1493858827391	5.509613	-13.518631	-2.5917206
1493858827391	6.5337067	-13.716034	-0.9572449
1493858827391	4.32724	-13.880508	0.81318665
1493858827391	-2.4728851	-14.517944	-5.3081055
1493858827391	-6.382431	-13.1483	-1.1577301
1493858827391	-5.5685883	-10.646149	4.100174
1493858827391	-6.192749	-12.265381	6.2186584
1493858827391	-5.0895386	-14.632431	4.895523
1493858827391	-5.8769836	-16.146057	0.8170471
1493858827391	-2.9337616	-13.35141	-2.3156433
1493858827391	2.9260254	-9.16571	0.65982056
1493858827391	5.12558	-8.343338	2.524704
1493858827391	4.2167053	-8.072571	0.57263184
1493858827391	0.28918457	-7.1679535	0.22122192
1493858827391	-2.1164093	-5.9253387	1.0992432
1493858827391	-3.44104	-5.002487	1.8993073
1493858827391	-3.462494	-4.9631042	1.9812164
1493858827391	-2.4640045	-5.202896	1.9266968
1493858827391	-1.9170837	-4.9480743	2.2676086
1493858827391	-2.3229523	-3.564804	2.576004
1493858827392	-2.0661469	-3.0971222	2.5811462
1493858827392	-0.99334717	-4.799362	1.3405304
1493858827392	0.23052979	-8.609787	-2.8793793
1493858827392	2.1712952	-14.732925	-12.182938
1493858827392	6.519989	-19.474823	-16.77008
1493858827392	8.355026	-17.590302	-9.142471
1493858827392	2.5994263	-11.475983	-5.1089783
1493858827392	-0.39642334	-5.522049	-1.6828918
1493858827392	-1.742569	-4.440796	1.5052643
1493858827392	-3.3487854	-10.611298	2.4299927
1493858827392	-2.8321838	-17.149872	-0.85112
1493858827392	-0.6684265	-16.550964	-3.6979065
1493858827392	-1.10849	-9.809677	-0.7746277
1493858827392	-4.921875	-3.8947906	7.003525
1493858827392	-5.322235	-4.866104	6.8798676
1493858827392	-2.196167	-9.879532	4.026352
1493858827392	0.8888855	-12.6527405	2.321518
1493858827392	2.87294	-12.681168	2.509613
1493858827392	2.7312927	-11.424896	1.6924133
1493858827392	0.8652191	-9.553421	1.5198975
1493858827392	-1.1132507	-8.694565	2.3805084
1493858827392	-2.8227234	-9.045578	1.9158936
1493858827392	-3.2760162	-9.578461	1.4105835
1493858827392	-2.4731445	-9.756378	0.54629517
1493858827392	-1.3410034	-9.328613	0.19172668
1493858827392	0.010559082	-8.661072	0.6414337
1493858827392	1.1040344	-8.508591	0.8635559
1493858827392	1.6353302	-8.75412	1.1537018
1493858827392	1.8235168	-9.171219	1.922409
1493858827392	1.6342163	-9.524429	1.9391327
1493858827392	1.1603394	-9.7114105	0.5640106
1493858827392	1.4854279	-9.848587	-1.6629639
1493858827392	2.1775818	-10.75325	-1.8721771
1493858827392	1.4833069	-11.357849	-0.8585663
1493858827392	0.47206116	-11.576553	-1.3514557
1493858827392	1.0207214	-11.885101	-1.0012054
1493858827392	2.5144196	-12.228012	-0.7251587
1493858827392	3.689621	-13.655884	-3.1513062
1493858827392	4.729782	-14.081314	-1.8462219
1493858827392	2.9707947	-13.94693	-1.9519958
1493858827392	-1.6793213	-14.094147	-4.952179
1493858827392	-4.5882416	-13.084946	0.06503296
1493858827393	-4.438156	-11.468887	4.237091
1493858827393	-5.860214	-13.439926	5.7716675
1493858827393	-5.9926453	-15.299774	4.6577454
1493858827393	-5.751251	-16.025665	1.8503113
1493858827393	-0.9869385	-12.501953	-3.300949
1493858827393	4.477066	-9.845917	-0.34977722
1493858827393	6.068939	-9.208954	1.6145477
1493858827393	2.4247284	-8.063995	0.19760132
1493858827393	-1.2058868	-7.314804	1.06073
1493858827393	-2.7633057	-5.831238	2.2895508
1493858827393	-3.9153595	-4.6112213	3.0471802
1493858827393	-3.7930603	-4.644348	2.064743
1493858827393	-2.6659393	-5.1615906	1.8933716
1493858827393	-2.0404663	-4.405197	2.2730103
1493858827393	-2.6391754	-2.6892395	2.9742584
1493858827393	-2.3658752	-2.2754974	2.8298187
1493858827393	-1.0030212	-4.5515594	1.0910797
1493858827393	0.8306885	-9.594894	-3.6660004
1493858827393	3.4354858	-16.283447	-13.341873
1493858827393	9.634811	-19.474823	-16.386185
1493858827393	8.414551	-17.328018	-6.254776
1493858827393	1.9072266	-9.746292	-3.1831665
1493858827393	-1.6214905	-5.0434113	0.35523987
1493858827393	-2.951004	-8.651215	1.7412109
1493858827393	-1.243927	-16.657074	-0.4496765
1493858827393	-0.67414856	-15.962204	-2.4586182
1493858827393	-3.6427155	-7.2571564	-3.973938
1493858827393	-6.1460114	-1.0372009	8.652237
1493858827393	-4.7841797	-4.157715	11.39978
1493858827393	-1.3387451	-12.985077	4.678589
1493858827393	0.8842163	-16.290588	0.35420227
1493858827393	2.0543976	-13.145752	2.12706
1493858827393	1.6090088	-9.628571	3.5637207
1493858827393	-0.28726196	-8.959213	2.0219116
1493858827393	-1.5466156	-9.230667	0.91900635
1493858827393	-1.9344177	-9.84404	1.1691132
1493858827393	-2.0579987	-10.1783905	1.4827423
1493858827393	-1.8620453	-9.6341095	1.0020294
1493858827393	-1.489151	-8.628067	0.39120483
1493858827393	-0.5799866	-8.229797	0.76242065
1493858827393	0.44891357	-8.37413	1.0366058
1493858827393	0.66848755	-8.5907135	1.0909119
1493858827393	0.513443	-9.03093	1.4046631
1493858827394	0.42279053	-9.596436	1.5433044
1493858827394	0.56573486	-10.004822	0.8341522
1493858827394	1.551239	-10.360611	-0.81877136
1493858827394	2.791977	-10.919159	-1.9227142
1493858827394	2.9333496	-11.329651	-2.4388275
1493858827394	2.3841858	-11.400665	-2.6808472
1493858827394	2.579544	-11.497726	-1.4513092
1493858827394	2.8176422	-12.045303	-1.4651031
1493858827394	3.4567719	-13.044189	-3.7812958
1493858827394	4.5828857	-14.470474	-3.4312897
1493858827394	1.4398651	-15.32312	-2.3730927
1493858827394	-2.2016602	-14.779129	-2.3973236
1493858827394	-5.9084167	-14.359467	-0.9087219
1493858827394	-5.3458557	-12.060211	6.6621704
1493858827394	-4.8832703	-13.155731	6.504532
1493858827394	-6.0889435	-14.943878	5.2782135
1493858827394	-4.34816	-15.259598	0.31922913
1493858827394	1.2064514	-11.611862	-3.2182007
1493858827394	5.766678	-9.307983	-0.5643463
1493858827394	3.6257935	-8.851303	0.59375
1493858827394	0.34605408	-7.6248627	1.5099945
1493858827394	-1.9483643	-7.1094666	1.4489594
1493858827394	-1.9051819	-5.648926	2.6196747
1493858827394	-2.7781677	-4.709381	2.566803
1493858827394	-3.3911285	-4.740631	2.332779
1493858827394	-3.1473846	-4.6507263	1.7908783
1493858827394	-3.50177	-3.7469177	2.4413147
1493858827394	-3.9855804	-2.41185	2.9709778
1493858827409	-3.4645233	-2.8919525	2.3049774
1493858827428	-1.969284	-5.698105	0.04508972
1493858827446	0.48143005	-11.790207	-6.8268433
1493858827467	5.4444885	-17.821228	-16.977997
1493858827486	12.61647	-19.004913	-16.076736
1493858827510	5.60408	-15.260864	-3.5437622
1493858827529	0.6685791	-7.593857	-0.6695404
1493858827545	-2.5068665	-7.4149017	-0.5132599
1493858827569	-1.6760712	-15.402039	-4.336853
1493858827589	3.6476898	-17.19844	-3.640854
1493858827609	1.955246	-11.243927	3.7341614
1493858827628	-5.77211	-3.0186768	2.4112244
1493858827649	-10.644791	0.86524963	3.644333
1493858827664	-6.5219116	-4.322815	12.296188
1493858827691	-1.0788422	-15.166565	4.6054535
1493858849320	1.8505096	-17.30658	-0.81726074
1493858849320	4.7118683	-13.253235	0.21720886
1493858849320	4.4767303	-9.514618	2.9842682
1493858849321	1.25531	-8.303345	2.8252258
1493858849321	-1.9181061	-8.886002	1.4985504
1493858849321	-2.9969788	-10.105621	1.813446
1493858849321	-2.7075348	-10.637939	1.9563446
1493858849321	-2.096634	-10.16539	1.1911469
1493858849321	-1.4691467	-9.064758	0.44100952
1493858849322	-0.42988586	-8.091644	0.97483826
1493858849322	0.66407776	-7.838211	1.5353546
1493858849322	1.3926392	-7.8728943	1.6442871
1493858849322	1.6069489	-8.64798	2.288025
1493858849322	1.3763275	-10.244049	2.0496216
1493858849323	1.0890503	-10.940414	-0.06611633
1493858849323	1.5158997	-10.633652	-2.1284485
1493858849323	1.9096527	-10.8741	-1.7861328
1493858849323	0.90478516	-11.46373	-0.8651581
1493858849323	0.2661438	-11.730759	-1.0976868
1493858849323	1.8519592	-11.928177	-1.1681366
1493858849323	3.5293121	-12.314301	-1.5063324
1493858849324	4.8999176	-13.165436	-2.7819672
1493858849324	5.4694824	-14.106125	-1.3247375
1493858849324	2.7296143	-14.577438	-2.8114166
1493858849324	-2.4783173	-15.2083435	-5.711029
1493858849324	-6.4729614	-13.859467	-1.1036072
1493858849324	-7.036728	-12.500229	5.681198
1493858849324	-6.683365	-14.179626	7.4123535
1493858849325	-7.3023224	-15.938797	5.406555
1493858849325	-5.112335	-15.285507	-0.6856537
1493858849325	1.6901398	-11.428421	-1.978714
1493858849325	8.114059	-8.7677765	-0.09133911
1493858849325	5.4106293	-8.693024	-0.17825317
1493858849325	0.79611206	-7.804245	1.8717041
1493858849325	-1.215332	-6.618622	0.9792633
1493858849326	-2.5177307	-4.9708557	2.5899048
1493858849326	-3.1585693	-3.6228943	2.9627686
1493858849326	-3.5680237	-3.8978271	2.2819061
1493858849326	-2.7499084	-4.4592896	1.6019135
1493858849326	-2.1181488	-3.5514374	2.5361633
