accelerometer_timestamp accelerometer_x_data  accelerometer_y_data  accelerometer_z_data
1493846016073 -2.8766937  5.2964783 7.6198883
1493846016073 -2.0580292  5.2935486 6.73526
1493846016078 -2.282959 5.127304  7.698227
1493846016098 -2.4868011  4.9733124 8.601883
1493846016118 -2.2700043  5.0189667 8.407059
1493846016137 -2.3557892  5.2556305 7.8399353
1493846016158 -2.4500427  5.271103  7.5531464
1493846016178 -2.88237  5.056137  8.081848
1493846016198 -2.7486115  4.9792175 9.014252
1493846016217 -2.1634064  5.1356354 8.4344635
1493846016237 -1.599472 5.21817 7.649933
1493846016256 -1.9784393  5.179184  6.7814026
1493846016277 -2.600174 5.216095  7.4310455
1493846016296 -1.9073486  5.0720215 7.631729
1493846016315 -1.6611023  4.6255493 7.650543
1493846016335 -1.9174652  4.591736  7.6360626
1493846016355 -2.9897003  5.202835  9.812088
1493846016375 -1.6679382  5.115906  9.100555
1493846016395 -1.5930023  4.534073  6.855362
1493846016414 -1.1604614  4.267929  6.7131805
1493846016434 -0.59239197 4.1527405 8.363007
1493846016454 -0.894104 4.405319  9.754211
1493846016474 -0.7774811  4.661026  8.346863
1493846016494 -0.78074646 4.954422  8.162277
1493846016513 -1.2458038  5.280884  9.6017
1493846016533 -1.7170258  4.980835  8.691498
1493846016553 -2.2130432  4.8666534 7.562393
1493846016573 -2.3625488  5.2027283 8.005936
1493846016596 -1.2034302  5.3188477 7.543274
1493846016612 -0.71203613 5.25737 7.4972076
1493846016632 -0.38308716 5.1071014 8.176117
1493846016652 0.24214172  4.2234955 9.063141
1493846016676 0.068573  2.810318  10.245483
1493846016724 0.098358154 1.8072815 8.6586
1493846016724 -1.3036652  3.4111633 7.5431824
1493846016731 -2.1614075  3.561554  7.97287
1493846016752 -1.5588684  4.269409  8.10704
1493846016771 -2.4990082  3.8075562 9.449173
1493846016791 -4.3630066  2.6815643 8.950195
1493846016810 -15.300735  2.5269623 11.720993
1493846016830 -5.4070587  4.632187  10.841339
1493846016850 1.2404022 3.1616058 12.203278
1493846016870 12.970413 10.666229 -5.7013397
1493846016889 10.399506 8.1371155 2.1407013
1493846016910 10.885727 2.8812103 0.65818787
1493846016929 0.6480255 3.2909393 11.293716
1493846016949 6.5094757 3.6785278 10.965118
1493846016968 6.730896  2.4566498 10.093216
1493846016988 3.56279 -0.36288452 7.1058044
1493846017008 1.9874725 -2.4740448  3.1783752
1493846017028 -3.0941925  -4.705078 3.486786
1493846017048 1.9404907 -5.249695 2.7872467
1493846017068 4.3728485 -4.7534485  1.314331
1493846017087 2.8682709 -3.9548492  4.27359
1493846017107 0.95843506  -2.7763824  8.470367
1493846017127 2.6329803 -5.2784576  10.048889
1493846017167 1.5709229 -4.845413 13.084793
1493846017186 3.5093079 -3.9842377  9.356232
1493846017207 6.126297  -4.7718964  0.23175049
1493846017226 -1.2047272  -10.023315  -0.5053406
1493846017246 1.4531708 -14.677948  -1.998703
1493846017265 3.5772247 -18.989075  0.079574585
1493846017285 11.274109 -19.237793  6.9793396
1493846017305 19.461044 -17.037994  15.6839905
1493846017325 19.461044 -14.236069  19.277008
1493846017345 19.461044 -10.942215  18.98639
1493846017364 19.461044 -6.905731 17.86644
1493846017384 19.461044 -6.6000214  17.620758
1493846017404 18.70581  -5.8491974  10.387772
1493846017424 15.556595 -4.99881  7.1737213
1493846017444 14.259369 -2.8183594  4.480179
1493846017463 16.010208 -0.22409058 2.6748047
1493846017484 17.702576 2.3918457 -0.7346039
1493846017503 15.341736 -0.86439514 -1.4061279
1493846017523 15.031189 -7.737671 1.3744507
1493846017543 10.798401 -8.030609 1.4485168
1493846017563 8.42334 -8.042664 3.9568176
1493846017582 9.381073  -6.3072205  6.9918823
1493846017603 10.918701 -2.7886658  8.51796
1493846017622 6.288376  -0.5389099  7.697937
1493846017643 -6.5689087  -6.5829773  3.927063
1493846017661 -2.8137817  -7.7951813  3.1859589
1493846017681 0.8265991 -5.6877594  -3.4624481
1493846017701 2.3922882 -4.063507 -6.612503
1493846017721 1.71344 -2.2766113  -6.5092316
1493846017740 3.4227753 -5.2844086  -0.093688965
1493846017760 10.544144 -7.9702606  3.5598602
1493846017780 14.474777 -6.6445923  0.69511414
1493846017800 12.660843 -7.06546  -1.8908691
1493846017820 10.3120575  -7.25737  -2.5758667
1493846017839 12.566391 -7.494385 -4.1211243
1493846017859 9.560562  -12.188629  -1.8918152
1493846017879 5.8943024 -14.220444  -1.6260376
1493846017899 7.7732544 -10.073349  -2.841858
1493846017919 6.1280365 -7.1923065  -0.92974854
1493846017938 4.868347  -6.8209534  0.5366974
1493846017958 4.520279  -6.6173553  -1.2835236
1493846017978 5.1274567 -6.476837 0.015167236
1493846017998 4.2017365 -8.0186615  0.41433716
1493846018018 6.2942963 -6.481949 -1.0473633
1493846018037 7.1169586 -8.387436 -3.6181335
1493846018057 6.3831024 -9.708878 -2.6894073
1493846018077 6.8219604 -7.2155304  -1.9742126
1493846018097 6.1453705 -6.55307  1.8111725
1493846018116 7.7764587 -4.875412 -1.4466553
1493846018136 7.861389  -3.689621 -4.3898315
1493846018156 2.980362  -7.5041504  -3.2129822
1493846018176 -0.6917877  -18.411896  -7.7916565
1493846018196 7.964905  0.48695374  -4.4358826
1493846018215 5.939209  -6.1082764  -0.48158264
1493846018235 8.632919  -7.6142273  -2.2764282
1493846018255 1.390564  -3.3361053  -5.101715
1493846018275 2.438736  -3.996521 0.062194824
1493846018314 -1.8374634  -6.216797 -15.784012
1493846018334 5.0610504 -13.416199  -1.009903
1493846018354 5.102768  -10.3975525 -2.16156
1493846018374 2.3674774 -5.7942657  -1.850357
1493846018394 -0.3210144  -5.77359  -1.7928467
1493846018413 -4.134186 -11.232254  -0.74282837
1493846018433 -5.686081 -11.821899  0.7145996
1493846018453 -5.705261 -13.051956  0.3488922
1493846018473 -6.6407166  -19.081467  1.0947113
1493846018493 0.9182892 -18.183777  0.70199585
1493846018512 12.275589 -11.469482  0.6520691
1493846018532 2.7149963 -6.958679 3.65979
1493846018552 -0.8130188  -11.414856  0.9030609
1493846018572 1.9370117 -13.309372  0.5562744
1493846018592 2.3373718 -12.337769  -0.67352295
1493846018611 3.5964813 -7.7973022  -1.4661102
1493846018631 0.37495422  -8.004761 5.223984
1493846018651 -3.0095367  -10.614838  2.8654327
1493846018671 -1.273468 -11.208862  -0.6652527
1493846018690 1.2091675 -3.0329132  -1.0094604
1493846018710 2.5008545 5.470215  -1.6189728
1493846018730 -1.9648438  -4.656372 1.0381927
1493846018750 -3.1052856  -10.827087  0.5149536
1493846018770 1.0484467 -16.168198  2.5618591
1493846018789 4.800293  -16.125793  4.1242523
1493846018809 2.1882324 -15.265289  -1.6914673
1493846018829 -2.4401855  -19.474823  -3.1190033
1493846018849 -4.213913 -16.68097 -4.203964
1493846018869 -2.8342743  -11.07399 -4.3168488
1493846018888 -1.9611816  -8.983475 -2.8030396
1493846018908 -4.0557404  -11.211395  -3.3176575
1493846018928 -5.452957 -11.548569  -3.6916351
1493846018948 -4.135666 -8.564072 -1.2200623
1493846018968 -0.36125183 -4.058731 0.11407471
1493846018987 1.6624756 -5.0748444  0.2628479
1493846019007 0.651947  -9.533585 -0.19203186
1493846019027 -0.16874695 -11.499527  -1.2316589
1493846019047 -0.46531677 -11.231277  -0.2576599
1493846019067 -0.034423828  -9.659225 0.3520813
1493846019086 0.3080902 -8.135254 -0.9920044
1493846019106 0.027297974 -7.5646057  -2.6758118
1493846019126 -0.6178131  -7.5888367  -2.8925934
1493846019146 -1.4026642  -7.5585327  -2.5258636
1493846019166 -1.5138702  -7.257248 -2.3111725
1493846019185 -1.5385895  -7.463455 -3.0560913
1493846019205 -1.1157684  -7.986206 -3.4991455
1493846019225 -0.03451538 -7.9963837  -4.06456
1493846019245 0.080215454 -7.7500763  -4.3278503
1493846019265 -1.009201 -7.6717377  -5.36145
1493846019285 -1.9404755  -8.823288 -6.8455505
1493846019305 -3.6327972  -10.27478 -8.230743
1493846019324 -2.2246704  -10.724731  -7.0618896
1493846019344 2.2065125 -11.474716  -5.965683
1493846019364 5.128937  -11.737122  -7.620331
1493846019384 4.882416  -9.526718 -5.6913605
1493846019404 3.0321808 -8.34404  -0.58724976
1493846019423 -0.4932251  -10.107544  0.53518677
1493846019463 -3.461609 -10.9027405 -2.669632
1493846019483 -8.130753 -8.595596 -2.7245789
1493846019503 -9.482285 -4.430435 4.780655
1493846019522 -8.46814  -5.368637 4.2595673
1493846019542 -3.7041473  -9.695801 5.080353
1493846019562 -2.0091553  -12.565887  3.9978027
1493846019582 -0.24749756 -12.967606  2.1643372
1493846019601 1.837738  -11.809113  1.6863098
1493846019621 2.5500336 -10.62648 1.486145
1493846019641 1.9750366 -9.97319  0.969574
1493846019661 1.4459381 -9.439026 1.3721313
1493846019681 -0.20437622 -10.342941  0.85028076
1493846019700 -0.958725 -10.033554  -0.11578369
1493846019720 -1.35643  -9.081741 0.18487549
1493846019740 -1.72258  -8.192932 0.6928253
1493846019760 -2.321106 -8.202423 -0.029464722
1493846019779 -2.047409 -8.720139 0.37858582
1493846019799 -0.7591553  -9.600113 1.5701752
1493846019819 1.3076019 -10.533096  1.4928741
1493846019839 1.335144  -10.794525  3.0173187
1493846019859 0.28034973  -9.969589 0.36499023
1493846019878 -0.5495148  -10.107147  -2.9036407
1493846019898 -2.297409 -11.267227  -1.7233582
1493846019918 -3.0553741  -12.078674  1.2975006
1493846019938 -1.3356476  -12.475067  0.21838379
1493846019958 1.7020569 -12.174759  -2.5287628
1493846019977 3.0335083 -12.275818  -3.9757385
1493846019997 3.5627747 -13.059357  -3.8390656
1493846020017 2.8830109 -14.18721 -2.0604248
1493846020037 -0.862854 -15.045013  -4.093033
1493846020057 -4.442169 -14.315857  -1.5022125
1493846020076 -5.493927 -12.820679  5.7267914
1493846020096 -6.1664124  -12.503738  6.420105
1493846020116 -6.1058197  -14.019012  3.7677917
1493846020136 -4.6850586  -15.403198  0.51145935
1493846020156 -2.1563568  -14.137375  -1.256546
1493846020175 1.1909637 -11.100037  -0.02293396
1493846020195 3.4542694 -9.08342  1.8656158
1493846020215 1.7692871 -8.0659485  1.641037
1493846020235 -1.24086  -6.982437 0.7481537
1493846020255 -2.9622498  -5.6518097  1.7218475
1493846020274 -3.9807587  -4.7172394  2.1025238
1493846020295 -4.3467407  -4.4704437  2.8726807
1493846020315 -4.0186462  -3.616043 3.962738
1493846020334 -2.9829102  -2.1977081  4.6592712
1493846020355 -2.425476 -1.442749 3.7752228
1493846020374 -1.8142395  -1.5615234  2.29628
1493846020394 -0.38026428 -3.7531128  -0.27424622
1493846020414 1.1841431 -9.245956 -11.491806
1493846020433 2.1646729 -18.020004  -18.777283
1493846020453 6.1992188 -19.474823  -12.757034
1493846020473 3.3363037 -17.65091 -8.054825
1493846020493 0.27671814  -9.427017 -5.462677
1493846020513 -3.0356903  -10.061859  0.7367096
1493846020533 -7.9085693  -13.931854  0.2401123
1493846020552 -5.365738 -11.218369  2.118927
1493846020579 -4.6841583  -5.601166 2.7035217
1493846020598 -5.529587 -1.4924469  5.5
1493846020619 -4.841797 -5.1517334  9.725082
1493846020638 -1.5287476  -10.9934845 6.904068
1493846020677 1.3239441 -13.462967  3.920044
1493846020697 2.946457  -14.039246  2.5565338
1493846020718 3.3286743 -12.111176  1.2194214
1493846020736 2.380539  -9.603928 -0.44519043
1493846020756 -0.096328735  -7.915512 0.06619263
1493846020778 -2.3923035  -7.647415 1.8344421
1493846020796 -3.4584656  -8.375549 1.099884
1493846020816 -3.1377716  -9.505905 -0.26179504
1493846020835 -2.0848541  -9.4917145  1.3710785
1493846020855 0.13713074  -8.31102  1.0397644
1493846020875 0.6371765 -8.342224 -0.9998169
1493846020895 -0.19395447 -9.53511  -1.1552582
1493846020914 -1.153122 -10.586716  0.8104248
1493846020934 -0.8360748  -10.332092  0.41523743
1493846020952 0.60266113  -10.744751  -1.506134
1493846020972 1.9473114 -12.070038  -1.5130768
1493846020995 1.3856354 -12.6010895 -1.6627502
1493846021009 0.1018219 -11.976669  -3.1254272
1493846021033 0.6178131 -11.823456  -2.4543304
1493846021053 1.8297882 -12.86145 -2.9384003
1493846021073 3.356079  -15.31105 -4.1318207
1493846021092 2.2236938 -16.533066  -3.0802612
1493846021109 -2.5458374  -15.138855  -1.3042908
1493846021133 -4.931595 -13.485443  3.3286438
1493846021152 -5.6840515  -12.911224  9.388214
1493846021172 -6.8651123  -13.482178  6.3013763
1493846021192 -6.787918 -15.66774 0.44677734
1493846021209 -5.025894 -15.383942  -0.5718384
1493846021227 -0.96125793 -12.46463 1.696991
1493846021251 3.3024902 -9.698456 3.4937134
1493846021270 3.5734406 -7.9836273  2.1518402
1493846021291 0.39463806  -7.1024017  0.09031677
1493846021310 -1.8755035  -6.0450134  1.2637329
1493846021330 -3.2088623  -4.399048 2.9939575
1493846021350 -4.41304  -2.9039612  3.7400818
1493846021369 -4.648056 -1.3833466  4.543869
1493846021389 -3.6576233  0.2720337 4.6757507
1493846021409 -2.9783783  0.6987457 4.127014
1493846021429 -2.2637024  -1.3678589  2.7529755
1493846021448 -1.5499115  -6.217285 -4.0225983
1493846021470 -1.038559 -16.087387  -14.76062
1493846021488 3.8331451 -19.474823  -19.26239
1493846021508 6.259033  -19.474823  -8.845459
1493846021529 2.5898895 -13.035461  -8.405457
1493846021548 2.0927734 -6.725342 -2.0845947
1493846021567 -0.7740021  -8.904373 3.525879
1493846021589 -4.0120087  -13.05983 5.1924896
1493846021604 -6.921036 -12.802383  -7.621887
1493846021627 -8.450577 -7.243637 2.9790497
1493846021644 -8.716766 -3.74852  11.952652
1493846021668 -6.17688  -5.760971 10.0308075
1493846021686 -3.071228 -10.408936  3.437378
1493846021706 1.5600891 -12.280685  3.024765
1493846021726 7.008316  -13.760529  2.4682922
1493846021745 6.588852  -14.763245  -0.11984253
1493846021765 4.002426  -10.370056  -2.607193
1493846021785 -0.33885193 -7.755722 0.9287567
1493846021821 -3.1317902  -6.85614  2.7887878
1493846021844 -4.9252625  -7.404129 0.3807373
1493846021864 -5.0055695  -8.613968 -0.34909058
1493846021884 -2.136383 -9.029083 0.079940796
1493846021904 -0.43371582 -8.878738 1.134552
1493846021923 0.31681824  -8.555298 0.94506836
1493846021943 1.2181091 -9.325668 0.85435486
1493846021963 1.2968445 -10.271332  2.0164032
1493846021983 1.5119019 -10.333725  -1.4298706
1493846022003 0.7096863 -11.171295  -1.7031555
1493846022022 -1.5690765  -12.66394 -1.1585236
1493846022042 -2.6534119  -13.020859  -2.4347534
1493846022062 0.6035156 -12.817459  -1.910141
1493846022082 3.156479  -13.572998  -1.9007874
1493846022102 4.510391  -15.184402  -3.6681976
1493846022121 4.1581116 -15.190201  -5.2885437
1493846022141 -0.99572754 -14.467209  -5.5880585
1493846022161 -4.327667 -13.578049  0.24223328
1493846022181 -3.804016 -12.762085  7.3345184
1493846022201 -4.372055 -13.609222  6.9158783
1493846022220 -5.2776337  -14.895813  3.4904785
1493846022246 -5.544174 -15.450668  -0.084350586
1493846022256 -3.104126 -13.535858  -1.1315918
1493846022275 1.3845062 -10.527115  1.9475555
1493846022295 3.800827  -8.4149475  2.634735
1493846022315 2.3286285 -7.1291504  0.13078308
1493846022339 0.027114868 -6.097168 -0.11332703
1493846022358 -1.5618896  -4.9591064  1.650711
1493846022378 -3.0395813  -3.70932  2.7550507
1493846022398 -4.2789764  -3.1855316  3.931427
1493846022418 -4.292816 -2.7570343  4.7998962
1493846022438 -3.9490204  -1.7383575  4.868927
1493846022457 -3.7424316  -1.2146454  4.5283813
1493846022472 -3.3405304  -2.4295502  3.285324
1493846022497 -2.7999573  -6.565506 -2.4445496
1493846022517 -2.7350006  -15.403076  -14.476166
1493846022536 3.2925568 -19.442352  -19.722397
1493846022563 6.650635  -19.474823  -11.482101
1493846022577 3.8901825 -12.8871765 -6.025345
1493846022597 0.93626404  -4.536743 -1.2089844
1493846022618 -4.9353943  -6.3807526  1.405716
1493846022636 -5.0985107  -11.823425  5.0082245
1493846022656 -2.6022186  -13.151627  2.341095
1493846022676 -3.95932  -10.255325  -3.96669
1493846022695 -6.8345184  -6.5610657  7.5507965
1493846022717 -7.244232 -5.4598694  13.442703
1493846022735 -5.042389 -8.293091 5.046692
1493846022755 -1.8179932  -10.49054 1.0926514
1493846022774 3.4310913 -11.945099  1.3965302
1493846022794 6.502014  -13.345322  1.527771
1493846022814 4.840927  -12.780762  0.16668701
1493846022834 1.6652069 -9.131119 -0.3696289
1493846022853 -2.647461 -8.130844 1.6095734
1493846022873 -4.7004547  -7.6223145  0.8433838
1493846022893 -5.9026794  -7.844452 -0.82632446
1493846022913 -3.6469727  -7.6840363  -0.3139038
1493846022952 0.03538513  -7.484833 1.5677795
1493846022972 1.2667542 -8.439377 1.4043732
1493846022992 1.9992981 -9.805313 2.3325195
1493846023012 1.7708435 -11.051285  2.6399078
1493846023032 1.3921356 -10.863144  -0.73454285
1493846023051 0.12626648  -10.918137  -3.9369965
1493846023071 -2.588974 -12.741821  -3.1513367
1493846023089 -2.1642914  -13.052994  -1.5997009
1493846023111 0.7650757 -13.172684  -2.405838
1493846023131 3.0587006 -13.622421  -4.8374634
1493846023150 4.764862  -14.300339  -5.446945
1493846023170 5.164963  -14.709106  -3.6547394
1493846023190 0.86387634  -15.097549  -4.636551
1493846023210 -3.1218872  -14.781998  0.14302063
1493846023229 -4.161621 -13.810333  6.0375977
1493846023249 -5.7991486  -14.78215 8.568329
1493846023268 -7.8185577  -15.148804  6.1184998
1493846023289 -8.943146 -15.408173  0.13511658
1493846023309 -5.853256 -13.310822  0.050048828
1493846023329 -1.6438293  -10.006088  2.06987
1493846023350 1.4994965 -7.6788635  2.8461304
1493846023368 1.8448334 -6.289612 2.1391602
1493846023388 0.045639038 -5.1785736  0.76986694
1493846023409 -1.9965668  -4.7053223  1.1806488
1493846023425 -3.3455658  -4.828003 2.963684
1493846023447 -3.929718 -4.6791687  4.2922363
1493846023469 -3.9442902  -3.7165222  4.661087
1493846023487 -3.1360016  -1.927475 3.817749
1493846023507 -2.1619263  -0.9026947  2.5368805
1493846023528 -1.1809387  -2.3096466  -0.18617249
1493846023546 -0.8506775  -6.882614 -10.354462
1493846023566 -0.42939758 -15.185974  -18.708603
1493846023586 4.795624  -19.474823  -13.07843
1493846023606 5.9042206 -19.16777 -8.191803
1493846023625 2.8710632 -12.948425  -6.26622
1493846023643 2.6574097 -4.136795 -2.5013733
1493846023665 1.8353577 0.31802368  8.14566
1493846023685 -6.5749817  -4.7743073  13.832886
1493846023704 -11.828705  -15.423172  -6.6461487
1493846023724 -10.192642  -19.306625  -8.691483
1493846023744 -5.316635 -12.021027  7.2956696
1493846023764 -3.768921 -5.455719 12.53595
1493846023783 -1.6256866  -4.326706 5.1545105
1493846023803 2.9601746 -8.282913 -1.7197723
1493846023823 9.100311  -14.0876465 1.7401581
1493846023843 8.244034  -17.285477  4.6499634
1493846023863 1.8662872 -13.748886  3.512558
1493846023883 -3.6573334  -9.149811 1.4082947
1493846023902 -8.114868 -5.9627075  1.9577332
1493846023922 -10.568329  -6.5565643  0.6295471
1493846023942 -7.1129913  -8.359161 -0.3755951
1493846023962 -1.8818817  -8.741165 1.4686584
1493846023981 1.0231323 -8.791962 2.2891693
1493846024001 2.929718  -8.2087555  0.3017578
1493846024021 2.572052  -10.069778  0.60258484
1493846024041 1.9468689 -9.919174 0.2936554
1493846024080 0.6919708 -10.073105  -3.2187958
1493846024100 -0.6088257  -12.351074  -3.2330933
1493846024120 -0.15203857 -13.776901  -1.1801453
1493846024140 -0.0037078857 -13.016357  -2.2643585
1493846024159 0.79296875  -12.742554  -4.696106
1493846024179 2.984665  -12.009399  -3.3873596
1493846024199 3.7620697 -11.506882  -4.5874634
1493846024219 4.858322  -12.874084  -4.834717
1493846024239 1.2317352 -15.418854  -2.1197815
1493846024260 -3.7934113  -15.350647  1.7965546
1493846024278 -6.6261597  -13.596161  5.385956
1493846024298 -6.833847 -13.154221  6.6074066
1493846024320 -7.4001923  -15.118668  4.936157
1493846024338 -7.125992 -17.140656  2.78685
1493846024357 -5.1212616  -15.2543335 0.042388916
1493846024379 -0.44363403 -10.694794  0.80874634
1493846024397 2.9895782 -8.445023 1.0394745
1493846024417 2.669693  -7.9653015  0.4814911
1493846024438 0.16918945  -7.6628876  0.37709045
1493846024456 -2.6188965  -6.892624 2.241623
1493846024476 -4.674698 -5.1796417  3.0947418
1493846024496 -5.0842743  -3.557953 3.92865
1493846024516 -4.2371826  -2.4484863  5.067169
1493846024535 -2.7446442  -0.7218933  4.6367035
1493846024555 -1.6895905  0.5623169 3.8814392
1493846024575 -0.96139526 -1.0964661  1.9166718
1493846024595 -0.42767334 -6.495865 -9.791229
1493846024615 -1.7997131  -14.892975  -19.722397
1493846024634 2.177414  -19.474823  -13.62619
1493846024654 5.3006744 -18.243866  -7.361923
1493846024674 2.5565643 -11.4101715 -6.1804504
1493846024694 0.3309784 -6.4504547  0.0552063
1493846024714 -2.1322327  -9.016525 7.3935394
1493846024733 -1.7927856  -12.144409  2.1981964
1493846024753 -4.2377777  -11.816101  -7.1090393
1493846024773 -6.79924  -6.9651947  4.209671
1493846024790 -8.747314 -4.351059 12.283508
1493846024813 -7.7165527  -6.434387 7.0715637
1493846024832 -5.143799 -9.719406 3.8272858
1493846024852 -0.5885773  -11.598938  4.5686493
1493846024869 5.245331  -13.5811615 2.2716217
1493846024888 8.315155  -15.443161  1.2484436
1493846024909 5.7715454 -11.384308  -2.145874
1493846024930 0.7551727 -8.402496 -0.22958374
1493846024949 -3.2894135  -7.5422974  2.2777252
1493846024969 -4.9266663  -7.356262 0.67207336
1493846024989 -5.7698517  -8.02301  -0.19363403
1493846025009 -3.6578064  -7.499405 1.3947601
1493846025029 -0.4445343  -7.256317 1.5455475
1493846025048 0.83569336  -8.528946 1.5674133
1493846025070 0.4474945 -9.555298 1.7811279
1493846025088 0.5450134 -10.329086  -1.1454926
1493846025107 -0.34991455 -12.659271  -0.37521362
1493846025125 -2.1107178  -13.020172  -1.7850189
1493846025165 -2.0526886  -13.063568  -4.2269135
1493846025187 2.3136597 -12.975754  -2.972229
1493846025207 5.609543  -12.033722  -2.5375824
1493846025228 5.3588257 -11.839111  -5.329483
1493846025246 5.3887787 -13.500259  -6.022873
1493846025265 2.6214447 -16.00473 -3.6773376
1493846025288 -1.359909 -15.239731  0.592453
1493846025306 -5.346512 -13.459122  5.1278687
1493846025326 -7.285202 -13.526413  7.647003
1493846025345 -9.170288 -14.444977  5.810257
1493846025365 -8.9086 -18.039047  2.710907
1493846025383 -5.8643646  -16.966736  -0.6139374
1493846025406 -0.5530243  -12.592819  0.60432434
1493846025426 4.0657654 -9.762344 0.92674255
1493846025446 3.8271942 -9.356934 -0.7064209
1493846025465 0.58073425  -9.014755 -1.7623444
1493846025485 -1.3874664  -7.2677 0.32409668
1493846025505 -3.1822662  -4.691925 2.7409973
1493846025525 -4.715561 -1.9372864  4.7756042
1493846025545 -5.2047577  -0.29930115 6.3377686
1493846025564 -4.3881683  0.42384338  6.2070007
1493846025584 -3.4180145  0.3839569 5.361908
1493846025604 -2.4537506  -0.6998596  3.8645782
1493846025621 -1.4568481  -3.5796967  -0.80937195
1493846025641 -1.1954956  -10.926895  -12.036743
1493846025663 -0.5466461  -18.134415  -19.722397
1493846025683 2.4687805 -19.474823  -14.17421
1493846025703 3.305725  -15.493546  -7.4716034
1493846025723 0.63713074  -6.674286 -5.8722534
1493846025742 -1.9889679  -2.4817657  0.36576843
1493846025762 -4.615982 -7.25708  7.113495
1493846025782 -3.4701538  -13.643173  2.0835724
1493846025802 -2.0608978  -14.071808  -2.0243988
1493846025822 -4.159149 -10.289276  6.423218
1493846025841 -5.6172485  -7.79982  12.187988
1493846025861 -3.7671356  -8.081543 7.3486023
1493846025881 -1.1133118  -9.251099 2.6973724
1493846025901 1.5317383 -11.569214  2.4435577
1493846025921 3.781784  -13.86084 1.313034
1493846025940 3.171051  -12.421753  -0.736557
1493846025968 0.53201294  -8.9895935  0.03767395
1493846025976 -2.3103333  -7.520508 1.2591858
1493846025996 -3.925949 -7.8631744  0.051376343
1493846026016 -3.745987 -8.417053 0.10359192
1493846026035 -2.0018463  -8.301544 0.5407257
1493846026061 0.09553528  -7.8655396  0.76538086
1493846026075 0.77552795  -8.161545 0.8480835
1493846026094 0.55592346  -9.847351 1.0044861
1493846026113 0.5214081 -11.033066  3.2491608
1493846026132 1.2389374 -10.376373  0.3927002
1493846026156 1.5027313 -10.115295  -2.0457458
1493846026176 -0.3469391  -10.924225  -2.694809
1493846026192 -2.0838013  -11.542511  -1.320282
1493846026216 -0.09794617 -11.950256  -0.5679779
1493846026234 3.2129822 -12.394943  -0.59602356
1493846026257 4.034256  -12.455307  -2.995636
1493846026296 2.3861694 -12.946152  -7.5775146
1493846026296 3.226059  -14.251114  -5.8746033
1493846026335 2.5962677 -15.636688  -3.0789642
1493846026355 -0.6694336  -14.508835  -2.1663666
1493846026375 -2.3637085  -13.280212  4.860016
1493846026395 -2.982605 -12.918884  7.082901
1493846026415 -4.9621124  -14.5633545 3.1261444
1493846026435 -6.3896027  -17.619568  2.4453735
1493846026454 -7.312805 -17.694214  2.6950073
1493846026474 -3.5624542  -12.302261  0.46528625
1493846026494 0.47053528  -9.035858 0.66056824
1493846026514 3.582901  -7.3706055  2.3624573
1493846026534 2.7132568 -6.894989 3.2980042
1493846026553 -0.75064087 -6.3302 2.1931152
1493846026573 -3.3888855  -5.10495  2.617981
1493846026593 -3.778061 -3.4675446  3.8571625
1493846026613 -3.603012 -2.6197205  4.64563
1493846026632 -3.3345642  -0.90060425 5.1644135
1493846026652 -3.729187 0.3164215 4.9220276
1493846026668 -2.9283142  -0.9104309  3.014618
1493846026688 -1.2717743  -5.688965 -4.8788605
1493846026711 -2.2761536  -13.28125 -15.640289
1493846026729 -1.2470245  -19.474823  -18.14946
1493846026748 4.30365 -19.283142  -10.772568
1493846026770 2.8052216 -15.00914 -5.5841827
1493846026790 0.41983032  -7.014847 -4.0043335
1493846026810 -1.8516693  -5.0742645  -1.0969696
1493846026830 -4.262558 -9.941589 1.9311218
1493846026849 -3.7545166  -13.893127  3.2959595
1493846026869 -3.733307 -12.207352  -0.77516174
1493846026889 -5.2604218  -7.753723 3.2506104
1493846026909 -6.3642273  -5.366516 9.777206
1493846026930 -4.879532 -6.316559 8.468124
1493846026952 -2.2780457  -8.706284 4.2830505
1493846026970 0.6880951 -11.391205  2.7629852
1493846026989 4.4444427 -13.86232 2.5599976
1493846027009 5.244705  -14.313156  1.0311127
1493846027029 3.387085  -10.916641  -0.9458618
1493846027050 -0.14672852 -8.222519 -0.3288269
1493846027068 -2.9584198  -7.695282 1.3313904
1493846027088 -4.6209106  -8.206879 0.6694641
1493846027110 -4.73053  -8.589233 0.1511383
1493846027128 -2.145462 -8.067734 0.88783264
1493846027148 0.57836914  -7.977707 1.3585663
1493846027165 2.1891174 -9.134811 1.3313751
1493846027189 1.9022369 -10.065796  1.3358307
1493846027207 1.2249908 -9.807648 0.0011291504
1493846027227 0.07373047  -10.012634  -2.0833435
1493846027248 -1.1978912  -11.814026  -1.6282654
1493846027266 -2.2305908  -12.344101  -0.9116516
1493846027286 -1.9725494  -12.737778  -3.0766754
1493846027306 1.0254059 -12.996033  -2.258789
1493846027325 3.2648926 -12.42334 -1.3032379
1493846027345 2.8785553 -13.034515  -4.120865
1493846027365 5.0231323 -13.907593  -3.6728058
1493846027385 2.765503  -15.095062  -4.1092377
1493846027405 -2.2436676  -14.5673065 -3.4188538
1493846027424 -3.8731537  -12.831528  3.9217224
1493846027464 -4.383011 -12.854294  9.053925
1493846027484 -7.112915 -14.426163  5.6393433
1493846027504 -7.604355 -16.639297  2.3072815
1493846027523 -6.73999  -15.483948  -0.22595215
1493846027543 -3.3401337  -11.708069  -0.12843323
1493846027563 1.7226715 -8.300018 1.4309998
1493846027583 5.0111847 -6.930313 2.251648
1493846027602 3.0102692 -7.180847 1.4123993
1493846027622 -0.4519806  -6.5548553  0.57818604
1493846027640 -2.2881317  -5.4703674  2.151703
1493846027662 -3.2940216  -4.44339  3.0319061
1493846027682 -3.9646149  -4.069458 4.309204
1493846027702 -3.9673615  -2.947174 4.9628754
1493846027721 -3.0787964  -1.248703 4.4614105
1493846027741 -2.5123444  -1.1741943  3.6330109
1493846027761 -1.7507782  -3.6509857  0.8973694
1493846027781 -1.869278 -9.842468 -8.514587
1493846027800 -1.7661438  -17.394806  -19.722397
1493846027820 1.9136505 -19.474823  -15.217361
1493846027840 3.5568542 -16.869232  -6.3723297
1493846027860 1.1331329 -9.461227 -5.4099426
1493846027880 -0.8694458  -5.1811523  -2.3984528
1493846027899 -4.106552 -8.644897 -0.6609192
1493846027919 -4.795334 -13.821121  1.1451721
1493846027939 -2.2705078  -12.426636  2.1299744
1493846027959 -2.5694122  -7.2858734  2.7692108
1493846027978 -5.1591797  -4.6292267  7.7802887
1493846028000 -5.4612885  -6.5850067  7.9656982
1493846028018 -3.4394379  -9.999008 5.2622986
1493846028038 -0.913147 -11.682648  3.1980438
1493846028059 2.0167542 -12.572815  2.1385193
1493846028078 4.4514923 -12.77478 0.64682007
1493846028097 4.4999847 -10.726303  0.13331604
1493846028119 1.6093292 -8.6521 0.9438019
1493846028137 -2.0144806  -8.069443 1.6052551
1493846028157 -4.1095276  -7.921509 0.61083984
1493846028178 -4.99823  -8.291794 -0.17854309
1493846028196 -3.604248 -8.280838 0.7944336
1493846028216 -1.2166443  -7.9521027  1.6222839
1493846028233 0.5083008 -8.742371 1.536911
1493846028256 1.2244415 -10.788803  1.713089
1493846028275 1.1397552 -11.726044  1.0384216
1493846028293 0.8827057 -11.132843  -1.404419
1493846028315 0.92181396  -11.446289  -2.4053955
1493846028335 -0.06951904 -12.019058  -0.6331024
1493846028355 -1.8898926  -12.062683  -1.7434387
1493846028374 -0.41633606 -12.337296  -2.3827972
1493846028394 1.960846  -12.6822815 -0.83303833
1493846028414 2.2165985 -13.298843  -2.8625793
1493846028434 4.143692  -13.792343  -4.887787
1493846028453 4.602661  -13.825562  -1.9627075
1493846028471 -0.79725647 -13.984314  -5.4110107
1493846028493 -5.2157135  -13.632217  -0.94081116
1493846028513 -6.1803284  -12.738663  8.172394
1493846028533 -8.103012 -12.994751  9.386749
1493846028552 -9.358505 -14.654221  4.0188293
1493846028592 -8.278488 -15.266373  -1.0376892
1493846028612 -4.400238 -12.990677  -1.1014404
1493846028631 0.44729614  -9.448212 1.0915527
1493846028651 4.5453644 -7.537674 1.8236389
1493846028671 3.8659668 -6.983307 1.7831268
1493846028689 0.5779724 -6.4132843  -0.0061950684
1493846028711 -2.3335114  -5.818283 1.9373627
1493846028730 -3.727707 -5.035248 2.7793274
1493846028750 -3.818283 -4.375305 2.8437958
1493846028770 -3.2319183  -3.9338226  3.7017975
1493846028790 -1.7049408  -2.4003143  3.4096832
1493846028810 -1.1065369  -1.2849579  2.819687
1493846028829 -1.199585 -1.8392944  1.5695801
1493846028849 -1.3944855  -5.335602 -2.5578918
1493846028869 -2.094925 -12.242249  -11.615463
1493846028889 0.9548645 -19.474823  -19.239914
1493846028909 6.6335297 -19.474823  -14.825378
1493846028930 3.5343628 -16.512482  -6.6735535
1493846028948 0.61479187  -7.49765  -2.7670746
1493846028968 -1.0465698  -4.328644 2.5574493
1493846028990 -4.5657196  -9.899673 5.222275
1493846029008 -3.9753265  -14.0699005 1.3503113
1493846029027 -4.202652 -12.852539  -6.8768005
1493846029049 -6.3804626  -7.277359 5.075485
1493846029067 -6.6197968  -4.397995 13.550217
1493846029087 -6.086014 -6.000717 5.642807
1493846029108 -3.4463959  -8.988052 2.2076416
1493846029126 0.37330627  -11.209976  3.1709137
1493846029146 4.224518  -13.825958  2.5852203
1493846029166 6.031891  -14.840378  1.6922302
1493846029186 4.602234  -11.489166  -0.22309875
1493846029205 0.91204834  -7.930786 0.48194885
1493846029225 -2.806137 -7.1912384  2.3943176
1493846029245 -5.5566406  -7.7365723  0.17041016
1493846029265 -6.539963 -8.07608  -0.280838
1493846029285 -4.073166 -7.7195587  1.5440369
1493846029304 -0.7589569  -8.178314 1.4415436
1493846029324 1.2344513 -9.785751 1.548584
1493846029344 1.7590637 -10.548126  1.2890778
1493846029361 1.637558  -10.082016  -0.8773804
1493846029383 1.5257721 -10.647705  -2.0151825
1493846029403 1.1643524 -12.209412  -0.64152527
1493846029423 -1.2354584  -12.664307  -0.57780457
1493846029443 -2.959015 -12.419785  -3.813385
1493846029463 -0.49743652 -12.413193  -2.1882477
1493846029482 1.942337  -12.561325  -1.7251587
1493846029502 3.1037903 -14.016129  -4.1601257
1493846029522 5.263077  -14.817566  -2.7182007
1493846029542 1.8533783 -15.191238  -4.493637
1493846029562 -3.5677795  -14.5325165 -2.932022
1493846029581 -5.3055267  -13.34523 2.5808563
1493846029601 -5.000305 -14.234482  8.677887
1493846029621 -6.341568 -14.258209  9.1992035
1493846029641 -8.00856  -14.762726  4.104477
1493846029680 -6.4104614  -14.478653  -3.5006256
1493846029700 -2.2741547  -11.343964  -0.3551178
1493846029720 3.7892303 -7.9943085  2.2982635
1493846029740 5.0110016 -7.0276337  2.40773
1493846029759 1.4759521 -6.505249 -1.1637573
1493846029779 -0.7635803  -5.087616 0.6372528
1493846029799 -1.8930969  -3.490326 2.179123
1493846029819 -3.7631836  -3.3088074  2.8621368
1493846029844 -3.9647827  -3.482895 3.7317047
1493846029854 -2.8254852  -2.7388306  4.3422394
1493846029874 -2.390854 -1.4194336  4.1218567
1493846029894 -2.1231384  -1.3175812  3.4543762
1493846029916 -1.7841034  -3.7884827  0.8094635
1493846029938 -1.3367767  -9.903183 -7.9791718
1493846029956 0.0043945313  -18.32013 -19.722397
1493846029976 5.205002  -19.474823  -16.239868
1493846029995 4.56485 -17.573807  -7.008362
1493846030013 0.7650604 -10.852768  -4.6073
1493846030033 -2.7600708  -6.981964 -0.94036865
1493846030052 -4.306015 -10.479584  0.44197083
1493846030075 -1.1914978  -12.017929  2.5864563
1493846030095 -1.3393555  -8.235535 2.5032196
1493846030114 -5.871933 -4.2764435  3.1792603
1493846030134 -8.843903 -4.4572754  10.351944
1493846030154 -7.2544556  -8.368759 8.590088
1493846030174 -3.6483765  -11.213593  3.2872772
1493846030194 0.549057  -11.817993  2.0134277
1493846030213 4.9375916 -12.455734  1.2054291
1493846030233 6.205536  -12.541931  0.84916687
1493846030252 4.2298737 -10.350769  0.43959045
1493846030274 0.26675415  -8.283157 1.4167175
1493846030291 -3.0230255  -7.9272766  1.4644318
1493846030314 -4.6532288  -8.32016  -0.61550903
1493846030333 -5.021637 -9.274826 -1.5231323
1493846030353 -3.0561676  -9.263763 -0.01499939
1493846030373 -0.35427856 -8.479675 0.8981476
1493846030393 1.3858185 -8.677856 1.4820404
1493846030413 2.0572205 -9.598007 2.649887
1493846030432 1.3930664 -10.24762 1.9459076
1493846030452 0.7396698 -10.576721  -1.0337524
1493846030472 0.7574463 -11.569977  -2.0930328
1493846030492 -0.4705963  -12.447769  -0.96795654
1493846030511 -1.8903503  -12.355743  -1.9377289
1493846030531 -0.5199585  -12.41774 -1.9473877
1493846030551 1.699173  -12.835114  -1.3634338
1493846030571 2.6841278 -14.315033  -3.8322449
1493846030591 4.7901154 -14.019119  -2.2695923
1493846030610 2.416275  -13.956223  -2.7527008
1493846030630 -3.8461304  -14.572449  -4.830185
1493846030650 -6.476364 -13.48381 0.99697876
1493846030670 -5.5020905  -11.844574  7.710968
1493846030690 -7.634857 -12.613419  8.087448
1493846030709 -8.749573 -13.877304  4.651535
1493846030729 -7.254608 -14.089859  -1.1132965
1493846030749 -2.761856 -11.683533  -1.2142639
1493846030769 2.3964233 -8.600128 0.49171448
1493846030788 5.940216  -6.9427643  3.2069855
1493846030810 3.0105896 -6.4782715  0.25756836
1493846030848 -0.29006958 -5.2418213  -0.9589844
1493846030869 -2.2027893  -4.500656 1.3768616
1493846030888 -3.1642456  -3.9032593  2.0686188
1493846030907 -3.6061096  -4.0114746  3.4633179
1493846030929 -2.8963623  -3.8647766  3.2449799
1493846030947 -1.381607 -2.6354065  2.7859497
1493846030967 -0.75975037 -2.0909882  2.280716
1493846030988 -0.5101471  -3.6133575  0.9047241
1493846031004 -0.96084595 -8.158524 -4.334839
1493846031026 -0.79507446 -15.116119  -13.924393
1493846031046 3.9989777 -19.474823  -17.891754
1493846031065 6.5705414 -18.816895  -10.679749
1493846031082 2.6837769 -13.997879  -6.232666
1493846031105 0.7419739 -4.99646  0.15692139
1493846031125 -2.4138489  -4.386017 4.512619
1493846031145 -6.4857483  -12.134796  6.4115295
1493846031164 -5.915497 -15.211075  -1.4939423
1493846031184 -6.1183624  -13.453613  -10.295853
1493846031205 -5.069687 -6.3210754  11.427689
1493846031221 -5.062332 -4.028839 14.983963
1493846031241 -5.4817657  -6.5419617  4.8055725
1493846031261 -2.8463745  -9.646561 1.840622
1493846031282 1.7640686 -12.55275 3.5930023
1493846031302 6.1474915 -14.822769  3.0740051
1493846031322 5.8105927 -13.33403 1.0505066
1493846031341 2.077652  -9.244431 -0.50053406
1493846031361 -1.9288483  -7.563736 1.9636688
1493846031381 -4.8597565  -7.724121 2.4052582
1493846031401 -6.1390533  -8.130096 0.66197205
1493846031420 -4.2716217  -8.196381 0.5874634
1493846031440 -0.9646759  -8.261414 0.16433716
1493846031459 1.2355957 -8.759644 0.6333771
1493846031480 1.6703796 -9.454971 2.0422516
1493846031501 0.93452454  -10.243393  2.0415955
1493846031521 0.43551636  -10.870483  0.5352936
1493846031540 1.1234436 -11.196884  -1.9237518
1493846031560 1.8837738 -11.5690155 -2.907898
1493846031580 1.1509857 -11.595139  -1.8822174
1493846031600 0.31469727  -11.631226  -1.3615112
1493846031620 0.36772156  -11.640533  -0.9488678
1493846031639 -0.09591675 -12.109741  -3.3641815
1493846031659 1.3382568 -14.2395935 -5.4016724
1493846031679 3.1716766 -15.842499  -2.2646332
1493846031699 0.17276001  -15.709717  -3.3592072
1493846031719 -4.4149017  -14.373703  -0.78030396
1493846031740 -5.078354 -13.144241  6.0094757
1493846031758 -6.303055 -14.4375305 7.8797913
1493846031778 -7.6344147  -15.104614  7.7976074
1493846031799 -6.452072 -15.25798 1.7674866
1493846031818 -3.6417694  -13.281799  -2.815094
1493846031835 0.8917999 -9.747498 0.24681091
1493846031857 5.227234  -7.160141 3.793106
1493846031877 3.0604095 -7.453003 2.2723846
1493846031898 -0.25517273 -6.9917145  -0.36512756
1493846031916 -2.6159668  -6.3708344  1.5034637
1493846031936 -3.2752228  -5.1743164  2.6616058
1493846031975 -3.8101196  -4.8804016  3.393982
1493846031996 -3.5381012  -3.7687683  4.4546814
1493846032015 -3.0367432  -1.99646  4.197571
1493846032035 -3.0527954  -0.04763794 4.0417786
1493846032055 -2.8033752  -0.007949829  2.8483124
1493846032075 -2.1431732  -3.3361359  -1.4927216
1493846032095 -1.6118164  -10.388306  -13.8582
1493846032114 3.4006653 -19.474823  -18.826447
1493846032134 7.4193726 -19.21991 -12.020782
1493846032154 3.8824615 -15.826553  -5.440201
1493846032172 0.34991455  -5.482727 -3.2555237
1493846032194 -3.0987244  -4.023407 2.9406586
1493846032213 -7.6558075  -12.866028  4.5535126
1493846032233 -6.249939 -15.4652405 1.3836212
1493846032253 -4.824127 -10.3280945 -2.501114
1493846032273 -4.756012 -4.8043213  11.368652
1493846032292 -5.5443726  -6.1480255  12.639252
1493846032312 -3.914734 -9.749008 4.896332
1493846032332 -1.2261963  -11.978241  2.103424
1493846032352 2.567459  -13.008255  3.2696838
1493846032372 4.9414063 -13.370941  1.7202759
1493846032391 3.7769775 -11.694214  -0.30560303
1493846032411 0.89875793  -8.817322 -0.2115326
1493846032431 -2.3311615  -8.180588 1.488205
1493846032451 -4.1592865  -8.190994 0.78256226
1493846032470 -4.4516754  -8.124832 -0.28526306
1493846032490 -2.839264 -7.883255 0.29127502
1493846032510 -0.6181183  -7.7872467  0.98332214
1493846032530 0.68058777  -8.307556 1.1721802
1493846032550 1.0944366 -9.538773 2.0583954
1493846032569 0.7681885 -10.472382  1.918869
1493846032589 0.5865631 -10.516861  -0.27908325
1493846032609 1.0498047 -10.6197815 -2.1130219
1493846032629 1.1850433 -11.49147 -1.875412
1493846032649 -0.06590271 -11.884232  -1.110199
1493846032670 -1.1864777  -11.921967  -1.4736328
1493846032688 -0.61901855 -12.432312  -1.2979431
1493846032706 0.4830017 -13.288086  -2.6559143
1493846032730 2.5982056 -14.687653  -4.346527
1493846032748 5.481186  -14.794952  -2.6614227
1493846032767 2.893219  -14.408646  -4.0123444
1493846032789 -1.8981323  -14.143143  -2.8999481
1493846032807 -3.5372925  -13.111877  3.9092102
1493846032827 -5.319504 -13.175888  8.78302
1493846032848 -7.5534515  -13.533203  5.4873047
1493846032866 -8.050369 -14.798019  1.5735321
1493846032886 -6.085907 -14.277481  -0.68200684
1493846032906 -1.3169403  -10.937103  1.2588501
1493846032926 3.2875214 -8.473358 2.499588
1493846032945 3.7450104 -7.8642426  2.4708405
1493846032965 1.2234344 -7.3036804  -0.7725525
1493846032985 -1.1281738  -6.480606 0.4686737
1493846033005 -2.354721 -5.2590637  2.3029327
1493846033025 -3.6169128  -4.531708 2.6877747
1493846033044 -4.1112366  -4.27977  3.8336182
1493846033064 -3.0335236  -2.9861145  4.42305
1493846033103 -2.762146 -1.2763672  4.5197296
1493846033124 -2.7866974  -0.6915283  3.6403503
1493846033143 -2.208313 -2.9055634  1.0105896
1493846033163 -2.8714142  -9.010468 -8.28862
1493846033183 -1.756897 -19.474823  -19.514862
1493846033203 5.9608307 -19.474823  -16.119156
1493846033222 4.330261  -18.315582  -6.2355957
1493846033242 0.54603577  -8.806335 -4.1516724
1493846033262 -2.3350525  -4.9493866  -0.5731201
1493846033282 -7.187744 -11.921997  -1.5421906
1493846033302 -2.7979126  -15.636551  3.2940674
1493846033322 -0.82540894 -11.891693  2.262741
1493846033341 -4.0074005  -5.761963 3.3550415
1493846033361 -7.3513947  -4.4330597  12.592773
1493846033381 -7.9579926  -7.171814 8.8965
1493846033401 -4.984268 -10.24559 3.1394348
1493846033420 -1.4061127  -11.985031  2.3802643
1493846033440 4.3740387 -13.420303  2.615036
1493846033460 7.0373077 -13.780853  1.4635925
1493846033480 4.3222046 -11.586136  -0.2822876
1493846033500 0.43962097  -8.8055725  0.3620758
1493846033519 -3.2365417  -8.116806 1.4527435
1493846033539 -4.8629303  -7.788681 0.09994507
1493846033559 -4.8276978  -7.820801 -0.31999207
1493846033579 -2.4442291  -7.8901825  0.7937622
1493846033599 0.24415588  -8.425262 1.1025238
1493846033620 1.5894012 -9.147156 1.5111542
1493846033638 1.5483704 -9.59053  1.8236847
1493846033660 0.7078247 -10.095657  0.92430115
1493846033679 0.035507202 -10.782715  -0.62342834
1493846033698 0.23446655  -11.144058  -2.5227356
1493846033717 0.45111084  -11.245575  -2.8198547
1493846033739 0.056045532 -11.742325  -2.329239
1493846033757 0.5122528 -12.408844  -1.7218018
1493846033777 1.7487488 -12.527847  -1.4689178
1493846033798 2.1373138 -13.396103  -4.2048492
1493846033816 4.1895447 -14.672958  -4.7207336
1493846033836 4.016403  -14.855789  -3.016098
1493846033856 -1.2369385  -14.804596  -3.3768158
1493846033876 -4.936432 -14.109955  1.2640839
1493846033895 -6.1319733  -13.677261  7.771927
1493846033915 -8.237808 -14.26091 7.5461884
1493846033935 -9.265732 -15.29393 4.973572
1493846033955 -7.531845 -14.904037  -0.4612732
1493846033974 -3.2668762  -12.360458  -1.2020874
1493846033994 2.030136  -9.524811 0.37960815
1493846034014 5.2090607 -7.9736176  3.5921478
1493846034034 2.2576294 -7.745224 0.7565918
1493846034054 -1.2234344  -6.6103516  -0.1031189
1493846034073 -2.5311432  -4.9278564  2.200058
1493846034093 -3.8049011  -3.818344 3.2107391
1493846034113 -4.743805 -3.3815765  4.110367
1493846034133 -4.31752  -2.6958923  4.5224457
1493846034153 -3.2593842  -1.2474213  4.117386
1493846034172 -2.0640411  -0.30551147 3.5225525
1493846034192 -1.731247 -1.5483398  2.4458008
1493846034231 -1.1511078  -6.0473022  -3.436966
1493846034251 -0.09706116 -16.188248  -19.191406
1493846034271 3.3306427 -19.474823  -19.045258
1493846034291 5.028702  -19.053482  -5.1397095
1493846034311 1.29599 -12.350037  -5.8753815
1493846034331 -2.1596222  -7.5033417  -2.540924
1493846034350 -5.9356537  -11.254578  0.76838684
1493846034370 -3.3699188  -13.005875  4.898102
1493846034390 -1.8149109  -8.777039 2.63826
1493846034410 -4.48703  -3.5151672  3.9161987
1493846034430 -7.1272736  -3.3388062  12.044327
1493846034449 -7.5124207  -8.272202 7.4269867
1493846034469 -4.1747894  -12.250015  3.0553741
1493846034489 -0.12808228 -12.939743  3.3612366
1493846034509 5.0976563 -13.154694  2.8886108
1493846034529 6.645859  -12.61731 1.5055084
1493846034550 3.3382416 -10.826752  -0.4812317
1493846034568 -0.33320618 -8.825378 -0.09674072
1493846034588 -3.4592285  -8.597244 1.2410431
1493846034610 -4.4321594  -8.209259 0.37123108
1493846034628 -4.1081696  -8.167648 -0.6215973
1493846034647 -1.8054352  -7.86438  0.6101837
1493846034669 0.45402527  -8.240341 0.63261414
1493846034687 1.4831696 -9.365875 0.65437317
1493846034707 1.486618  -10.034927  1.6213989
1493846034728 0.5984802 -9.945129 1.2794952
1493846034746 -0.061019897  -9.749115 -0.84284973
1493846034766 0.24794006  -10.231781  -2.3209991
1493846034786 0.17799377  -11.141968  -1.5782318
1493846034807 -0.86875916 -11.49762 -0.81204224
1493846034825 -0.9723053  -11.954468  -1.5402374
1493846034843 0.56365967  -12.659927  -1.5218964
1493846034861 2.3126678 -13.61499 -3.2169037
1493846034881 4.4894867 -14.161301  -3.599411
1493846034901 4.1332855 -14.00145 -2.897644
1493846034923 0.2855835 -14.666 -4.2777863
1493846034943 -2.8913116  -14.68895 -1.4381409
1493846034962 -4.789383 -14.1927185 6.221054
1493846034981 -7.485382 -13.715515  9.0563965
1493846035001 -10.228699  -14.0629425 4.418686
1493846035021 -9.546646 -14.387009  -0.23394775
1493846035042 -5.4472656  -12.462921  -1.2964172
1493846035061 -0.8813324  -9.516281 0.7204437
1493846035081 3.6096802 -7.8248444  2.4273071
1493846035101 3.3545227 -7.940567 2.4436035
1493846035121 1.064621  -7.5961456  -0.16516113
1493846035141 -1.7149658  -7.051483 0.576355
1493846035160 -3.62648  -5.6373444  2.618103
1493846035180 -4.46315  -3.9081879  3.5701447
1493846035200 -4.143402 -2.5861816  4.423523
1493846035219 -2.9203491  -1.0366364  4.0911713
1493846035240 -2.093216 -0.43048096 3.404953
1493846035262 -2.1763153  -1.3742676  2.6229858
1493846035279 -2.6437378  -4.621063 -0.26260376
1493846035320 -0.58987427 -11.395233  -14.562927
1493846035340 1.8898315 -19.474823  -19.68631
1493846035360 4.246765  -19.467026  -15.697708
1493846035380 2.8067322 -16.71991 -5.643799
1493846035399 0.5821686 -6.2537537  -4.3913727
1493846035419 0.69625854  0.2589264 1.2303009
1493846035439 -5.0687714  -5.2782135  9.667023
1493846035459 -8.227936 -12.362915  5.0741577
1493846035478 -5.8016663  -17.560303  -13.427597
1493846035500 -3.7196045  -12.636185  8.730026
1493846035518 -3.2911987  -8.368576 10.783798
1493846035538 -1.6576538  -5.488968 6.518997
1493846035559 -0.61854553 -6.949936 0.3461151
1493846035578 1.3742218 -10.195404  2.610962
1493846035597 2.5188599 -13.748398  3.7918854
1493846035619 2.1740875 -14.22081 1.2546539
1493846035633 0.44006348  -9.560913 -0.12901306
1493846035658 -2.1022034  -7.039276 0.58166504
1493846035676 -3.4397888  -6.7261047  0.170578
1493846035696 -3.3753052  -7.7588043  0.31077576
1493846035718 -1.89888  -8.949463 -0.006134033
1493846035736 -0.65083313 -9.679413 0.4306183
1493846035756 -0.21362305 -9.363647 1.4903259
1493846035775 -0.016601563  -8.855103 1.949234
1493846035795 -0.013015747  -9.810852 1.3333893
1493846035815 0.45344543  -11.121796  0.19084167
1493846035835 0.9630585 -11.416336  -1.1589203
1493846035854 0.36639404  -11.714432  -1.6713867
1493846035871 -1.0878906  -12.114914  -1.2316589
1493846035891 -1.1581573  -12.445709  -1.9370728
1493846035911 1.0179749 -12.752335  -1.3227234
1493846035932 2.4875946 -13.335907  -1.5065613
1493846035952 3.2674255 -14.808319  -3.412033
1493846035972 4.5980225 -14.920059  -2.6962738
1493846035992 1.6578522 -14.562408  -4.7564697
1493846036011 -3.1683502  -14.431534  -3.3986053
1493846036031 -4.0668488  -13.036606  4.609375
1493846036051 -5.2976837  -13.004211  9.045166
1493846036071 -7.714081 -13.696991  6.817978
1493846036091 -8.663467 -14.771408  1.3960571
1493846036109 -6.666397 -14.410614  -1.3947144
1493846036132 -1.4695892  -11.066681  0.6065674
1493846036151 4.55101 -7.910324 2.5487823
1493846036171 5.6621094 -7.062088 2.5151367
1493846036191 2.3041077 -6.5825043  0.084121704
1493846036211 -0.7173767  -5.741791 0.7523804
1493846036230 -2.2323456  -4.7464905  2.457199
1493846036250 -3.3038788  -4.1005554  3.152832
1493846036270 -3.9917145  -3.9619904  4.444153
1493846036289 -3.6727905  -3.0109558  4.6336975
1493846036310 -3.1139984  -1.2876892  4.1117706
1493846036329 -2.7644348  -1.1093903  2.9828644
1493846036349 -1.995285 -3.604416 1.0665588
1493846036369 -1.9329224  -8.795395 -7.0563507
1493846036389 -2.1783752  -18.735611  -18.860962
1493846036409 3.9635468 -19.474823  -16.874435
1493846036430 3.4121552 -19.474823  -7.290344
1493846036448 -0.070236206  -10.316727  -7.2294006
1493846036468 -0.7515259  -4.560959 -0.60466003
1493846036509 -4.5145416  -9.539276 -1.3386536
1493846036528 -0.97387695 -13.43219 2.085556
1493846036547 -0.46076965 -10.962158  3.7652893
1493846036569 -4.2971344  -6.202957 0.36958313
1493846036587 -7.9430695  -5.113571 9.794632
1493846036607 -8.160614 -6.8292694  8.359756
1493846036628 -3.8739624  -8.749634 4.4540253
1493846036646 -0.31497192 -9.998962 3.0430298
1493846036666 5.082138  -12.64061 1.454956
1493846036686 8.130661  -13.974609  0.93955994
1493846036705 5.468399  -11.9653015 -0.97058105
1493846036725 1.6373291 -7.961075 0.6277771
1493846036745 -2.4008942  -7.381027 2.3096924
1493846036765 -4.850479 -7.754135 0.8985443
1493846036785 -6.2373047  -8.946671 -1.2740479
1493846036804 -4.668762 -8.882019 0.33473206
1493846036824 -1.6517487  -8.140488 1.8126373
1493846036842 0.69462585  -8.760788 1.9703369
1493846036860 1.7833405 -10.486282  2.5909882
1493846036881 1.6559143 -11.342392  1.1905212
1493846036901 1.3921509 -10.889084  -1.7169342
1493846036923 0.9844971 -11.267426  -2.457489
1493846036941 -0.029266357  -12.402359  -0.6396942
1493846036961 -1.4126587  -12.440796  -0.42478943
1493846036981 -1.3202667  -12.096207  -1.9029236
1493846037002 0.9180298 -12.257858  -1.9794006
1493846037021 2.858017  -12.9084015 -1.703064
1493846037041 4.0485687 -13.902985  -1.8896484
1493846037065 3.6579895 -14.406342  -2.2408142
1493846037095 -0.34191895 -14.946136  -5.319107
1493846037099 -4.398163 -14.516113  -1.5472107
1493846037117 -4.9279175  -13.143219  7.5687103
1493846037142 -6.7562256  -12.409805  9.165176
1493846037155 -8.660034 -13.225937  2.7015686
1493846037174 -8.646423 -14.213257  -0.09927368
1493846037194 -5.703003 -13.011795  -0.33114624
1493846037214 -0.8070679  -10.369354  1.0975189
1493846037234 4.233139  -8.128662 3.3835144
1493846037253 4.4252014 -7.366684 1.3793335
1493846037273 1.3443909 -6.9174194  -0.19541931
1493846037293 -1.1004028  -6.1328735  1.6679535
1493846037313 -2.8996277  -4.8819885  2.5932922
1493846037333 -4.4766083  -4.2715454  3.2074585
1493846037353 -4.389801 -3.5055542  4.0424957
1493846037372 -3.181656 -1.9705353  3.9756165
1493846037392 -2.2993927  -0.42471313 3.4396515
1493846037412 -1.9358215  -1.1998291  2.6864166
1493846037432 -1.4920807  -5.034134 -0.17857361
1493846037451 -1.9707947  -13.279572  -12.9605255
1493846037471 0.3790741 -19.074234  -19.31427
1493846037491 6.0294495 -19.474823  -7.6797485
1493846037511 2.6612244 -14.6297455 -8.88237
1493846037531 0.36836243  -6.193207 -4.252014
1493846037551 -2.6594238  -7.888489 1.9005585
1493846037590 -4.2617645  -13.896561  2.778717
1493846037610 -2.4594116  -10.982605  2.8840942
1493846037631 -4.1888275  -5.70874  0.5431061
1493846037650 -5.7646484  -3.2019196  10.166168
1493846037670 -6.649994 -6.6339417  9.581085
1493846037690 -4.189865 -11.672516  3.5535126
1493846037710 -1.4697266  -12.034515  2.3207855
1493846037730 2.8842773 -11.941132  2.7423706
1493846037750 5.759735  -11.666534  2.2134247
1493846037769 5.1788177 -11.388733  0.40193176
1493846037789 1.8215942 -9.465286 -0.36140442
1493846037809 -1.8152771  -8.852493 2.1217957
1493846037829 -3.9937592  -8.458313 2.420166
1493846037849 -4.8350677  -7.9833527  -0.32577515
1493846037869 -4.252594 -7.9175262  -0.3135376
1493846037888 -1.6200867  -8.026367 1.0946808
1493846037907 0.09542847  -8.642975 1.2669983
1493846037927 1.1152649 -9.835419 1.540329
1493846037947 1.2951965 -10.775177  1.3605194
1493846037967 1.1445923 -10.5208435 -0.25717163
1493846037989 1.5234528 -10.715179  -2.0959625
1493846038006 1.3935242 -12.4362335 -1.0740967
1493846038026 0.005264282 -13.0173645 -0.57107544
1493846038046 -0.7842407  -12.402451  -2.6140137
1493846038067 0.84854126  -12.51503 -2.2053833
1493846038085 2.2159424 -12.75087 -1.5112305
1493846038105 2.4409637 -14.1050415 -3.9207458
1493846038126 3.8950348 -14.67363 -3.9309387
1493846038145 2.9192505 -13.841675  -4.5505066
1493846038164 -1.8078613  -13.551987  -6.263199
1493846038184 -4.5019226  -13.360245  -2.2126312
1493846038204 -5.4754486  -14.428299  6.4998474
1493846038224 -6.3597717  -15.442474  11.873001
1493846038243 -7.568527 -14.29361 8.871155
1493846038264 -6.2294464  -13.428604  -0.38407898
1493846038283 -2.3928375  -11.85611 -4.577301
1493846038303 1.1625977 -9.489365 -1.7916718
1493846038323 3.3329163 -7.6548615  3.072937
1493846038343 2.4260406 -6.648407 3.9824982
1493846038362 -0.5091553  -6.220688 1.7543335
1493846038382 -2.1092072  -5.7201996  0.8849945
1493846038402 -1.8405151  -5.317978 1.0871887
1493846038422 -1.6017761  -5.0970764  2.0858612
1493846038441 -2.3377838  -4.4551697  2.988205
1493846038461 -3.415741 -2.8885803  4.123001
1493846038481 -4.5400543  -1.3574982  4.839325
1493846038501 -4.359833 -1.3078308  4.0794373
1493846038524 -3.2980957  -4.0397186  1.2893829
1493846038543 -2.1284485  -10.197952  -8.123932
1493846038563 -0.13847351 -18.365417  -18.379196
1493846038581 5.7883453 -19.474823  -11.497009
1493846038602 4.3244324 -16.578064  -6.323303
1493846038626 0.25442505  -7.8322906  -5.523117
1493846038643 0.47599792  -1.0104828  0.1404419
1493846038662 -4.9296722  -7.520172 4.6784973
1493846038684 -6.4655457  -15.200562  3.9219666
1493846038705 -2.8841095  -17.668854  -9.455109
1493846038725 -3.114441 -10.185364  6.1716003
1493846038744 -5.1473846  -4.261902 8.612259
1493846038764 -4.9047394  -4.6649017  6.164139
1493846038803 -2.2480774  -9.046402 1.5785828
1493846038824 1.5725403 -11.132797  2.7357635
1493846038844 5.743744  -13.01265 3.089737
1493846038863 5.510193  -13.180618  0.7132721
1493846038883 3.0940247 -9.482056 -1.3815155
1493846038903 -1.1517181  -8.294922 0.37083435
1493846038923 -3.3254395  -8.010941 2.5239563
1493846038942 -4.241379 -8.016647 1.7939148
1493846038962 -4.2417755  -8.854599 1.1520233
1493846038982 -2.785324 -8.84903  0.9277954
1493846039002 -1.322998 -8.08519  1.2294922
1493846039021 -0.38819885 -7.982422 1.9249878
1493846039041 0.22966003  -9.379959 2.9568024
1493846039061 0.5151825 -10.798706  2.9993591
1493846039081 1.2050934 -10.815994  0.19499207
1493846039101 2.1023865 -10.684769  -2.2008057
1493846039121 1.2683563 -12.0585785 -2.6867065
1493846039140 -0.36624146 -12.876297  -1.4045563
1493846039160 -0.5747528  -12.711578  -1.2438049
1493846039180 0.8828888 -12.183899  -1.7676392
1493846039200 2.1561737 -12.832611  -3.182434
1493846039220 3.393219  -15.193771  -4.0868683
1493846039239 4.305298  -15.728851  -3.6655426
1493846039259 0.72151184  -14.3854065 -4.9331665
1493846039279 -3.8079987  -13.3841095 -2.1313324
1493846039299 -4.364197 -12.211258  6.3758087
1493846039319 -4.787079 -12.295258  10.572922
1493846039340 -6.0775604  -14.024643  6.358795
1493846039356 -5.6614532  -16.091904  -0.20220947
1493846039378 -2.7653503  -15.183762  -2.1993408
1493846039399 1.110611  -11.37973 -0.22879028
1493846039417 2.8762054 -8.519867 1.9060974
1493846039437 1.7862549 -7.208435 2.6678925
1493846039459 -0.82533264 -6.138977 2.8071594
1493846039477 -2.623413 -5.0166016  2.5162506
1493846039497 -3.0852203  -4.3927155  2.495453
1493846039518 -3.4199371  -4.4426727  3.1114197
1493846039536 -3.331787 -4.021057 3.1821594
1493846039556 -3.4812317  -2.7033844  3.2318573
1493846039576 -3.5955963  -1.4590302  3.379181
1493846039595 -2.5786743  -2.0622559  3.1631317
1493846039615 -1.0750122  -5.614212 0.56951904
1493846039635 -1.8200226  -13.19281 -11.146194
1493846039652 2.6698914 -18.641266  -18.719177
1493846039675 8.543564  -19.474823  -6.480057
1493846039694 4.6982727 -13.995239  -6.4349365
1493846039714 1.8029938 -5.2714996  -2.1255493
1493846039734 0.795578  -2.5011292  4.807434
1493846039754 -3.7305298  -12.098541  4.285187
1493846039774 -3.581314 -18.719406  -2.0406952
1493846039793 -4.0355988  -12.4561  -4.657181
1493846039813 -6.6508484  -5.9857025  10.603165
1493846039833 -8.36264  -3.4789886  11.519028
1493846039853 -6.9209595  -5.145279 7.2044983
1493846039873 -4.4525757  -8.064621 4.0702667
1493846039892 -1.4032898  -11.265961  3.3178406
1493846039912 3.6571655 -14.663315  1.0432281
1493846039951 8.252899  -15.211914  1.2453461
1493846039972 5.2624664 -11.021606  -0.5047302
1493846039989 1.6971588 -7.55925  0.5787506
1493846040011 -2.2138367  -7.496994 2.2321625
1493846040031 -4.519745 -8.06514  0.12348938
1493846040051 -5.007141 -8.515015 -0.7296753
1493846040071 -2.860321 -8.695465 0.06071472
1493846040090 -0.07626343 -9.270767 0.45724487
1493846040110 1.6847992 -10.068069  1.3401947
1493846040130 1.3805695 -10.433777  0.68852234
1493846040150 0.5514221 -9.974625 -0.904953
1493846040170 0.41578674  -9.98468  -1.3665619
1493846040189 0.10449219  -10.99881 -0.07711792
1493846040209 -1.216156 -11.699554  0.5861664
1493846040229 -1.9627838  -11.711136  -1.3290405
1493846040249 0.5211029 -11.788864  -1.8489685
1493846040268 3.1296844 -12.039261  -1.5299377
1493846040288 4.0152893 -13.55217 -3.2085571
1493846040308 4.8207855 -14.949997  -2.4710693
1493846040330 2.5651855 -14.576813  -3.0115814
1493846040346 -2.7111053  -14.225204  -4.8206635
1493846040368 -4.788315 -13.338379  1.5276184
1493846040389 -5.3762054  -12.777847  8.562683
1493846040407 -7.488922 -13.52002 7.1515503
1493846040427 -8.79097  -14.683289  2.5494385
1493846040449 -7.4594116  -14.730515  -0.50579834
1493846040467 -3.4320679  -12.309265  -0.891922
1493846040486 1.043045  -9.353104 1.3164063
1493846040508 3.388031  -7.7826843  3.44281
1493846040526 1.9541168 -7.127365 2.0928192
1493846040546 -1.2022247  -6.4599304  0.30482483
1493846040565 -3.0939178  -5.6941986  1.3960571
1493846040585 -2.2900543  -4.677536 6.7612305
1493846040605 -4.620346 -4.6064453  1.5600433
1493846040625 -4.4280396  -4.087784 1.4197998
1493846040645 -2.3387299  -2.3183746  4.4989624
1493846040664 -1.9109955  -1.2206573  3.375229
1493846040684 -1.5563202  -2.4536896  2.2781525
1493846040704 -1.6947021  -6.9288177  -3.6831055
1493846040722 -2.9750366  -15.89061 -15.621796
1493846040744 1.4595642 -19.358765  -19.318604
1493846040763 3.4272003 -19.474823  -11.146851
1493846040783 1.7516785 -12.417313  -7.156006
1493846040803 0.85284424  -5.689041 -1.94841
1493846040823 -3.86438  -9.849228 -0.94955444
1493846040843 -4.1864777  -14.851379  4.0639496
1493846040862 -1.8295288  -12.349609  2.1130981
1493846040882 -2.9562378  -6.182831 -0.7119446
1493846040902 -4.076645 -3.5902252  9.604675
1493846040922 -4.7754974  -7.1940613  9.350388
1493846040942 -3.850174 -11.942963  2.8435974
1493846040961 -1.3985596  -11.8063965 1.6021118
1493846040981 1.8798828 -10.533112  2.8139343
1493846041000 3.5211487 -10.777069  1.9559479
1493846041037 2.9723969 -10.875473  0.8966522
1493846041056 0.46588135  -9.620865 1.2048035
1493846041080 -2.5198212  -9.095566 2.4481354
1493846041100 -3.8559418  -8.575027 1.5652618
1493846041120 -4.4053802  -8.319092 0.09114075
1493846041139 -2.8580475  -8.346985 0.3152771
1493846041159 -0.008224487  -8.407181 -0.03135681
1493846041179 1.5370178 -9.154617 0.29873657
1493846041199 2.0940247 -9.815002 2.056839
1493846041219 1.318161  -9.947144 2.737915
1493846041238 -0.13916016 -9.804443 0.8699951
1493846041256 -0.73065186 -10.223846  -2.2280426
1493846041276 -0.76200867 -11.230637  -2.07576
1493846041300 -1.0346832  -11.69104 0.30819702
1493846041318 -0.99560547 -11.927109  -0.10185242
1493846041337 0.6166687 -11.960022  -1.1289368
1493846041359 1.9371643 -11.637207  -2.1257782
1493846041377 2.4564362 -12.207214  -4.7086945
1493846041397 5.0635834 -13.8880005 -4.760391
1493846041418 5.417343  -15.13826 -3.0196533
1493846041436 0.25932312  -15.187897  -5.2553406
1493846041456 -5.4227905  -14.609863  -0.6112366
1493846041476 -6.9203796  -14.1353  9.990784
1493846041496 -8.156876 -14.360443  10.823349
1493846041515 -8.998535 -15.502777  4.0210724
1493846041535 -6.8753204  -15.543274  0.5810547
1493846041555 -3.5973969  -13.248199  -0.3950348
1493846041575 -0.49058533 -10.453842  0.047836304
1493846041595 1.6878052 -8.651413 2.1042633
1493846041614 0.94099426  -8.068588 2.4902954
1493846041634 -1.3471375  -7.514099 0.8629303
1493846041652 -2.5406036  -6.3387604  1.057251
1493846041674 -3.1903076  -5.064575 1.7439117
1493846041693 -3.6752014  -4.118637 2.5928345
1493846041713 -3.2862854  -2.973175 3.520218
1493846041733 -2.4523163  -1.4662323  4.196701
1493846041753 -2.2180786  -0.7131653  3.9052124
1493846041773 -1.6889496  -1.7954407  2.961853
1493846041792 -1.2575684  -5.381256 -0.7878418
1493846041812 -2.0985413  -12.346817  -13.522446
1493846041832 1.7670746 -18.064926  -19.548187
1493846041852 6.4800415 -19.474823  -7.7108917
1493846041872 3.3271484 -13.499863  -4.9357452
1493846041891 -0.26860046 -6.366394 -3.429596
1493846041911 -1.757309 -5.390045 0.118118286
1493846041931 -4.981949 -13.738037  -1.5419312
1493846041951 -3.8547668  -17.046524  -0.4278412
1493846041971 -1.8384247  -11.110733  -1.0662384
1493846041990 -3.4946594  -4.860611 5.943268
1493846042010 -5.4514008  -3.961609 10.847137
1493846042030 -5.5971527  -8.050308 5.650116
1493846042050 -3.5927887  -10.650848  2.6554108
1493846042070 -0.73472595 -12.045349  3.1641998
1493846042089 3.4354858 -12.504776  2.3882294
1493846042109 5.9460754 -12.749313  1.199295
1493846042129 3.7818146 -10.370789  -0.6173096
1493846042150 0.63926697  -8.187317 1.3756256
1493846042185 -3.0328827  -8.11731  2.8185272
1493846042204 -5.4284363  -8.419266 -0.46087646
1493846042224 -5.896881 -8.979614 -0.8664551
1493846042243 -2.1844635  -8.3437805  0.33229065
1493846042262 0.10835266  -7.6770935  1.1372681
1493846042287 0.41249084  -8.824066 1.3729248
1493846042307 1.0401306 -10.201294  2.3263855
1493846042327 0.31269836  -10.520065  1.479187
1493846042346 -0.11752319 -9.708832 -1.0704498
1493846042366 0.35585022  -10.097733  -2.0561218
1493846042386 0.27919006  -12.076111  -0.4756012
1493846042406 -1.3357697  -12.619614  -0.63194275
1493846042421 -1.2420502  -12.519836  -3.7914581
1493846042439 2.3912506 -12.702133  -3.3240051
1493846042463 4.82782 -13.647842  -3.594864
1493846042483 5.370682  -14.632904  -2.9475555
1493846042503 2.7432098 -14.293335  -2.7957
1493846042522 -2.5982513  -14.5069275 -3.0836182
1493846042542 -5.2745056  -13.995834  1.3200531
1493846042562 -6.4208527  -13.701172  6.847351
1493846042582 -8.784744 -14.504517  7.414337
1493846042601 -9.723358 -14.919128  4.376953
1493846042621 -7.0690155  -13.893112  0.81085205
1493846042638 -2.0574493  -11.335602  -0.46151733
1493846042663 3.2714844 -8.741592 1.5841217
1493846042683 5.776016  -7.6355133  2.835083
1493846042703 2.838745  -7.6265564  0.848526
1493846042723 -0.590271 -6.6559906  -0.7177582
1493846042743 -2.7658691  -5.387024 0.4873047
1493846042762 -3.9403687  -4.7471924  1.8425751
1493846042782 -4.0509033  -4.224304 3.4797668
1493846042802 -3.5502777  -3.3307343  4.4854126
1493846042822 -3.067093 -1.7563019  4.424637
1493846042841 -2.9726105  -0.7540283  3.7021637
1493846042861 -2.5769348  -2.006256 2.4331512
1493846042881 -2.5764465  -6.2040405  -2.19516
1493846042901 -3.2922668  -15.181717  -13.993866
1493846042921 1.9070282 -19.474823  -19.722397
1493846042940 5.062317  -19.474823  -10.929108
1493846042960 2.1159058 -14.658615  -6.655533
1493846042980 0.07032776  -6.557251 -3.5680542
1493846043000 0.5533447 0.033096313 0.64038086
1493846043019 -3.8537598  -4.7066193  1.4810944
1493846043039 -5.509918 -15.219391  5.600754
1493846043059 -2.094757 -17.432816  -0.8874359
1493846043079 -3.4440155  -13.419144  -5.7522125
1493846043099 -4.7805634  -7.4352264  4.7111816
1493846043119 -4.789871 -4.108246 12.209152
1493846043140 -4.990158 -5.138443 4.5313873
1493846043159 -2.7919006  -7.9769897  1.3920441
1493846043178 0.123062134 -10.652084  3.3679657
1493846043196 3.9527435 -13.173935  2.4212036
1493846043225 5.6981506 -14.436707  2.138443
1493846043234 3.6050415 -10.778076  -0.02027893
1493846043251 -0.43623352 -8.245712 0.60710144
1493846043294 -3.471222 -7.8285522  2.2706146
1493846043314 -5.1431427  -8.127228 -0.3771057
1493846043334 -5.3692017  -8.733536 0.08207703
1493846043353 -2.6797485  -8.569992 1.3690491
1493846043374 -0.2236023  -8.522736 1.0252838
1493846043393 1.4222412 -9.170715 1.138092
1493846043413 2.209488  -9.746033 1.205246
1493846043433 1.6383972 -9.717453 0.9798889
1493846043452 0.68455505  -9.857971 -0.6123352
1493846043472 0.0713501 -11.136566  -1.4501343
1493846043494 -1.2366333  -12.325607  -1.3875885
1493846043514 -1.6241455  -12.309357  -2.345047
1493846043533 0.0074157715  -12.6740265 -2.8828278
1493846043553 2.0140076 -12.979507  -2.0355377
1493846043573 3.1105957 -14.299683  -3.961792
1493846043593 4.0733795 -15.70961 -3.2393188
1493846043613 1.3265839 -15.833298  -4.069214
1493846043632 -3.854416 -14.43309 -1.8592682
1493846043650 -5.2071533  -12.653305  5.037674
1493846043673 -5.7449036  -12.21254 8.334564
1493846043693 -6.9149323  -12.613113  4.9838104
1493846043712 -6.539261 -14.166016  1.409668
1493846043732 -5.0197296  -14.185928  -0.7544708
1493846043752 -1.1931152  -11.731949  0.46298218
1493846043772 2.8960419 -8.965195 3.2472992
1493846043791 3.3343506 -7.9015503  2.9474487
1493846043811 -0.32514954 -7.4376984  0.26371765
1493846043831 -2.2636871  -6.0887756  0.30877686
1493846043851 -3.3551483  -5.059738 1.5205688
1493846043871 -4.2337646  -4.5513916  1.9856567
1493846043890 -4.0387115  -3.8687897  3.268692
1493846043910 -3.1628418  -2.537506 3.9238129
1493846043930 -2.586609 -0.98890686 3.65065
1493846043950 -2.2262115  -0.6687927  2.8251495
1493846043970 -1.3182068  -3.0638428  0.43806458
1493846043989 -0.5031738  -9.10936  -7.084915
1493846044009 1.5034485 -16.538177  -16.343246
1493846044029 5.832443  -19.474823  -12.559494
1493846044049 5.4700165 -17.751526  -7.6071014
1493846044069 1.546936  -11.481155  -6.3937836
1493846044090 0.13734436  -5.960037 6.2561035E-4
1493846044108 -3.2912903  -9.471436 1.4858398
1493846044128 -3.504181 -14.683563  2.8189697
1493846044149 -4.2256927  -13.138123  -4.711136
1493846044168 -6.671341 -5.771286 0.34362793
1493846044187 -7.179245 -1.4417725  13.557175
1493846044209 -5.8765717  -4.3648224  8.1710205
1493846044227 -3.485962 -9.4652405  2.6174011
1493846044247 0.3011322 -12.147583  2.957138
1493846044268 2.983261  -14.236847  3.960907
1493846044286 5.051895  -14.134033  1.7785645
1493846044307 4.1533966 -10.549637  -0.23875427
1493846044326 1.6224213 -7.785248 1.1900024
1493846044346 -1.785553 -8.510574 2.7535248
1493846044366 -3.8521423  -9.848572 1.593811
1493846044385 -4.910736 -10.012558  0.5788727
1493846044405 -4.6705017  -8.759766 0.04588318
1493846044425 -2.2161407  -7.3176117  0.7745209
1493846044445 -0.25068665 -7.33963  1.1086426
1493846044464 0.7416687 -8.630096 1.9342499
1493846044503 0.6839905 -10.385757  2.7512512
1493846044524 0.22312927  -10.855469  1.5670776
1493846044544 0.26382446  -10.34729 -1.0869446
1493846044563 1.3931427 -10.678482  -2.5215454
1493846044583 1.8638  -12.0160675 -1.9010315
1493846044603 0.46424866  -12.120956  -2.385254
1493846044623 -1.1543732  -11.909973  -3.857254
1493846044643 -0.16159058 -12.315109  -2.518814
1493846044662 2.6809998 -14.12114 -2.5823517
1493846044682 3.3720398 -16.42099 -2.9627075
1493846044702 -0.4656067  -16.551102  -2.5493774
1493846044722 -5.117813 -14.3125  -0.32284546
1493846044741 -5.8618927  -12.553619  4.535568
1493846044761 -5.4582977  -12.218231  5.415512
1493846044781 -6.0042877  -13.398819  3.8595886
1493846044801 -5.8187866  -14.799988  1.2602234
1493846044821 -3.976822 -14.2968445 -0.25531006
1493846044841 -0.51937866 -11.197189  1.1810303
1493846044860 1.8242035 -8.354858 3.1618347
1493846044880 0.2517395 -7.2771606  2.2469788
1493846044900 -2.024063 -6.311966 1.1472015
1493846044920 -3.297226 -5.483856 1.4873962
1493846044939 -4.193039 -4.6706085  1.5519562
1493846044990 -3.9916077  -4.1443024  1.7077637
1493846044991 -3.3918152  -3.8486176  3.1890411
1493846044996 -2.346817 -2.6546326  3.8806
1493846045017 -1.765625 -1.3917542  3.674347
1493846045040 -1.7914581  -1.9243317  2.4269562
1493846045053 -1.3409271  -5.201996 -3.0471954
1493846045073 0.64868164  -13.711456  -14.103897
1493846045093 3.6435852 -19.148026  -17.419403
1493846045112 3.7084198 -19.407608  -10.242996
1493846045132 0.72358704  -13.97464 -7.812851
1493846045157 -0.7581177  -8.032532 -4.951248
1493846045177 -3.2193756  -9.918823 -2.0447083
1493846045196 -3.6049957  -11.772583  2.5583038
1493846045216 -4.031906 -8.214249 4.300354
1493846045238 -5.21756  -5.1749725  2.600998
1493846045256 -5.886917 -5.6545258  7.260376
1493846045272 -5.1027374  -9.122269 6.895233
1493846045292 -2.0737762  -11.360489  3.049652
1493846045315 0.8509979 -12.255966  2.3567352
1493846045335 2.894226  -12.465744  3.3460388
1493846045354 4.4351044 -11.999344  2.3981323
1493846045374 3.0664063 -10.785736  0.7564087
1493846045394 0.65686035  -9.055252 0.70713806
1493846045414 -1.7561188  -8.560608 2.259735
1493846045434 -3.6445923  -8.824097 2.0574646
1493846045453 -4.53598  -9.300644 0.045196533
1493846045473 -3.912262 -9.11351  -0.66171265
1493846045493 -1.5288391  -8.29332  0.661438
1493846045510 -0.04827881 -7.955368 1.1968689
1493846045533 0.7440491 -8.682663 0.44996643
1493846045553 0.94732666  -9.692596 1.2456512
1493846045573 1.3352966 -9.85376  1.5080414
1493846045593 1.3448639 -10.05397 0.39045715
1493846045612 0.8218384 -10.74884 -0.5245514
1493846045650 -0.82928467 -11.812012  -0.9459686
1493846045672 -2.0259552  -12.704956  -2.0859375
1493846045692 0.85131836  -12.895081  -1.9625244
1493846045711 3.1554413 -13.354309  -0.6214905
1493846045731 1.8350372 -13.726944  -4.2929688
1493846045751 2.414978  -13.558762  -5.0839844
1493846045771 4.268921  -12.829254  -2.389267
1493846045791 0.061416626 -13.887695  -2.1271667
1493846045810 -4.374878 -14.117249  0.25976563
1493846045830 -5.4594727  -13.488312  5.116226
1493846045850 -6.3644714  -13.2812805 5.9891357
1493846045870 -7.492325 -14.030502  3.654068
1493846045890 -7.600418 -15.118011  2.2098083
1493846045909 -6.5343475  -13.881607  2.0829315
1493846045929 -3.5167236  -10.875595  1.0863037
1493846045949 0.95373535  -8.385025 2.2659302
1493846045969 3.8975983 -7.3677216  2.6729584
1493846045990 2.049652  -7.7106323  1.2085266
1493846046008 -0.9233551  -7.403534 -0.41238403
1493846046028 -2.2740173  -6.1630096  1.2967987
1493846046045 -3.4277039  -4.95047  2.6197968
1493846046065 -4.48497  -3.8194427  4.125946
1493846046088 -4.4441376  -2.146225 4.8809357
1493846046109 -3.3886719  -0.3595581  4.282242
1493846046127 -1.8696747  -0.3625183  3.1664886
1493846046147 0.3539734 -3.024643 1.0525665
1493846046169 1.6776123 -9.235733 -8.702744
1493846046187 1.0084534 -16.467072  -18.70346
1493846046206 2.7697449 -19.474823  -12.358597
1493846046228 3.3935394 -16.773773  -6.143097
1493846046246 0.82344055  -10.447052  -5.5319366
1493846046266 -0.66493225 -6.7599945  -1.9801025
1493846046286 -4.1119537  -10.217102  -0.7216644
1493846046305 -5.322815 -13.196823  1.956543
1493846046325 -5.3517456  -10.706131  -1.2359924
1493846046345 -6.165802 -6.171875 2.621643
1493846046364 -6.5738373  -4.4990845  9.582336
1493846046384 -4.2164307  -6.917038 7.5303497
1493846046404 -0.8100128  -10.01152 2.8255005
1493846046424 2.519867  -12.552673  2.692688
1493846046444 4.32106 -13.973068  2.9060822
1493846046463 4.9821777 -13.933197  0.76530457
1493846046483 3.8408356 -10.650131  -0.59754944
1493846046503 0.7146301 -8.028976 1.0581512
1493846046523 -2.3895874  -7.6181183  2.7541199
1493846046543 -4.100067 -8.016861 1.7321472
1493846046562 -5.1673584  -8.704071 -0.6259613
1493846046582 -4.005722 -8.718689 -0.056274414
1493846046602 -0.8820038  -8.084778 1.1535645
1493846046622 0.8240204 -8.320663 1.0947876
1493846046641 1.34729 -9.845337 1.0049286
1493846046661 1.3700256 -10.660904  0.85850525
1493846046681 1.1639557 -10.428665  -0.38998413
1493846046701 0.9069214 -10.426132  -1.8670349
1493846046721 -0.1111145  -11.35907 -1.5977173
1493846046740 -1.2815704  -11.91452 -1.568161
1493846046780 -1.0667114  -12.355698  -1.5726471
1493846046800 0.97624207  -12.471558  -0.5984497
1493846046820 1.9587097 -12.507309  -1.4007874
1493846046839 2.4900818 -13.510696  -5.163147
1493846046859 5.429428  -14.231842  -3.5699615
1493846046879 3.2161102 -15.384552  -3.5659027
1493846046899 -2.9817963  -15.538239  -2.7139893
1493846046919 -5.274292 -14.07399 4.3891296
1493846046940 -5.8699646  -13.996674  9.176956
1493846046958 -7.941513 -13.875092  6.005234
1493846046978 -7.6481934  -14.996292  1.2088013
1493846047000 -6.239044 -13.798523  -0.21725464
1493846047018 -2.0888062  -10.650528  0.075805664
1493846047037 2.4102783 -8.117371 1.9798431
1493846047059 3.5040894 -7.287216 3.105606
1493846047077 0.91311646  -6.79953  0.9711609
1493846047097 -1.3447266  -5.898163 0.6912384
1493846047118 -2.8428955  -5.0230103  2.486267
1493846047136 -4.140274 -4.1169434  2.6354828
1493846047156 -4.5475464  -3.5363464  3.870041
1493846047173 -3.598404 -2.1964874  4.5977173
1493846047196 -2.5733337  -0.76234436 4.1558075
1493846047215 -2.122757 -0.9571991  2.927063
1493846047235 -1.8592072  -4.0238495  -1.4226227
1493846047255 -0.4653473  -11.7948  -11.838074
1493846047275 2.1987457 -18.914597  -19.722397
1493846047295 3.9759674 -19.474823  -14.010635
1493846047314 2.733902  -15.3173065 -7.408325
1493846047334 0.6189728 -7.7407837  -5.484314
1493846047354 -3.1219482  -8.494278 -3.7584534
1493846047374 -4.340637 -14.6081085 -0.9051666
1493846047394 -1.7497864  -13.308685  4.417145
1493846047411 -2.4262848  -5.813034 3.549881
1493846047433 -6.752701 -2.464737 4.946518
1493846047453 -7.8500824  -5.2062836  9.097092
1493846047473 -4.155197 -9.610733 7.036316
1493846047493 0.35687256  -11.655884  3.5395813
1493846047512 2.7779846 -13.272568  1.9549103
1493846047532 3.6651154 -13.627747  1.5057373
1493846047549 4.1416016 -11.104385  -0.15811157
1493846047572 2.03685 -8.173492 0.02017212
1493846047592 -1.088623 -7.700897 1.4047852
1493846047612 -2.7516785  -8.474945 1.4895325
1493846047631 -3.3736725  -9.009262 0.83529663
1493846047650 -3.4545898  -8.899551 0.8226929
1493846047671 -2.1387024  -8.453537 0.68862915
1493846047691 -0.75135803 -8.755661 0.7338867
1493846047710 0.71447754  -9.333115 0.34346008
1493846047730 2.0515442 -9.945633 0.9106293
1493846047750 2.061432  -10.113022  0.064575195
1493846047770 2.0180054 -10.046448  -1.0426178
1493846047789 1.1812744 -11.567871  -0.026687622
1493846047809 -0.33554077 -12.702179  -0.46461487
1493846047833 -1.8789825  -13.016678  -2.9046173
1493846047866 -0.7450409  -12.47554 -2.575409
1493846047886 1.6585388 -12.173386  -2.1065063
1493846047906 2.1334534 -12.916794  -5.7723846
1493846047925 5.1690216 -14.45047 -7.6640015
1493846047946 6.4178467 -15.30191 -2.4543915
1493846047965 0.36201477  -14.639389  -3.1593018
1493846047985 -3.3494568  -13.969147  6.3617096
1493846048005 -5.1726837  -14.203506  8.085861
1493846048025 -5.3443756  -14.106873  6.639633
1493846048043 -4.680649 -15.541138  3.651657
1493846048067 -5.221878 -16.761063  1.4756927
1493846048087 -3.7114716  -14.087296  -0.13381958
1493846048108 -0.10391235 -9.404495 0.78019714
1493846048124 1.8545837 -6.9847107  1.2585602
1493846048145 0.4111786 -6.2435913  1.6900024
1493846048166 -1.0163727  -5.2785797  1.9296875
1493846048185 -2.5874329  -4.809723 1.6734314
1493846048205 -3.576828 -4.7393646  1.2352753
1493846048225 -3.903305 -4.7879333  3.2445679
1493846048245 -3.719757 -3.9249725  4.4972687
1493846048266 -3.9103851  -1.9788666  4.2734375
1493846048281 -4.481659 -0.7918854  3.7355194
1493846048302 -3.588028 -2.0664825  1.4586487
1493846048321 -2.3786774  -6.5572968  -4.998581
1493846048340 -0.657074 -14.216812  -14.758408
1493846048361 5.0727997 -19.474823  -17.436188
1493846048381 7.5872955 -18.583572  -9.684998
1493846048401 3.3256836 -12.935913  -4.306244
1493846048420 -1.5461273  -8.143677 -2.4435272
1493846048440 -3.9092712  -10.830231  -2.245819
1493846048460 -2.9064484  -13.604279  -1.0735779
1493846048485 -1.5186768  -11.216965  2.5297394
1493846048503 -3.419281 -6.097122 4.5815125
1493846048522 -7.1766663  -3.6819916  9.507095
1493846048542 -7.5560455  -6.159912 7.9122925
1493846048562 -5.014221 -9.815781 2.0401306
1493846048581 -1.0804443  -11.904739  1.8579254
1493846048601 4.518692  -12.725143  2.8993835
1493846048621 7.070053  -13.039856  1.7277069
1493846048641 5.2677  -10.754349  0.34204102
1493846048660 1.0655212 -8.568573 1.5796661
1493846048680 -2.7813568  -7.9832153  2.6347198
1493846048700 -5.0513 -7.8538055  1.0121002
1493846048720 -6.1630554  -8.32608  0.057144165
1493846048741 -3.7446442  -8.512238 0.4476776
1493846048759 -0.882843 -8.584946 0.7758484
1493846048779 0.66111755  -8.865631 0.77326965
1493846048799 1.2677307 -9.8159485  1.338028
1493846048819 0.7781677 -10.664185  0.9595642
1493846048838 0.60639954  -10.801315  -0.06283569
1493846048860 0.8755493 -11.000641  -0.6007538
1493846048878 0.6047821 -12.284851  -1.4841614
1493846048898 -0.821228 -12.7827  -2.1688385
1493846048920 -0.96318054 -12.679199  -3.2391357
1493846048938 1.4138794 -12.312622  -1.2667542
1493846048957 2.3034515 -11.794617  -2.0763397
1493846048979 2.3809357 -13.286758  -5.626007
1493846048997 5.059433  -15.100418  -3.096527
1493846049017 3.9898071 -15.334534  -3.0241547
1493846049038 -2.686966 -14.658005  -1.5843964
1493846049076 -4.2029114  -13.337021  5.845749
1493846049096 -5.3652954  -13.246033  9.908676
1493846049116 -7.7732544  -15.191498  4.71875
1493846049135 -7.3504486  -16.745193  3.9620361
1493846049155 -5.7339783  -15.015381  0.23124695
1493846049175 -1.8432617  -10.874985  0.56889343
1493846049195 1.994278  -8.141129 2.2221985
1493846049215 3.909317  -7.171112 3.5965424
1493846049234 0.90641785  -7.0008698  1.510437
1493846049254 -1.7510834  -6.0180054  1.2935944
1493846049271 -2.9021606  -4.896805 2.5548859
1493846049294 -3.3072662  -4.3457336  3.8044128
1493846049314 -3.0864868  -3.8405457  4.612137
1493846049333 -3.2686157  -2.6072845  4.2983246
1493846049353 -3.9257355  -1.1020203  3.6925354
1493846049371 -4.2919006  -1.4135742  2.330658
1493846049393 -2.936676 -4.2700043  -2.3249664
1493846049412 -1.7084961  -11.652145  -11.99939
1493846049432 1.8095703 -19.474823  -17.025665
1493846049452 5.3054504 -19.474823  -8.7743225
1493846049472 2.73909 -15.623352  -5.1759033
1493846049492 -0.1217041  -6.167328 -6.4748535
1493846049512 -0.457016 -2.0174408  -2.2406158
1493846049531 -2.9849243  -6.4629364  1.994461
1493846049551 -3.6960602  -14.73851 2.0126038
1493846049571 -0.80844116 -16.356064  -1.6331329
1493846049591 -2.0190887  -10.808548  1.2942657
1493846049610 -5.951355 -6.388138 8.109665
1493846049630 -6.7652435  -5.5583344  7.9037476
1493846049649 -4.9350586  -7.1860657  3.234436
1493846049670 -2.1022644  -9.786011 2.5863495
1493846049690 2.2558746 -12.017075  2.96492
1493846049709 6.1233063 -13.420074  1.7232056
1493846049729 5.82045 -12.016617  -0.087249756
1493846049749 2.3538513 -9.034149 0.41723633
1493846049769 -1.6102448  -7.727463 1.4184113
1493846049788 -4.5010834  -8.019211 0.50819397
1493846049810 -5.603897 -8.888229 -0.27789307
1493846049828 -3.8875275  -9.086899 1.1392822
1493846049848 -1.7628784  -8.784073 1.9310455
1493846049869 -0.2995453  -8.186554 1.7774963
1493846049888 0.47071838  -8.672058 1.5306549
1493846049908 0.77978516  -10.0130005 1.0902557
1493846049929 1.0129242 -10.186157  -0.4219513
1493846049944 0.82354736  -10.247299  -1.9122009
1493846049978 -0.33418274 -11.956253  -1.0189972
1493846049982 -2.285141 -12.968826  -1.1392365
1493846050003 -2.9161682  -13.148132  -3.5642242
1493846050022 0.12962341  -12.936371  -1.2362671
1493846050045 2.481369  -12.794647  -1.1054535
1493846050065 4.05896 -14.570602  -4.5529633
1493846050085 6.401001  -15.4822235 -3.6026611
1493846050105 4.7838287 -14.739761  -5.33403
1493846050125 -1.7202911  -14.563278  -3.2732697
1493846050144 -4.2785645  -13.02771 5.688904
1493846050164 -4.6961823  -12.746704  12.99968
1493846050203 -5.5398254  -11.922638  6.993332
1493846050224 -3.4128876  -12.990616  1.3414154
1493846050243 -3.128891 -14.792297  -0.5769501
1493846050263 -0.13137817 -12.646912  -0.348526
1493846050283 2.9151917 -9.903366 2.275879
1493846050303 4.4019775 -8.661255 3.4784088
1493846050323 1.1945953 -8.135666 1.8637543
1493846050342 -1.3901062  -6.5290985  1.4740906
1493846050362 -2.6146088  -5.6094513  2.4133453
1493846050382 -3.076416 -5.0496216  2.9104614
1493846050402 -3.3502655  -4.7177887  4.023834
1493846050422 -4.3605804  -3.7711945  4.4868164
1493846050441 -5.290024 -2.5082855  4.0239716
1493846050461 -5.5824585  -2.5195313  3.0705872
1493846050481 -3.4803314  -4.985733 -0.70124817
1493846050501 -2.822235 -9.930023 -7.339615
1493846050520 -1.6332245  -16.525528  -16.582901
1493846050540 6.0793304 -19.474823  -14.443771
1493846050560 9.115997  -17.249893  -2.9455261
1493846050580 3.2834167 -10.91571 -3.5368042
1493846050600 -0.99375916 -8.592606 -2.436432
1493846050619 -2.8672028  -11.529282  -4.7884064
1493846050639 0.15437317  -14.131073  -4.2318573
1493846050659 1.4263  -12.711273  2.099762
1493846050679 -3.5682678  -7.2967224  4.4871826
1493846050699 -8.797348 -2.1886292  6.8483124
1493846050718 -11.053528  -2.7780762  9.057312
1493846050738 -9.09314  -8.4339905  4.4664
1493846050758 -5.0393677  -12.913162  -0.30493164
1493846050778 1.3684082 -15.115051  0.46261597
1493846050798 9.864273  -14.17337 3.6155853
1493846050817 9.768875  -11.966049  1.2937927
1493846050837 4.5395203 -9.4813385  -1.0113525
1493846050857 -0.4517212  -8.306671 1.9019928
1493846050877 -5.163788 -8.957947 2.7220306
1493846050896 -7.807419 -8.909958 -0.33114624
1493846050923 -6.772583 -8.05513  -0.39471436
1493846050937 -3.274475 -7.3638 1.2716217
1493846050957 -0.74464417 -7.877289 0.5372162
1493846050978 0.69047546  -9.220612 2.1779175
1493846050996 0.82318115  -9.670776 3.2653656
1493846051016 -0.08401489 -9.557556 1.3796692
1493846051035 -0.5329437  -9.850174 -0.03845215
1493846051055 -0.5181427  -10.604004  -0.7368469
1493846051075 -0.82255554 -11.953766  -0.39930725
1493846051095 -1.9455872  -12.0168915 -0.7401428
1493846051115 -2.4128723  -11.672592  -2.4660034
1493846051134 0.7274933 -11.677551  -2.505661
1493846051154 3.536026  -11.974457  -2.0001373
1493846051171 4.8873596 -13.689743  -2.6658936
1493846051194 5.408615  -15.258865  -1.9977722
1493846051214 2.1267395 -15.443481  -4.220688
1493846051233 -1.9641876  -14.530365  -2.2217102
1493846051253 -2.9643097  -12.765854  4.4880524
1493846051273 -3.9451294  -13.103729  8.350723
1493846051293 -5.3944397  -14.116104  7.115036
1493846051313 -5.8220215  -15.758408  6.0879364
1493846051352 -5.1485596  -14.777069  1.5392914
1493846051372 -1.6337433  -12.03273 -0.79400635
1493846051392 2.8509521 -9.667496 0.50567627
1493846051412 4.3236237 -8.60788  1.6260376
1493846051431 1.9307404 -7.9014435  0.24325562
1493846051451 -1.2139893  -6.1906586  2.2990723
1493846051471 -3.205536 -4.4517517  2.4910126
1493846051491 -4.065857 -3.9184723  3.136856
1493846051510 -3.4387665  -3.834076 3.7603912
1493846051531 -2.877777 -3.2189178  3.7268524
1493846051550 -3.3051453  -2.3798828  3.635254
1493846051570 -3.5130615  -2.5331879  2.8019714
1493846051590 -3.1384735  -4.757431 -0.29289246
1493846051609 -3.0576324  -10.747864  -8.880417
1493846051629 -1.0992432  -18.18782 -17.863022
1493846051649 5.873169  -19.474823  -10.309006
1493846051670 6.357483  -17.147522  -5.1987762
1493846051689 2.318756  -10.037155  -5.6191406
1493846051708 1.9721222 -5.273926 -2.4165955
1493846051730 0.5723114 -4.809372 1.2317047
1493846051748 -5.1497498  -11.144455  2.8999786
1493846051768 -5.711334 -16.502625  -3.4437408
1493846051789 -2.58609  -14.879761  -5.631836
1493846051807 -3.906433 -7.4187164  2.6161804
1493846051827 -6.7782135  -2.6181488  8.529587
1493846051849 -6.453766 -3.5233612  10.029404
1493846051867 -4.23732  -8.590149 2.7729187
1493846051887 -0.9538269  -13.490738  0.59651184
1493846051908 4.125778  -15.667145  2.068512
1493846051926 6.4427032 -14.176575  2.6409607
1493846051946 4.5224457 -10.1914215 0.9628601
1493846051966 0.8433838 -8.031235 1.4796753
1493846051985 -2.9718323  -8.590012 2.634552
1493846052005 -5.4273834  -9.210236 1.5038757
1493846052025 -6.188614 -8.938492 0.0026550293
1493846052045 -4.163101 -8.17128  0.19848633
1493846052065 -1.5041504  -7.7457275  0.77160645
1493846052084 0.03982544  -7.9431305  1.53508
1493846052104 0.7857971 -9.211227 2.0597534
1493846052124 1.0307617 -10.7270355 2.2463226
1493846052144 0.60601807  -10.833328  0.79048157
1493846052163 0.040145874 -10.188812  -1.8681793
1493846052183 -0.4663086  -10.862396  -3.2563171
1493846052203 -1.0974731  -11.949081  -2.1000366
1493846052223 -0.94654846 -12.167313  -2.180481
1493846052243 0.9907532 -12.366364  -1.9655609
1493846052262 2.383789  -12.396957  -1.5365143
1493846052282 2.8716888 -13.147583  -3.8526154
1493846052302 3.9582672 -14.0569  -3.8000946
1493846052322 0.8920288 -15.164978  -4.297653
1493846052342 -3.200592 -14.921829  -1.4629822
1493846052361 -4.8210754  -14.137711  6.570633
1493846052381 -6.3125305  -13.528961  8.502579
1493846052401 -7.2117157  -13.2122345 5.1267853
1493846052421 -7.19339  -15.09343 2.0380707
1493846052441 -4.064804 -13.760208  -2.1059418
1493846052480 1.3852081 -10.734512  -0.79119873
1493846052500 5.114685  -8.593796 1.5796051
1493846052520 3.6328735 -8.295502 -0.5753784
1493846052540 0.7877197 -7.274002 -0.5422821
1493846052559 -1.4113159  -5.8132477  1.9529877
1493846052579 -3.462799 -4.5592957  2.3455963
1493846052599 -4.712738 -4.2875977  3.41745
1493846052619 -4.087723 -3.87146  4.462677
1493846052640 -3.7782288  -3.0357513  4.480728
1493846052658 -3.6891785  -1.5116272  4.132904
1493846052678 -2.6986084  -1.064621 3.400406
1493846052700 -1.6985626  -3.4168243  1.8161316
1493846052718 -1.1053009  -9.311859 -6.296936
1493846052738 -0.51701355 -17.705627  -18.627808
1493846052759 6.2530975 -19.474823  -15.968796
1493846052777 7.7356415 -17.51056 -5.244629
1493846052797 2.6495209 -9.548279 -4.5718994
1493846052818 -1.0049896  -3.7891998  1.0885315
1493846052837 -5.99411  -8.915115 3.8464355
1493846052856 -7.614456 -15.547272  -0.7313385
1493846052873 -4.4161224  -13.181885  -2.795578
1493846052896 -4.0057983  -6.7393494  6.0021057
1493846052915 -5.8964386  -3.5996552  12.029556
1493846052935 -5.9370575  -6.037918 8.090393
1493846052955 -3.4402466  -9.971848 2.9486694
1493846052975 0.124923706 -12.307175  3.2398682
1493846052995 4.1761017 -14.061127  2.590393
1493846053014 5.649338  -13.761581  0.6077423
1493846053034 3.920639  -10.506973  -0.60913086
1493846053054 0.6639252 -7.9249268  0.98553467
1493846053074 -2.5695343  -7.870682 2.6486053
1493846053094 -4.7586975  -8.547607 1.0639801
1493846053113 -5.3930054  -9.175171 -0.28851318
1493846053133 -3.0218658  -9.031967 -0.15939331
1493846053153 0.06941223  -8.536163 -0.13224792
1493846053173 1.8026276 -8.490707 0.3622284
1493846053193 1.9029846 -9.125214 1.9910278
1493846053212 0.93548584  -9.914368 2.2107239
1493846053232 0.030166626 -10.1418915 0.2230835
1493846053249 -0.10095215 -10.420929  -1.9115906
1493846053272 -0.44491577 -11.087204  -1.6154785
1493846053289 -1.5579529  -11.575928  -1.1395264
1493846053309 -1.7247772  -12.170425  -1.8371582
1493846053329 0.7502136 -12.839493  -1.5042114
1493846053348 2.6981049 -13.156555  -2.0628815
1493846053368 3.279892  -13.559036  -4.501938
1493846053389 4.366287  -13.669159  -2.9977722
1493846053406 2.137558  -14.990204  -5.561081
1493846053426 -1.4814606  -14.91507 -4.331711
1493846053444 -2.577713 -13.694855  2.9382324
1493846053467 -4.0868073  -13.974197  11.025955
1493846053487 -7.9980927  -14.482086  9.068985
1493846053504 -10.529999  -15.52388 3.4021912
1493846053529 -7.6878967  -14.938278  -2.7211914
1493846053548 -2.0021973  -11.37999 -1.0027008
1493846053568 5.308716  -8.157471 2.4473114
1493846053588 5.724106  -8.041977 2.027237
1493846053627 1.2023315 -7.613205 -0.7428436
1493846053649 -1.6715546  -5.867569 1.0383759
1493846053666 -3.244339 -4.171921 2.0720673
1493846053687 -4.617584 -3.7663116  2.7268677
1493846053706 -4.6141815  -3.828125 3.9927063
1493846053731 -3.666092 -2.981247 4.4196167
1493846053747 -3.1804047  -1.4653625  4.321167
1493846053767 -2.7250519  -0.6524658  3.5505676
1493846053788 -2.4305878  -2.2465515  1.7231903
1493846053806 -1.6642609  -7.623871 -5.5625916
1493846053826 0.2788849 -16.504608  -18.881378
1493846053846 4.080139  -19.474823  -17.023163
1493846053866 4.0316467 -18.012405  -6.5158386
1493846053885 0.45188904  -11.321045  -4.2903595
1493846053905 -3.4623566  -6.867386 -1.2693634
1493846053925 -6.6340027  -10.421753  1.0929413
1493846053945 -4.168152 -11.650391  2.1454773
1493846053964 -0.006958008  -9.233139 1.9886627
1493846053984 -1.6409454  -7.0990906  2.053238
1493846054004 -5.3434296  -6.171036 7.069168
1493846054024 -5.947159 -7.358673 9.806473
1493846054044 -3.9886932  -9.51384  4.756836
1493846054063 -1.151886 -10.86644 2.2239685
1493846054083 3.107895  -11.327286  1.3893433
1493846054103 5.4625397 -11.839508  1.2091217
1493846054123 4.170044  -10.990936  0.7792511
1493846054143 1.5644379 -8.866211 1.0142212
1493846054162 -1.7081604  -8.349533 1.7068176
1493846054182 -3.7892303  -8.702072 0.8150482
1493846054202 -4.4819183  -9.092056 0.16030884
1493846054222 -3.6049957  -9.022354 0.9416504
1493846054242 -1.3987122  -8.324127 1.2078705
1493846054261 0.6525421 -7.978714 0.722641
1493846054280 1.697815  -8.732452 1.2710266
1493846054301 1.5696564 -9.556473 1.9251556
1493846054321 0.7225952 -9.573196 0.64152527
1493846054341 -0.05456543 -9.956177 -1.6118469
1493846054360 -0.77664185 -11.329575  -0.93492126
1493846054380 -1.4775085  -12.249481  0.5315399
1493846054400 -1.8404083  -12.610901  -0.35861206
1493846054420 -0.6786041  -13.093903  -1.9857635
1493846054439 1.1878662 -13.170029  -2.1773071
1493846054459 2.2427063 -13.419693  -3.3295288
1493846054479 4.4433594 -14.477707  -4.583008
1493846054499 4.916855  -14.287781  -3.8552246
1493846054519 0.6173096 -14.232315  -6.5024414
1493846054540 -2.6562195  -13.330536  -2.6835327
1493846054558 -3.452652 -12.803619  6.542221
1493846054578 -4.564621 -13.6480255 9.360367
1493846054599 -5.4559784  -13.242966  6.079773
1493846054618 -6.139206 -14.851639  2.5506744
1493846054637 -5.0952454  -14.9326935 -2.4000854
1493846054659 -0.4212494  -12.207733  -1.3276672
1493846054677 5.0767365 -9.309311 2.4879608
1493846054697 3.5007782 -8.679901 2.044098
1493846054718 -0.2856598  -7.2221375  0.09561157
1493846054756 -1.8665161  -5.5094147  2.503067
1493846054776 -3.4207916  -4.334427 2.5206451
1493846054796 -4.48468  -4.1622925  1.6890564
1493846054815 -3.8481445  -3.8687134  3.8729248
1493846054835 -3.9186401  -3.147583 3.9769897
1493846054853 -4.5246735  -1.5398865  3.5439148
1493846054875 -4.2260437  -1.4267578  2.5191345
1493846054895 -2.1315918  -3.7216034  0.4754486
1493846054914 0.13563538  -8.80397  -6.079712
1493846054934 2.2201538 -16.86438 -17.140167
1493846054954 3.6555939 -19.474823  -17.035828
1493846054974 5.739746  -17.879654  -5.282501
1493846054991 1.1632538 -10.538132  -4.9052887
1493846055014 -2.3372955  -8.012848 -2.1693726
1493846055033 -4.2531433  -12.020782  -1.0087738
1493846055053 -1.3880615  -14.030334  -1.9671631
1493846055073 -0.040771484  -10.921524  0.1065979
1493846055093 -4.1194 -5.4092712  2.7505035
1493846055112 -7.8866425  -3.355194 7.7790527
1493846055132 -7.396881 -5.5772247  10.112488
1493846055152 -4.4173737  -9.796463 3.661911
1493846055172 -0.99160767 -12.095734  2.118988
1493846055191 4.3160553 -12.86554 2.2607422
1493846055211 6.501999  -12.663895  1.8153687
1493846055231 4.2165833 -10.981812  0.6240082
1493846055251 1.0698853 -8.903702 0.9485321
1493846055271 -2.5109863  -8.749207 2.2583618
1493846055290 -4.737747 -9.0876465  1.0870514
1493846055310 -5.2527313  -8.976288 0.18766785
1493846055330 -3.6288757  -8.41777  1.0257568
1493846055350 -1.1175995  -8.14006  1.1864319
1493846055369 0.6650696 -8.718613 1.0199585
1493846055389 1.4626312 -9.462662 1.5245667
1493846055409 1.1648254 -10.00412 1.6190948
1493846055429 0.34716797  -10.425491  0.6520386
1493846055449 0.18553162  -10.612488  -1.0048523
1493846055469 0.87275696  -11.066483  -1.6989288
1493846055490 0.39814758  -11.229446  -1.1253815
1493846055508 -1.8683167  -11.217926  -1.4402161
1493846055528 -2.5219727  -11.763245  -1.6491852
1493846055549 0.11755371  -12.172394  -1.9910583
1493846055568 3.5350647 -13.447784  -3.2482605
1493846055587 6.568802  -14.500778  -1.7086334
1493846055609 3.3145294 -15.153275  -2.8190613
1493846055627 -3.063034 -14.702103  -5.6337433
1493846055645 -5.285614 -13.236618  1.3165283
1493846055669 -4.325424 -11.811554  8.166702
1493846055686 -6.686615 -12.4930725 7.780777
1493846055706 -7.868683 -14.560532  3.7963257
1493846055726 -7.5637054  -14.9770355 -0.56417847
1493846055746 -3.9840698  -12.51004 -0.9893799
1493846055765 1.3516846 -9.187592 1.2880249
1493846055785 5.4713287 -7.4258575  2.3136444
1493846055805 2.500122  -8.203217 1.3080139
1493846055825 -0.6341858  -7.4808044  -0.21894836
1493846055845 -2.4680634  -6.0526123  1.9758911
1493846055884 -3.908371 -5.124954 1.5071259
1493846055904 -4.2037354  -4.9500732  2.2608185
1493846055924 -4.138077 -4.489441 3.7008514
1493846055943 -3.868576 -2.5932465  3.8597717
1493846055962 -3.644577 -0.67855835 3.278534
1493846055983 -3.0907745  -0.82650757 1.5767822
1493846056003 -1.108963 -4.2631073  -0.26515198
1493846056023 1.59729 -10.984512  -8.30365
1493846056042 3.6012573 -19.474823  -18.698013
1493846056062 4.6477203 -19.346893  -15.859573
1493846056082 2.0657654 -17.032318  -7.8938446
1493846056102 0.9607849 -8.711502 -4.4731903
1493846056122 1.493866  -6.6768494  3.3845215
1493846056141 -1.7209473  -14.000305  2.8632507
1493846056161 -5.7962036  -15.7083435 -2.555359
1493846056181 -8.722488 -8.968887 -7.0194244
1493846056201 -7.037689 -3.8598938  11.724304
1493846056220 -6.7700653  -3.8035126  14.023834
1493846056240 -4.8187256  -7.757843 3.882141
1493846056260 -0.83613586 -10.932663  -0.25480652
1493846056280 3.53862 -12.391296  2.3982391
1493846056299 6.3504486 -13.623505  2.9566345
1493846056319 6.011612  -12.383972  0.2654419
1493846056339 3.1284485 -9.185379 -0.6678467
1493846056359 -0.4670105  -7.945465 1.8587952
1493846056379 -3.5877228  -8.386398 2.8695526
1493846056399 -5.690338 -8.773758 0.58976746
1493846056418 -6.278778 -9.2659 -0.6628723
1493846056438 -3.7626953  -9.230026 0.515625
1493846056460 -0.40315247 -8.999649 1.9914398
1493846056478 1.8592529 -9.179092 2.273941
1493846056498 2.6859436 -9.674713 1.6803589
1493846056519 1.9295349 -9.781387 -0.15977478
1493846056537 0.8003998 -9.788483 -1.8570557
1493846056557 0.105026245 -10.449951  -1.0249634
1493846056578 -0.863739 -11.887726  0.39743042
1493846056597 -1.9290466  -12.011307  -0.36576843
1493846056616 -1.2695465  -11.573212  -2.1350708
1493846056638 1.1298981 -11.776291  -1.3445435
1493846056656 2.6868744 -12.581421  -1.2595978
1493846056676 3.8572083 -13.945694  -2.9280853
1493846056695 5.1197357 -14.319962  -2.0132904
1493846056715 0.062820435 -14.573807  -5.3472595
1493846056735 -4.929062 -14.279434  -3.3400574
1493846056755 -5.4140625  -12.982025  5.0736237
1493846056775 -6.024887 -12.533524  9.5961
1493846056794 -8.952545 -12.621979  4.68869
1493846056814 -8.608566 -13.833099  -0.3648224
1493846056834 -6.0065002  -13.245605  -1.8901367
1493846056854 -1.4446869  -10.647369  0.4644165
1493846056874 3.3671265 -8.519501 2.4502106
1493846056893 4.272354  -7.9052734  3.6540985
1493846056913 1.2006836 -7.5972443  -0.028747559
1493846056933 -2.1255035  -6.953644 -0.53474426
1493846056953 -3.673294 -5.9960175  1.4442902
1493846056973 -4.4196625  -5.7098846  2.4371796
1493846056992 -3.6127472  -4.6310577  4.3243713
1493846057031 -2.7954102  -3.212143 4.1375732
1493846057052 -1.9858246  -1.027359 3.7289581
1493846057072 -1.5428314  -0.4762268  2.6175995
1493846057091 -0.89082336 -2.8765411  0.5731964
1493846057111 -0.83029175 -8.654449 -6.8839874
1493846057131 -1.3926849  -18.493347  -19.629745
1493846057151 3.250534  -19.474823  -17.478088
1493846057170 3.8464966 -18.240692  -7.5678406
1493846057190 1.0318756 -9.786148 -6.0850525
1493846057210 -0.117004395  -6.838028 0.86672974
1493846057230 -5.291916 -13.321182  4.012863
1493846057250 -6.251953 -14.173492  1.3538208
1493846057270 -6.4587708  -9.117157 -5.732773
1493846057289 -5.1253204  -3.5866852  9.087311
1493846057309 -4.6414185  -4.938263 12.243469
1493846057329 -2.5868378  -10.028656  4.9151917
1493846057349 0.37123108  -12.92131 1.8514557
1493846057370 2.9014282 -13.141388  3.2610474
1493846057388 3.975174  -12.178192  2.3175507
1493846057408 3.6898499 -10.400925  0.6438446
1493846057430 1.159378  -8.820709 0.9644623
1493846057448 -1.6743317  -8.672943 2.506134
1493846057468 -3.4111786  -8.931763 2.2483826
1493846057489 -4.1502075  -8.877747 0.4462738
1493846057507 -3.3862305  -8.659851 -0.08404541
1493846057527 -1.3273926  -8.458313 -0.14959717
1493846057548 0.37831116  -8.62767  -0.15066528
1493846057566 1.3203583 -9.32019  0.31826782
1493846057586 1.4852295 -10.211166  0.9946747
1493846057606 1.2953796 -10.290695  0.27694702
1493846057626 1.2291412 -9.981491 -0.9154663
1493846057645 -0.24266052 -10.675949  -0.35525513
1493846057663 -2.7658386  -11.359283  -0.43304443
1493846057685 -3.4115143  -11.807358  -1.9594269
1493846057705 -0.688385 -12.062225  -2.025299
1493846057725 2.8794098 -12.063278  -1.5780945
1493846057744 4.7046814 -12.595123  -3.4395752
1493846057764 6.5631866 -13.276672  -3.880844
1493846057784 4.5297394 -14.179047  -3.2088928
1493846057804 -1.2959137  -15.118027  -4.9081573
1493846057824 -5.833267 -14.840042  -1.3957367
1493846057843 -6.3137054  -13.727356  8.805969
1493846057863 -7.851715 -13.748352  9.005066
1493846057883 -8.997543 -14.629959  4.024414
1493846057903 -7.7611237  -14.922607  -0.4640808
1493846057922 -4.031555 -12.766251  -1.4476624
1493846057942 0.2935028 -9.570557 0.13374329
1493846057962 4.0867157 -7.4911804  2.6068726
1493846057982 2.6792603 -7.479706 3.3349915
1493846058002 -0.29161072 -6.881714 0.7757416
1493846058021 -2.6652222  -5.8887787  0.7997894
1493846058041 -3.562088 -4.601242 2.1457062
1493846058061 -4.142639 -4.004715 3.0335388
1493846058081 -4.4734344  -3.357544 4.3977356
1493846058101 -3.7142944  -1.9609985  4.2347107
1493846058120 -2.7762604  -0.68104553 3.4324188
1493846058159 -2.0825958  -2.109497 1.4786682
1493846058180 -1.3735657  -6.6475677  -4.0156097
1493846058200 -0.3361969  -14.994614  -17.2585
1493846058219 2.8858795 -19.474823  -18.990112
1493846058239 4.3724976 -18.999802  -7.537689
1493846058259 1.0473785 -12.690598  -6.8153687
1493846058279 0.69802856  -5.0834503  -1.19487
1493846058299 1.596756  -1.2598419  3.9491882
1493846058316 -3.6937866  -9.824066 3.907547
1493846058336 -5.6771545  -17.934586  -0.82292175
1493846058356 -4.747284 -16.891449  -10.212814
1493846058375 -4.914337 -8.352188 5.7201843
1493846058395 -4.9726715  -3.3738098  11.008453
1493846058415 -4.5389557  -5.005905 6.9577637
1493846058435 -1.8611298  -9.062317 2.1325378
1493846058455 0.2715912 -11.588516  3.0399017
1493846058474 3.4079285 -13.875092  4.1785736
1493846058494 4.4643707 -13.742081  1.7772522
1493846058514 2.3232574 -10.288086  -0.0617218
1493846058534 -0.56822205 -8.294479 1.4318848
1493846058556 -3.1324463  -8.310547 2.1910706
1493846058576 -4.442047 -8.545074 1.1229095
1493846058595 -4.377716 -8.794037 0.6256256
1493846058615 -2.253296 -8.990356 0.42599487
1493846058635 -0.087249756  -9.064011 0.14305115
1493846058655 0.723526  -8.827972 1.0202179
1493846058675 0.79634094  -8.904846 1.8578796
1493846058694 0.7998352 -9.992401 1.6126251
1493846058714 0.98579407  -10.92601 0.110183716
1493846058734 1.6792603 -10.697998  -1.8836975
1493846058754 1.2833252 -10.62085 -1.5513763
1493846058774 -0.5450897  -10.889893  0.0023498535
1493846058793 -1.6086273  -11.439835  -0.03555298
1493846058813 -0.914032 -12.007004  -0.2030487
1493846058833 0.17881775  -12.10701 -0.17668152
1493846058853 0.08920288  -12.688049  -1.736145
1493846058873 1.5549927 -13.570328  -3.4769745
1493846058892 3.4974823 -13.984802  -3.0390167
1493846058912 1.6957092 -14.301895  -4.7978363
1493846058932 -2.2111206  -14.114807  -4.351593
1493846058952 -5.09816  -13.193481  1.935257
1493846058971 -5.917816 -12.650253  9.60672
1493846058991 -8.002335 -12.097229  7.978531
1493846059011 -8.386322 -13.270676  1.9908752
1493846059063 -7.074997 -13.792496  -0.7234192
1493846059064 -3.410614 -11.934631  -1.0181427
1493846059067 1.3599701 -9.561722 0.7269287
1493846059084 5.0886536 -8.387665 4.339966
1493846059104 2.7531433 -8.160904 0.5435333
1493846059124 -0.432312 -6.91304  -1.4164734
1493846059143 -2.1705627  -5.8170166  1.3496552
1493846059163 -3.5065918  -4.7612457  2.192459
1493846059183 -4.0107117  -4.241516 3.2976074
1493846059202 -3.2743835  -3.3684845  4.162506
1493846059242 -2.4145813  -2.0618591  4.5314026
1493846059262 -1.8743134  -0.89819336 3.9804688
1493846059282 -1.3153381  -1.9194794  2.534027
1493846059302 -0.80529785 -5.575165 0.05886841
1493846059321 -1.7804413  -12.494888  -8.858444
1493846059341 2.2541351 -19.474823  -19.061035
1493846059363 7.8720093 -19.241577  -12.205917
1493846059385 4.263977  -16.511932  -5.618561
1493846059406 -0.2978363  -7.826309 -3.5424805
1493846059425 -0.7043762  -3.24057  1.6710052
1493846059442 -3.9691925  -8.338821 3.810028
1493846059466 -6.4147186  -16.608475  0.4117279
1493846059486 -4.4269104  -17.13031 -6.540695
1493846059506 -3.2868195  -9.884933 1.9121246
1493846059526 -3.2325134  -2.7566528  11.320847
1493846059546 -4.1778107  -3.074051 8.445663
1493846059565 -3.6445618  -8.187256 3.4640503
1493846059585 -1.7420502  -11.602417  2.832962
1493846059605 1.5370178 -12.906586  3.2469482
1493846059625 3.6733246 -13.286942  1.6595764
1493846059644 3.5525055 -11.261002  -0.7138977
1493846059665 1.5785217 -9.063583 -0.39678955
1493846059684 -1.2897186  -8.798523 1.8831024
1493846059704 -3.1552124  -8.939789 2.088211
1493846059724 -4.272476 -8.807053 1.2650146
1493846059743 -4.04628  -8.552109 1.3940887
1493846059763 -2.2154999  -8.612747 1.1130219
1493846059783 -0.064086914  -8.879669 0.9711151
1493846059803 1.1617737 -9.17366  1.3348541
1493846059822 1.269455  -9.252258 1.5587921
1493846059841 0.4762268 -9.426483 1.3426361
1493846059862 -0.2397461  -9.888138 0.087677
1493846059882 0.4527588 -10.408524  -1.2933044
1493846059902 0.86524963  -10.91655 -0.8128967
1493846059921 -0.2902527  -11.115845  -0.33702087
1493846059941 -0.9795685  -11.554031  -0.61849976
1493846059961 -0.25779724 -12.078781  -0.37774658
1493846059981 0.2632904 -12.543213  -1.1996765
1493846060001 1.4359894 -13.500427  -3.216751
1493846060021 3.8772888 -14.092041  -1.3647461
1493846060040 1.8117676 -14.068085  -2.1474304
1493846060060 -3.2407837  -14.575836  -6.261978
1493846060080 -6.221756 -14.07193 -2.2044525
1493846060100 -6.6888885  -12.713791  5.1194153
1493846060119 -7.9329376  -12.422287  9.788422
1493846060139 -10.399185  -11.968033  5.0138397
1493846060159 -8.486862 -12.392899  -0.048568726
1493846060179 -3.9240112  -11.584335  -1.4311218
1493846060199 -0.12666321 -9.984741 -0.5998993
1493846060220 4.350708  -8.468506 3.3657837
1493846060238 3.0650787 -8.263824 3.574707
1493846060258 -0.5624237  -7.2167664  -0.26226807
1493846060275 -3.6297607  -5.9270782  -0.15084839
1493846060299 -4.473404 -4.6798553  1.0415344
1493846060317 -4.467987 -4.06427  2.4413147
1493846060337 -3.6622772  -3.4132996  3.7135315
1493846060359 -2.300537 -2.399994 3.54216
1493846060377 -0.6508179  -1.6857605  3.1145477
1493846060397 -0.38679504 -2.5812073  2.08992
1493846060436 -0.8204956  -5.7623444  0.3009796
1493846060456 -0.055633545  -11.163788  -4.669693
1493846060476 2.8825989 -19.474823  -19.60817
1493846060496 5.284668  -19.474823  -19.189728
1493846060515 1.8376617 -18.828354  -9.5477295
1493846060535 0.7229767 -9.675415 -4.65036
1493846060555 -1.6857758  -3.256958 6.103546
1493846060575 -8.955948 -9.114319 9.378326
1493846060595 -8.991959 -12.745544  4.224121
1493846060614 -3.7888184  -11.738434  -14.170914
1493846060634 -1.4179077  -7.550171 4.143936
1493846060654 -1.1357422  -4.5001373  12.629211
1493846060674 -2.944687 -9.052551 9.302826
1493846060693 -1.296463 -12.234543  2.9546661
1493846060713 1.756424  -11.890244  2.1907196
1493846060733 2.6164093 -11.2677765 2.8448334
1493846060753 1.8947906 -10.789825  1.5018768
1493846060772 0.47392273  -9.917587 0.6107178
1493846060792 -1.9420471  -9.429459 1.5321198
1493846060812 -3.0249329  -8.990234 1.8901215
1493846060832 -3.2055664  -8.515228 0.5534363
1493846060852 -2.3962708  -8.123016 0.8790283
1493846060872 -1.1273651  -8.178726 1.1911774
1493846060891 -0.2036438  -8.780533 0.606308
1493846060911 0.5936279 -9.666855 0.71398926
1493846060931 1.1086273 -10.003662  1.0340576
1493846060951 1.0784454 -9.649811 0.18496704
1493846060970 1.0698547 -9.652557 -1.2998352
1493846060990 0.8645935 -10.609116  -0.6772156
1493846061010 -0.11897278 -11.208084  0.75387573
1493846061030 -1.3757172  -11.476349  -0.39892578
1493846061050 -0.9340973  -11.866547  -0.9137573
1493846061069 0.2548523 -12.354858  -0.7816925
1493846061089 1.3101501 -13.769638  -3.0012817
1493846061109 3.6541138 -14.549927  -2.7153168
1493846061129 1.3941193 -14.534485  -3.1491394
1493846061149 -4.145569 -14.888428  -4.7922974
1493846061170 -7.1102448  -14.568832  -0.64346313
1493846061189 -6.959961 -12.947784  5.866501
1493846061208 -7.3954773  -12.091446  7.680237
1493846061230 -7.941452 -12.372177  4.683487
1493846061248 -6.542801 -12.478363  0.10090637
1493846061268 -3.3747406  -11.20816 -1.8396606
1493846061289 0.44558716  -9.377167 -0.73513794
1493846061307 3.7591553 -8.118408 2.9521332
1493846061327 2.1246796 -7.729721 2.7536163
1493846061348 -0.7758484  -6.8596954  0.10145569
1493846061366 -3.0118713  -6.0808716  0.5463257
1493846061386 -3.743988 -5.203354 1.5733948
1493846061408 -3.8670197  -4.7006073  2.334015
1493846061426 -3.188614 -3.8259735  3.497116
1493846061446 -1.8822937  -2.335434 3.7558746
1493846061465 -0.9149475  -1.2443542  3.6795807
1493846061485 -0.5252991  -1.7525482  2.2844543
1493846061505 -0.646698 -4.518936 0.11138916
1493846061525 -0.5215149  -10.143982  -6.2860565
1493846061545 1.3276062 -19.333725  -19.518326
1493846061584 6.6444397 -19.474823  -19.689896
1493846061604 3.1200562 -19.086426  -9.212433
1493846061624 0.6600342 -9.620575 -4.714508
1493846061643 -0.8557892  -1.6915436  4.9668427
1493846061661 -7.9914856  -6.618164 7.7012634
1493846061683 -9.144714 -12.924988  3.7708588
1493846061703 -3.5430145  -13.884079  -12.758911
1493846061723 -0.60272217 -8.518051 5.192581
1493846061743 -0.8072357  -4.514084 11.916962
1493846061762 -4.3984833  -8.186478 9.736832
1493846061782 -4.3940735  -11.546631  2.7421112
1493846061802 -2.2620392  -11.683121  2.546051
1493846061822 0.9311371 -11.17424 3.8546295
1493846061841 3.7292938 -11.41951 1.6659241
1493846061861 3.5572662 -11.709381  -0.07312012
1493846061881 1.5629883 -10.417786  -0.20524597
1493846061901 -1.1003418  -9.377655 2.109253
1493846061921 -3.452652 -8.72789  1.5594635
1493846061940 -4.702759 -7.8842773  -0.0118255615
1493846061960 -4.168808 -7.3549194  0.5995636
1493846061980 -2.0764465  -7.5060883  0.89297485
1493846062000 -0.10360718 -8.292404 0.96525574
1493846062020 1.1204987 -8.945801 2.1007233
1493846062039 1.2261505 -9.160324 2.9156647
1493846062059 0.44662476  -9.252838 1.5455475
1493846062079 0.18107605  -9.725662 -1.4964905
1493846062099 0.5537262 -10.894165  -1.717453
1493846062119 -0.17793274 -11.824722  -0.011459351
1493846062140 -1.1437225  -12.263107  -0.16871643
1493846062158 -0.14172363 -12.70105 -0.67237854
1493846062178 1.0896759 -12.941071  -1.536438
1493846062200 0.8411102 -13.55336 -3.787445
1493846062218 2.5418243 -13.732544  -3.2814178
1493846062237 3.1071014 -13.596893  -2.646988
1493846062259 -1.1163635  -14.27182 -5.912567
1493846062277 -5.311737 -14.555191  -3.882309
1493846062297 -6.46817  -13.608871  4.2601166
1493846062318 -7.337158 -13.093445  9.777298
1493846062336 -9.152649 -13.304047  6.844513
1493846062356 -8.175812 -13.974365  1.0360413
1493846062376 -5.1244507  -13.11142 -2.021469
1493846062396 -1.0614471  -10.304413  -1.4741516
1493846062415 3.8856964 -8.0199585  0.94348145
1493846062435 4.19751 -7.84346  3.2144012
1493846062455 1.1377411 -7.1265106  0.20210266
1493846062475 -1.5653229  -5.7454987  -0.43537903
1493846062492 -3.183731 -4.652588 1.6670227
1493846062514 -4.229141 -4.140915 2.6032715
1493846062534 -4.16893  -3.583786 3.4312286
1493846062554 -2.9468384  -2.4643402  4.075287
1493846062574 -1.7816925  -1.2789764  4.0226593
1493846062594 -1.1730347  -1.1412048  3.027359
1493846062614 -0.99269104 -3.0148468  1.119339
1493846062633 -1.4432526  -7.1775513  -3.4474487
1493846062653 -0.87190247 -16.103424  -15.914673
1493846062673 8.066437  -19.380234  -19.619568
1493846062693 4.575821  -19.474823  -12.108398
1493846062732 2.0285492 -13.10701 -6.3560944
1493846062752 0.2428894 -2.3895416  1.5454254
1493846062772 -6.680786 -3.1612701  6.786133
1493846062792 -11.242584  -12.707779  6.6894684
1493846062811 -6.0034943  -16.583755  -2.0628662
1493846062831 -0.18119812 -13.535049  -6.8877716
1493846062851 0.23579407  -4.8696594  7.5473785
1493846062871 -2.646164 -2.3071442  14.797287
1493846062891 -6.700836 -7.783203 6.443619
1493846062910 -4.6056366  -11.186661  0.42095947
1493846062930 -1.0183105  -12.089813  2.581604
1493846062950 4.0916595 -12.29628 2.4813385
1493846062970 6.013504  -12.715973  1.6903992
1493846062989 3.2939758 -10.633423  0.10987854
1493846063009 -0.12640381 -8.629852 0.97294617
1493846063029 -3.527298 -8.583069 1.9982758
1493846063049 -5.049408 -8.363815 0.5870514
1493846063069 -4.7849274  -8.184021 0.7114868
1493846063088 -2.4594269  -8.394165 0.8314972
1493846063110 0.23562622  -9.046356 0.65878296
1493846063128 1.7529297 -9.305298 1.1163025
1493846063148 2.0587616 -9.085114 1.041748
1493846063169 1.2897491 -9.430725 0.84858704
1493846063188 0.11325073  -9.949478 0.014144897
1493846063205 0.027038574 -10.359146  -1.4037323
1493846063229 -0.033462524  -10.939606  -1.3063202
1493846063247 -0.7251587  -11.034073  -0.7718353
1493846063267 -0.61717224 -11.107941  -1.1392212
1493846063288 0.7163391 -11.172592  -1.0836792
1493846063306 0.93148804  -11.4639435 -2.9049988
1493846063323 1.0106049 -13.047226  -5.862091
1493846063342 2.8874207 -14.943466  -4.248764
1493846063362 1.147171  -16.229858  -4.062668
1493846063382 -3.2907867  -15.499512  -2.0386353
1493846063399 -5.355011 -14.230179  4.254715
1493846063419 -5.556137 -14.091736  8.666229
1493846063439 -6.1795197  -14.199554  6.4009857
1493846063458 -6.745941 -15.171631  2.2588348
1493846063478 -5.436798 -14.764236  -0.5428467
1493846063498 -1.9559937  -11.98468 -0.2355957
1493846063518 1.8789978 -9.0829315  0.9878845
1493846063538 2.1743774 -7.9293365  2.133194
1493846063557 0.25065613  -7.0105896  0.81884766
1493846063577 -1.5096741  -6.0129395  0.6845398
1493846063597 -2.6720734  -4.921768 1.1560974
1493846063617 -3.3802795  -4.332382 1.6589661
1493846063640 -3.5621643  -3.9764404  2.9652405
1493846063658 -3.5424957  -3.0897675  4.5944366
1493846063681 -3.3472137  -1.3398438  4.751602
1493846063701 -2.9658356  -0.40846252 3.9746704
1493846063724 -2.339325 -1.5694885  2.9193878
1493846063742 -0.60391235 -5.62175  -1.4789276
1493846063762 0.94210815  -14.967255  -14.643066
1493846063781 4.7952576 -19.215805  -19.448547
1493846063801 4.2101746 -19.474823  -7.033081
1493846063821 2.1953583 -13.52858 -4.353531
1493846063841 -0.08016968 -3.4152374  -1.4755554
1493846063861 -3.32547  -0.69047546 3.4519196
1493846063900 -8.362259 -10.13765 3.8843842
1493846063920 -5.102173 -16.564346  -1.7796936
1493846063940 -0.28105164 -13.919952  -6.9249725
1493846063959 -0.50097656 -6.003998 6.1148224
1493846063979 -3.7481232  -3.8815308  12.815216
1493846063999 -5.6136627  -7.437805 6.210266
1493846064019 -3.4415436  -10.770981  1.7993011
1493846064038 -0.5516968  -11.464249  3.8624725
1493846064055 3.4286346 -12.226883  3.8084564
1493846064074 5.136856  -12.68013 0.8751526
1493846064093 3.5596619 -10.42981 -0.7923889
1493846064112 0.40473938  -8.256653 1.2400513
1493846064136 -3.535736 -8.567871 1.970932
1493846064155 -5.524948 -8.687286 0.10958862
1493846064175 -5.4149933  -8.298676 -0.873291
1493846064195 -3.449112 -7.6660156  0.42668152
1493846064214 -1.9090729  -7.749893 1.9877625
1493846064235 -0.41732788 -8.730774 1.3594208
1493846064254 0.7694702 -9.796539 2.3847046
1493846064271 0.6636963 -9.995758 1.6422424
1493846064294 0.10827637  -9.695221 -0.62683105
1493846064313 0.3232727 -10.009933  -1.5167542
1493846064331 0.7179718 -11.200104  -0.27450562
1493846064354 -0.16488647 -12.192093  0.27394104
1493846064374 -1.2263184  -12.361343  -0.787323
1493846064394 -0.20851135 -12.37822 -1.4855499
1493846064414 1.516449  -12.391708  -1.4109192
1493846064433 2.58609 -13.059402  -2.321106
1493846064453 4.2697144 -14.015427  -2.3433685
1493846064473 4.6128845 -13.679062  -1.2189941
1493846064493 0.79377747  -13.369492  -3.4564514
1493846064513 -4.0804443  -13.5151825 -4.11969
1493846064532 -5.9917603  -12.630615  1.6155243
1493846064552 -6.777405 -12.276657  7.6271057
1493846064572 -7.9122467  -12.915405  8.468689
1493846064592 -7.6502686  -13.817932  4.4398346
1493846064612 -5.8483124  -13.73201 -1.2780762
1493846064631 -2.8559418  -12.101913  -2.0508423
1493846064651 1.547348  -10.0047455 1.0856018
1493846064671 4.045868  -8.977844 3.4182892
1493846064691 1.862381  -8.585266 1.1855316
1493846064711 -1.1094208  -7.441742 -0.20213318
1493846064730 -2.7886658  -6.2968903  2.0002441
1493846064750 -3.7372284  -5.169235 2.8637848
1493846064770 -4.1760864  -4.431946 3.737732
1493846064790 -3.8249054  -3.4078674  4.0341644
1493846064810 -2.9865723  -1.680481 3.8414001
1493846064829 -2.2389526  -0.39172363 3.812973
1493846064849 -1.5933838  -1.5623474  2.5692291
1493846064871 -0.9002228  -5.3259277  -0.85679626
1493846064890 -2.4545593  -12.760437  -12.700378
1493846064910 1.2596741 -18.92331 -19.192444
1493846064930 7.158432  -19.474823  -9.632187
1493846064949 3.9365387 -15.754196  -7.185791
1493846064969 1.0458984 -5.9467316  -2.6554565
1493846064989 0.37324524  1.6688995 4.009918
1493846065009 -7.83313  -6.596863 3.8045197
1493846065050 -9.816559 -17.080841  4.8689575
1493846065068 -2.9415894  -18.38527 -14.716431
1493846065088 -0.55908203 -9.886688 3.396164
1493846065109 -0.6984863  -3.2240448  12.01741
1493846065128 -3.700119 -5.240967 11.435577
1493846065147 -4.658249 -11.017334  1.5928497
1493846065169 -2.5874329  -12.009552  1.0241394
1493846065187 1.2668762 -11.838379  3.889923
1493846065207 4.7109985 -11.978073  2.8551178
1493846065228 3.449829  -11.842545  -0.15180969
1493846065246 1.1319275 -9.765625 0.008468628
1493846065266 -2.6054688  -9.338425 2.338852
1493846065286 -5.0871124  -8.719162 1.1735077
1493846065306 -5.610138 -7.67865  -0.24182129
1493846065325 -4.0083466  -7.6289215  -0.11882019
1493846065345 -1.5438538  -7.9869843  0.9125061
1493846065365 -0.026855469  -8.183685 1.4671478
1493846065385 0.6069946 -8.350433 2.3131714
1493846065405 0.28451538  -9.081741 2.5604248
1493846065424 -0.19432068 -9.707733 1.732132
1493846065444 -0.53497314 -9.811829 -0.34065247
1493846065464 -0.3907013  -10.253296  -1.789154
1493846065484 -0.5144348  -11.40654 -0.95687866
1493846065503 -1.8146057  -11.574173  -0.6496887
1493846065523 -2.5457764  -10.990723  -1.7079315
1493846065543 -1.0185852  -11.316757  -0.83995056
1493846065563 0.62550354  -12.012558  -0.09855652
1493846065583 1.4526215 -13.608566  -1.8153839
1493846065602 3.2742767 -15.223862  -2.1202545
1493846065622 3.627716  -14.989273  -2.8138123
1493846065643 0.53926086  -13.927673  -5.228607
1493846065658 -2.1383972  -12.868576  -2.0363922
1493846065682 -3.1184235  -11.850204  4.1930237
1493846065701 -5.746399 -12.929367  7.768875
1493846065721 -8.03833  -14.254105  7.333267
1493846065741 -7.3936157  -13.865555  4.1636505
1493846065761 -4.060959 -12.263214  -0.44628906
1493846065781 -0.12521362 -10.145691  -1.0093994
1493846065800 3.5814362 -8.667892 1.2475891
1493846065820 4.4501343 -8.747345 2.9192505
1493846065840 1.952774  -8.259964 1.5083313
1493846065860 -1.5838013  -7.0736847  0.7218628
1493846065880 -3.9772797  -6.030487 1.887207
1493846065899 -4.526306 -5.268799 2.5575256
1493846065919 -4.1043396  -4.8460693  3.544159
1493846065939 -2.7735138  -3.581726 3.2330322
1493846065959 -2.2022705  -1.9418335  3.2398682
1493846065979 -2.563614 -1.783905 3.2434692
1493846066000 -2.5470123  -3.4084625  1.8782349
1493846066018 -2.3479004  -8.802933 -4.36911
1493846066038 -2.6517944  -17.461472  -17.208801
1493846066060 5.203415  -19.378662  -19.626053
1493846066078 8.244858  -19.474823  -4.186737
1493846066097 3.431778  -10.774612  -4.0077057
1493846066119 0.7246704 -3.2639618  0.8116455
1493846066137 -4.5539093  -5.340576 0.15058899
1493846066157 -7.798172 -16.275116  0.9503784
1493846066196 -3.115738 -17.946793  -3.632248
1493846066216 -2.6279602  -9.904358 -0.5992279
1493846066236 -3.4795532  -1.951767 7.5628204
1493846066256 -5.626602 -2.1974945  14.264175
1493846066276 -6.198227 -8.901001 4.930786
1493846066295 -4.1938934  -12.66333 0.8723755
1493846066315 -0.4162445  -12.704056  2.6228027
1493846066335 4.821213  -12.255646  3.5283203
1493846066355 6.591049  -11.738342  1.7584381
1493846066374 4.045685  -10.393204  -0.7486725
1493846066394 0.92852783  -8.938812 0.9591217
1493846066414 -2.8069305  -8.972473 2.8370972
1493846066434 -5.398529 -8.934311 0.8717346
1493846066454 -6.6098785  -8.661438 0.0064086914
1493846066473 -5.2138824  -7.9308014  0.5387573
1493846066493 -1.915741 -7.8771057  1.0790253
1493846066513 0.5800781 -8.6822815  1.2851257
1493846066533 1.3808441 -9.492691 2.0890808
1493846066553 0.71035767  -9.565964 1.4411926
1493846066572 0.03314209  -9.741959 0.018234253
1493846066592 -0.16929626 -10.399994  -0.8269501
1493846066612 0.3619995 -10.9216  -1.2378998
1493846066632 0.0155181885  -11.185974  -0.2919464
1493846066652 -1.5898895  -11.075577  -0.17463684
1493846066671 -1.7164917  -11.2313385 -0.79571533
1493846066691 -0.21575928 -11.453262  -0.09661865
1493846066711 0.9337921 -12.475647  -0.6281433
1493846066731 2.1521301 -14.308289  -1.2285919
1493846066751 3.2380066 -14.884674  -0.7521515
1493846066770 0.54592896  -14.295654  -3.8269043
1493846066790 -3.8618011  -13.512924  -4.6459045
1493846066810 -4.8756256  -11.895554  1.2868958
1493846066830 -4.3349915  -10.815033  6.3209534
1493846066850 -4.5234222  -11.114883  5.635727
1493846066869 -4.843521 -12.679474  2.0578613
1493846066889 -4.467697 -13.834137  0.50660706
1493846066909 -2.5200043  -12.962082  0.9615021
1493846066929 0.44406128  -10.813644  1.8892059
1493846066949 2.8243408 -9.247696 2.790329
1493846066970 1.8065186 -8.733704 1.7854309
1493846066988 -0.41932678 -7.763138 0.16777039
1493846067008 -2.1138 -6.781372 0.8482208
1493846067030 -3.2530518  -6.0025177  1.3153229
1493846067048 -3.7167816  -5.672516 1.3051147
1493846067067 -3.5246582  -5.0710297  2.3689423
1493846067089 -2.7337952  -3.8009949  3.166504
1493846067107 -2.695343 -2.3068237  3.354828
1493846067127 -3.1566467  -1.9069672  3.1535797
1493846067148 -2.5254822  -3.4916382  1.477356
1493846067166 -1.4536896  -7.604843 -3.1942596
1493846067184 -1.1601715  -15.378708  -14.450043
1493846067208 5.482559  -19.162003  -17.764542
1493846067226 6.5078583 -19.474823  -7.8067017
1493846067245 3.663437  -12.630905  -4.605011
1493846067265 0.52571106  -8.192993 -2.6572113
1493846067285 -1.6117401  -6.6091156  -0.51934814
1493846067309 -6.1752167  -12.987442  -1.38414
1493846067344 -5.1110535  -15.415329  -0.43356323
1493846067364 -1.1064606  -13.340927  -4.913925
1493846067384 -2.646225 -7.823532 1.8924255
1493846067404 -4.792618 -3.1865082  9.100006
1493846067424 -7.205475 -4.879959 8.788544
1493846067443 -5.9676666  -9.937347 2.0872345
1493846067463 -2.094284 -11.466248  1.4841309
1493846067483 2.9748993 -11.7827  3.288971
1493846067503 7.022644  -12.474625  2.574524
1493846067523 5.1913757 -12.500732  -0.19908142
1493846067542 2.7263184 -9.926926 -0.30389404
1493846067562 -1.0407715  -8.794296 2.5288086
1493846067582 -3.8813934  -8.503494 2.2446594
1493846067602 -5.412384 -8.6141815  0.12768555
1493846067621 -4.951645 -8.655136 -0.054092407
1493846067641 -2.537262 -8.497589 1.2434235
1493846067659 -0.31900024 -8.529541 1.6568451
1493846067681 1.075882  -9.041153 2.0492706
1493846067701 1.0508423 -9.838913 2.7337494
1493846067721 0.5281677 -9.803558 0.42781067
1493846067740 0.16445923  -9.561905 -1.8379669
1493846067760 -0.56547546 -10.29718 -1.2671051
1493846067780 -2.1229706  -11.048309  0.3597412
1493846067800 -3.558731 -10.813309  -0.55574036
1493846067819 -3.14122  -10.453537  -1.5686493
1493846067839 -1.1476593  -10.680084  -0.5398407
1493846067859 0.6170654 -11.376236  0.16571045
1493846067879 2.0078735 -12.593338  -0.5427246
1493846067899 2.855072  -13.642181  -0.83358765
