accelerometer_timestamp accelerometer_x_data  accelerometer_y_data  accelerometer_z_data
1493846177063 -3.8595886  1.5189667 8.779938
1493846177063 -3.4320526  2.589508  6.4788666
1493846177069 -2.2380524  3.370819  7.761032
1493846177088 -1.2430725  3.6865082 9.474426
1493846177107 -1.8955994  2.5225983 10.18309
1493846177127 -3.1670532  2.1108856 9.121353
1493846177147 -3.0240173  2.585846  7.6663666
1493846177168 -2.0844116  3.2498016 7.396164
1493846177186 -0.88038635 3.6147156 8.173569
1493846177206 -1.3409576  2.8941956 11.001541
1493846177226 -2.7421112  1.4313049 13.228775
1493846177245 -3.6432648  1.0289307 12.482742
1493846177265 -3.0922394  2.1855927 9.238983
1493846177285 -1.4940186  3.4333954 6.577194
1493846177305 0.8271332 3.1904907 6.6377716
1493846177325 0.1259613 1.5596771 9.115936
1493846177345 -1.7803955  0.92381287  11.617783
1493846177365 -0.3713379  1.727829  9.579559
1493846177384 0.7815399 2.4552612 5.4476624
1493846177404 -0.832428 2.2991638 6.7193756
1493846177424 -3.047226 1.4490356 11.716095
1493846177444 -1.1888885  0.7472992 11.925491
1493846177463 -0.16775513 1.8638306 10.68663
1493846177483 -0.45256042 2.857544  9.492386
1493846177503 -1.4833221  2.809494  8.065033
1493846177523 -1.6582184  2.3074036 8.150589
1493846177543 -0.53305054 2.6811829 8.768173
1493846177562 -0.18019104 3.239685  9.084473
1493846177582 -0.4272461  3.2797089 9.465607
1493846177602 -1.1550446  2.9515686 9.293259
1493846177622 -2.3247375  1.8357697 9.587662
1493846177642 -2.4231567  1.5387421 9.88768
1493846177661 -0.82925415 3.2034302 8.453384
1493846177681 -0.41122437 4.0816956 7.6718445
1493846177700 -1.4039917  2.9815826 8.957016
1493846177720 -2.9087067  2.195572  9.775131
1493846177740 -2.401474 2.7894287 9.048798
1493846177760 -0.90283203 3.7590637 8.634399
1493846177780 -0.5719147  3.793579  7.644928
1493846177800 -0.7364044  3.4906158 6.7690277
1493846177824 -1.2563934  2.2276154 6.494873
1493846177881 -1.7893219  0.37139893  5.8987274
1493846177881 -1.6996002  -0.050308228  7.221588
1493846177881 -0.9309387  -1.6588898  8.716049
1493846177899 -0.6872101  -3.910202 5.620407
1493846177919 -2.6839142  -7.85997  2.9088593
1493846177938 -6.1279297  -10.700043  -2.4572144
1493846177958 0.16363525  -1.8875885  2.060913
1493846177978 1.3216095 -1.9881897  9.496536
1493846178017 -0.41862488 -11.225464  7.996582
1493846178037 2.5627136 -9.658203 6.188919
1493846178057 4.276352  -11.013565  1.9577179
1493846178077 6.4595184 -14.82402 0.4528656
1493846178097 10.171097 -15.697388  -2.8050537
1493846178116 14.080612 -16.33574 -4.8178864
1493846178136 15.9466095  -17.283264  -2.1430054
1493846178156 18.243988 -17.46811 0.7548065
1493846178176 19.461044 -17.369019  3.7169952
1493846178196 19.461044 -16.670227  11.847717
1493846178216 19.461044 -14.003433  19.277008
1493846178235 19.461044 -12.194107  18.482925
1493846178255 19.461044 -10.43129 13.826553
1493846178275 19.461044 -8.197891 6.1874237
1493846178295 18.345245 -8.268036 -1.9845428
1493846178315 15.000977 -6.165222 -3.729248
1493846178334 15.233551 -1.9292603  2.7579803
1493846178354 14.732269 -0.8983917  -6.5335083
1493846178374 10.942627 -2.8783875  -2.9264069
1493846178394 11.722336 -3.4323883  1.0025177
1493846178413 6.1267853 -6.2250824  -0.58662415
1493846178433 2.794464  -6.8434296  4.6278687
1493846178453 2.8691864 -4.4826355  4.7346344
1493846178472 3.0466766 -3.3599854  4.07045
1493846178492 3.2947388 -3.0591888  4.979492
1493846178512 0.7406006 -3.6268158  3.4881134
1493846178532 -0.7801819  -3.7179413  1.614914
1493846178552 0.7319031 -2.5062714  0.5413666
1493846178571 4.081436  -1.5311737  -0.5229492
1493846178595 7.1731567 -2.526825 -0.29467773
1493846178611 9.632706  -3.9068756  1.0672607
1493846178631 11.112289 -5.1057587  1.7184906
1493846178651 11.056747 -6.6351013  1.6397858
1493846178671 9.107681  -8.612213 0.26809692
1493846178691 8.572754  -10.856155  0.27908325
1493846178710 11.05275  -11.001572  2.5088043
1493846178730 10.7617035  -10.786774  2.551056
1493846178751 7.4283905 -10.324493  1.0091858
1493846178770 8.783524  -7.172241 1.9259186
1493846178789 9.449448  -4.1907654  -0.8412781
1493846178809 10.846008 -4.979889 2.1561584
1493846178829 8.78035 -3.7075043  -0.79447937
1493846178848 7.5826263 -1.949295 -1.353775
1493846178868 5.6161804 -0.9683533  -0.52059937
1493846178888 5.1071167 -0.09089661 0.64356995
1493846178908 5.1136627 -0.585968 1.5709991
1493846178928 6.128723  -0.17311096 1.3957672
1493846178947 5.4466095 -0.8272095  0.5910034
1493846178967 5.255066  -2.1238403  0.03036499
1493846178987 5.3262024 -2.2971191  0.5469818
1493846179007 3.5149994 -6.114029 1.9544525
1493846179026 -4.1664886  1.3527222 -2.391693
1493846179046 4.283493  -13.901184  4.101761
1493846179066 1.554306  -9.730591 2.708191
1493846179086 18.875793 -7.150131 6.792511
1493846179106 12.807083 -13.8684845 -2.6022491
1493846179145 6.3475647 -16.789871  -0.4588623
1493846179165 7.6860504 -11.280228  1.7722931
1493846179185 7.1686554 -5.266815 0.97891235
1493846179205 8.445984  -7.8876953  0.87475586
1493846179224 5.1161804 -8.776733 1.1855164
1493846179244 4.2323914 -7.9341736  0.61105347
1493846179264 8.233582  -6.3575897  -2.8233795
1493846179284 7.188446  -9.946793 -2.815216
1493846179304 8.428406  -6.3660126  5.826172
1493846179323 8.414459  -8.358582 1.779007
1493846179343 3.1274261 -9.593246 0.011917114
1493846179363 2.702179  -8.70401  5.2306976
1493846179383 5.7126465 -2.1187744  -2.4662018
1493846179403 1.5625458 0.28819275  -4.821869
1493846179422 3.1338806 -3.3352356  0.24682617
1493846179442 11.851181 -11.5117035 0.31756592
1493846179462 11.087769 -14.27739 7.518509
1493846179482 1.5652466 -2.9866638  -2.8418121
1493846179502 -6.6296844  0.6343231 -4.3493195
1493846179521 -1.4428558  0.32717896  -0.9316101
1493846179541 1.9476471 -4.1643677  3.5322113
1493846179561 1.0247192 -15.586594  3.5628662
1493846179581 2.1170044 -19.474823  -0.71095276
1493846179600 6.839493  -17.392685  -2.5809937
1493846179620 9.836899  -14.432053  -0.8339844
1493846179640 8.613525  -16.713882  2.616623
1493846179660 4.990143  -14.017746  1.0357361
1493846179680 -1.7764587  -9.666885 2.2938995
1493846179699 -4.686493 -10.61113 3.4976807
1493846179719 -2.9823608  -8.2660675  1.3341217
1493846179739 -3.1174316  -5.7074738  1.284668
1493846179759 -3.7196503  -3.5546875  1.4854279
1493846179779 -2.0115356  -4.8520203  -0.7462311
1493846179799 1.0445709 -8.457565 -4.9586334
1493846179818 1.4260864 -12.676102  -8.996109
1493846179838 3.2924805 -15.210892  -10.724808
1493846179858 5.661072  -14.404892  -7.3204346
1493846179878 4.9771576 -12.34877 -4.4387665
1493846179898 1.9516907 -9.912415 -0.6713104
1493846179917 -0.9344635  -7.3290863  -0.410141
1493846179937 -0.9880371  -5.0206146  -0.74505615
1493846179957 -0.58503723 -5.034973 0.40075684
1493846179977 -2.243637 -10.465942  1.7383881
1493846179996 -1.4451141  -16.276459  -4.536545
1493846180016 -0.005645752  -16.134384  -2.9557037
1493846180036 -0.5501251  -10.689224  6.465332
1493846180056 -1.9819031  -5.5280914  4.833374
1493846180076 -2.5509949  -5.4853363  2.33049
1493846180095 0.13705444  -9.190933 2.4468384
1493846180115 2.482605  -12.219391  3.041916
1493846180135 4.3644104 -12.363403  2.909912
1493846180155 2.7979126 -11.003418  1.977005
1493846180175 -0.6994324  -9.977386 1.3342896
1493846180194 -2.0009155  -9.518539 1.1766815
1493846180214 -2.577423 -9.530426 0.5878296
1493846180234 -2.0787964  -9.325073 -0.3466339
1493846180254 -0.66555786 -9.565445 -0.073394775
1493846180294 -0.18153381 -9.859619 -0.28092957
1493846201295 0.2597351 -9.640472 -0.4342804
1493846201295 0.40063477  -8.762192 0.3282013
1493846201295 -0.3065033  -8.401337 1.8978577
1493846201295 -0.99250793 -8.51207  1.8109131
1493846201295 0.18437195  -9.00737  1.2841492
1493846201295 1.4059601 -10.071716  1.7302094
1493846201295 1.5157471 -10.650162  1.8312378
1493846201295 1.2431183 -10.732834  1.2303467
1493846201295 1.1562042 -10.838684  0.72262573
1493846201295 1.0702362 -11.301712  -0.5975647
1493846201295 1.4250183 -11.776993  -1.4820557
1493846201295 2.5670776 -11.900391  -1.395874
1493846201295 3.0906525 -12.015411  -0.89738464
1493846201295 2.7942963 -12.936447  -1.5766296
1493846201295 3.5845032 -14.340744  -1.2809753
1493846201295 2.511795  -13.729431  -1.8487244
1493846201296 0.5385132 -12.897476  -4.286545
1493846201296 0.44444275  -12.117996  -3.7202759
1493846201296 1.5274506 -10.962891  2.0907898
1493846201296 1.0629578 -10.933243  5.324066
1493846201296 -1.1527557  -14.02417 5.3990784
1493846201296 -2.1076355  -16.207657  4.3366547
1493846201296 -1.2792206  -15.372101  2.6289368
1493846201296 1.3958282 -12.365448  1.5341797
1493846201296 4.066025  -10.7769165 1.8144226
1493846201296 4.578903  -10.429062  1.0345764
1493846201296 3.184143  -9.401871 1.3743134
1493846201296 1.4108429 -8.641281 1.7012787
1493846201296 -0.57336426 -7.931473 2.1227112
1493846201296 -1.9820251  -7.0106964  2.3081512
1493846201296 -3.095993 -6.30809  2.4141693
1493846201296 -2.8921356  -4.9873962  2.6339264
1493846201296 -2.8126068  -3.7711487  2.4261475
1493846201296 -3.57518  -3.0537262  2.3509674
1493846201296 -3.1478271  -3.215454 2.2154083
1493846201296 -0.5493469  -5.6895447  0.22547913
1493846201296 0.8079529 -9.52121  -3.726822
1493846201296 0.39764404  -14.18718 -12.283096
1493846201296 6.6919403 -17.680588  -18.474014
1493846201296 11.738663 -15.215942  -7.349777
1493846201296 7.3311768 -9.440689 -0.44828796
1493846201296 3.5265045 -5.35672  -0.17066956
1493846201296 2.7521973 -4.398941 1.562561
1493846201296 -0.5326996  -12.001968  1.0438232
1493846201296 -1.6902008  -17.969131  0.2434082
1493846201296 -1.7147827  -18.451035  -14.337189
1493846201296 -5.3383636  -8.571625 4.021332
1493846201296 -11.857727  -2.9188995  6.551758
1493846201296 -9.040894 -4.8784485  5.2183685
1493846201296 -0.58351135 -8.001816 4.456436
1493846201296 5.1090393 -12.44957 3.4117584
1493846201297 13.007782 -15.755066  1.4138031
1493846201297 8.525574  -14.62233 -0.7943573
1493846201297 1.2914581 -9.3754425  0.28892517
1493846201297 -3.021408 -6.9774017  3.256424
1493846201297 -5.2729645  -7.201523 1.6871796
1493846201297 -5.2094116  -8.425415 0.3103485
1493846201297 -2.7334595  -9.327255 0.91482544
1493846201297 -0.5088501  -9.921219 0.5955658
1493846201297 0.8938751 -9.811188 -0.22285461
1493846201297 1.0065002 -8.971329 0.68463135
1493846201297 0.13745117  -8.063568 1.4683685
1493846201297 0.22483826  -8.221985 2.5359955
1493846201297 0.97673035  -9.89122  2.9203644
1493846201297 1.8461456 -11.370819  -0.4187622
1493846201297 1.611969  -11.360626  -3.354889
1493846201297 0.168396  -12.287628  -0.99916077
1493846201297 -0.9556427  -13.037018  -1.1645966
1493846201297 1.3989258 -12.615601  -2.727951
1493846201297 4.073059  -12.391403  -2.8289337
1493846201298 5.219284  -13.569138  -1.3665009
1493846201298 6.703964  -15.9049225 -1.4966125
1493846201298 1.8241882 -15.740952  -4.345642
1493846201298 -3.774475 -14.067505  -1.9476013
1493846201298 -4.585037 -12.048737  2.5614777
1493846201298 -2.216034 -11.291077  6.663513
1493846201298 -1.7632141  -12.776901  3.141388
1493846201298 -2.250473 -15.958176  0.7111511
1493846201298 -3.1307983  -16.398651  0.7110443
1493846201298 -1.0212097  -13.341858  1.4554901
1493846201298 1.8858337 -10.346207  2.0849152
1493846201298 1.9752808 -8.922089 1.3180084
1493846201298 -0.036376953  -7.596939 1.4197693
1493846201298 -1.6377869  -6.667206 2.3339996
1493846201298 -2.909439 -5.435623 2.5593262
1493846201298 -3.6901245  -4.2268066  1.8976288
1493846201298 -3.6678925  -3.6345673  1.9644928
1493846201298 -2.9930573  -3.0036774  2.149887
1493846201298 -2.7255554  -1.5868835  2.5373077
1493846201298 -2.4238586  -0.9202728  2.6836853
1493846201298 -1.2954559  -2.849823 1.5275116
1493846201298 0.7597046 -7.798889 -3.4360046
1493846201298 5.0290527 -15.815491  -14.371048
1493846201298 9.780533  -19.474823  -18.504898
1493846201298 7.2281647 -15.083115  -9.420578
1493846201298 0.15510559  -6.5855865  -3.273819
1493846201299 -2.6081543  -2.4045258  0.6126709
1493846201299 -4.666748 -10.732895  0.7424164
1493846201299 -1.3198547  -16.394638  -1.8211212
1493846201299 3.5506897 -14.248215  -1.9814758
1493846201299 0.016479492 -7.8638306  3.2667847
1493846201299 -7.209717 -5.785248 4.9746704
1493846201299 -5.306305 -7.812973 5.4896393
1493846201299 -0.3147583  -9.566956 4.458908
1493846201299 2.884781  -11.644012  2.2186127
1493846201299 6.327362  -11.8745575 2.4357147
1493846201299 3.0415344 -11.517578  1.1582336
1493846201299 -0.8372803  -9.268799 0.5058136
1493846201299 -2.8189087  -8.144592 1.7085724
1493846201299 -2.1062775  -8.699142 0.7416992
1493846201299 -1.0494232  -9.271011 0.1515503
1493846201299 -0.3610077  -9.422272 -0.5353546
1493846201299 0.21195984  -9.007416 -0.26675415
1493846201299 0.6582947 -8.892181 -0.7229309
1493846201299 1.6128387 -8.26062  2.1331787
1493846201299 1.7954865 -9.232071 2.3126068
1493846201299 1.2631073 -10.160614  3.229004
1493846201299 -0.46765137 -10.540909  0.35920715
1493846201299 -0.7907257  -10.510071  -3.090805
1493846201300 -0.5779114  -11.025284  -1.2995758
1493846201300 -0.0046844482 -11.539978  -0.50346375
1493846201300 2.585495  -12.492767  -1.1194763
1493846201300 5.887375  -13.500122  -1.5324707
1493846201300 5.641556  -13.562027  -2.4680328
1493846201300 4.3835754 -14.237396  -2.4660187
1493846201300 2.9402466 -15.250824  -3.0320587
1493846201300 -0.37254333 -16.064377  -5.1313934
1493846201300 -4.9350433  -14.225342  -1.1077728
1493846201300 -5.8624725  -11.826218  7.6748962
1493846201300 -5.6438904  -11.426605  7.8708344
1493846201300 -5.0302277  -13.231552  0.11671448
1493846201300 -4.40831  -16.002136  -1.859436
1493846201300 -1.3236084  -13.442917  -0.64756775
1493846201300 3.0224457 -9.776978 2.1857147
1493846201300 4.289734  -8.7608795  1.6719971
1493846201300 1.559555  -8.643341 0.9929199
1493846201300 -0.2456665  -7.749481 1.7023926
1493846201300 -2.14859  -6.444977 2.6928406
1493846201300 -3.3460846  -4.109741 2.9902802
1493846201300 -3.6480255  -2.1534424  2.8797607
1493846201300 -3.1036987  -1.5610657  2.251999
1493846201300 -2.874115 -1.2131348  2.4261475
1493846201300 -2.8769531  -1.6193085  2.915451
1493846201300 -1.7964935  -4.041092 2.1388702
1493846201300 0.30897522  -9.420761 -3.8881073
1493846201301 3.1735535 -16.443878  -14.668518
1493846201301 7.368622  -19.474823  -14.1549835
1493846201301 5.494446  -14.570267  -8.712265
1493846201301 0.061050415 -6.6419067  -4.593399
1493846201301 -1.0764313  -3.5746307  2.9293823
1493846201301 -3.541977 -10.988739  4.9890747
1493846201301 -3.4748383  -17.396606  -3.4741516
1493846201301 0.5052185 -14.75296 -2.9334106
1493846201301 -2.1675415  -8.29567  6.2960205
1493846201301 -6.7895966  -6.6086273  6.77861
1493846201301 -4.232483 -8.040115 6.4807434
1493846201301 -0.14916992 -9.882706 5.156021
1493846201301 3.945984  -11.129776  3.914688
1493846201301 6.3417206 -12.571182  2.3155518
1493846201301 2.7208405 -11.814392  -0.22584534
1493846201301 -1.2541962  -9.434387 1.289505
1493846201301 -3.0286255  -7.908722 1.2797852
1493846201301 -2.5590363  -7.7899017  0.80888367
1493846201301 -1.5461884  -8.226135 0.8167877
1493846201301 -0.542511 -8.926575 0.13627625
1493846201301 0.09397888  -8.802429 0.29026794
1493846201301 -0.07571411 -8.358383 0.5238495
1493846201301 0.8280029 -8.982544 1.3320465
1493846201301 1.326355  -10.599976  1.8427277
1493846201301 1.7633209 -10.808304  -0.65574646
1493846201301 3.2263184 -10.520157  -1.9119568
1493846201301 3.1187134 -11.910812  -1.2936401
1493846201302 0.43547058  -12.435364  -1.0010834
1493846201302 -1.2775879  -12.282059  -3.342865
1493846201302 3.3276672 -12.534088  -2.2219086
1493846201302 5.307495  -12.396408  -1.6044617
1493846201302 3.8552399 -13.722549  -3.9138947
1493846201302 5.772171  -14.543869  -1.4056396
1493846201302 1.8804169 -15.650482  -4.261612
1493846201302 -4.6903687  -14.8285675 -1.2127075
1493846201302 -6.2393494  -13.241547  4.993103
1493846201302 -4.0996246  -13.063812  7.295105
1493846201302 -2.6426544  -14.813614  2.5750885
1493846201302 -3.361435 -17.283524  0.078063965
1493846201302 -2.7583313  -16.042892  -0.35162354
1493846201302 1.3351135 -11.271469  1.2076111
1493846201302 4.337723  -9.279129 1.1603699
1493846201302 2.39328 -9.065414 1.2041016
1493846201302 0.08908081  -8.002396 2.6074524
1493846201302 -1.7669373  -6.2494354  3.7117157
1493846201302 -3.141922 -4.296707 3.6003876
1493846201302 -3.7330627  -3.0549164  2.7729645
1493846201302 -3.2225952  -2.5909882  3.0437012
1493846201302 -2.7786407  -1.9943542  2.9533844
1493846201302 -3.8279266  -1.0234528  3.3863678
1493846201302 -3.9539185  -1.6487427  3.1667633
1493846201302 -2.1218872  -5.385437 -0.43084717
1493846201302 2.0806732 -13.488052  -11.299683
1493846201302 5.857483  -19.472351  -19.722397
1493846201303 6.2623444 -18.119324  -12.968826
1493846201303 3.0628357 -11.213516  -4.4184875
1493846201303 0.32829285  -3.6677704  -0.24598694
1493846201303 -0.6102295  -7.7850494  4.4101257
1493846201303 -1.4359741  -15.578766  -0.069488525
1493846201303 -2.9708557  -16.009476  -8.834885
1493846201303 -4.5690765  -8.314102 4.2370605
1493846201303 -7.133209 -3.6747437  8.549103
1493846201303 -4.727127 -7.142685 5.7368927
1493846201303 0.037857056 -11.5486145 4.7975616
1493846201303 6.24852 -13.057388  2.7923584
1493846201303 8.75647 -12.743912  2.2725067
1493846201303 3.5684814 -10.870987  -0.68130493
1493846201303 -2.1116943  -8.749908 0.8920746
1493846201303 -4.5338745  -7.95195  1.5389404
1493846201303 -4.5077667  -8.1658325  0.8166809
1493846201303 -2.3316956  -8.510056 0.6475067
1493846201303 -0.58917236 -9.097641 -0.13174438
1493846201303 0.89604187  -9.361664 -0.54966736
1493846201303 1.0617828 -8.487686 0.7746887
1493846201303 0.35757446  -7.9532776  2.0491638
1493846201303 -0.19918823 -9.643005 1.1026459
1493846201303 0.93096924  -11.568558  0.60194397
1493846201303 2.0056  -11.101685  -1.6870575
1493846201303 2.2949219 -10.972336  -1.6104126
1493846201303 0.43330383  -11.942108  -0.23786926
1493846201304 -1.8692017  -11.8020935 -1.7189331
1493846201304 0.58670044  -12.425842  -2.5332947
1493846201304 4.862213  -12.372116  -1.1933594
1493846201304 4.1988373 -12.356247  -3.0904846
1493846201304 5.87619 -13.453918  -2.0972137
1493846201304 3.879242  -15.240616  -3.1191254
1493846201304 -1.186966 -15.221497  -3.8042297
1493846201304 -4.9332733  -13.281876  0.5462799
1493846201304 -4.415497 -11.716095  8.820877
1493846201304 -5.351486 -13.9266815 6.351959
1493846201304 -4.7946625  -17.824524  1.1262817
1493846201304 -4.7076263  -17.522934  -0.7751007
1493846201304 -0.560379 -11.995941  0.07977295
1493846201304 4.114929  -8.929367 1.467041
1493846201304 4.541916  -9.204971 -0.18623352
1493846201304 1.4806366 -8.603302 1.5661469
1493846201304 -0.85435486 -7.3067474  3.3793182
1493846201304 -2.990326 -5.25235  4.0397797
1493846201304 -4.045456 -3.7053986  2.9858704
1493846201304 -3.5560303  -2.970047 3.141632
1493846201304 -2.8413544  -2.9678955  2.5856628
1493846201304 -3.3618927  -2.0848846  2.8903656
1493846201304 -4.108719 -1.051239 2.9582977
1493846201305 -3.1522217  -3.0487518  1.4927673
1493846201305 -1.2866058  -7.8260193  -3.6415405
1493846201305 1.052887  -14.808411  -13.345978
1493846201305 6.131714  -19.474823  -19.379929
1493846201305 7.4925537 -16.24681 -13.609833
1493846201305 2.2515564 -8.135834 -4.359207
1493846201305 0.1711731 -3.286728 1.3691711
1493846201305 -1.174408 -10.111481  1.7797089
1493846201305 -1.410492 -18.164078  -1.1468964
1493846201305 -2.1858215  -16.776108  -6.694702
1493846201305 -4.1181793  -8.326706 3.4574127
1493846201305 -8.269272 -2.882492 10.412964
1493846201305 -8.061539 -6.003128 6.1884766
1493846201305 -1.7721558  -10.144104  6.057785
1493846201305 3.7334442 -13.402527  4.595047
1493846201305 8.327698  -14.280701  2.1375732
1493846201305 5.6562195 -11.946899  -0.8751221
1493846201305 0.12831116  -9.032166 0.9282837
1493846201305 -2.958908 -8.064468 1.5929565
1493846201305 -2.9810944  -8.228195 1.2490997
1493846201305 -1.257431 -8.606155 0.92189026
1493846201305 -0.1729126  -8.767654 0.3352356
1493846201305 0.2780609 -8.340897 0.2601776
1493846201305 0.4817047 -8.06044  0.5758972
1493846201305 0.8229523 -8.613174 0.8934479
1493846201305 1.1252747 -10.24054 1.4953461
1493846201306 1.1799622 -10.860519  0.24653625
1493846201306 1.3933716 -10.332672  -2.2728271
1493846201306 1.7299805 -10.376419  -1.5771637
1493846201306 -0.1945343  -11.244675  0.20289612
1493846201306 -1.8114014  -11.663269  -0.53634644
1493846201306 0.33818054  -12.205704  -0.640152
1493846201306 2.9677277 -12.321686  0.04272461
1493846201306 2.5238953 -13.019043  -2.2260742
1493846201306 5.638321  -14.789383  -3.0511017
1493846201306 6.4007874 -15.190094  -1.5325012
1493846201306 0.8821869 -14.82019 -6.2352448
1493846201306 -4.0098877  -14.439529  -2.0447388
1493846201306 -5.940857 -12.056137  5.0088196
1493846201306 -6.3714905  -11.635941  10.293274
1493846201306 -5.2593536  -13.054565  3.0732422
1493846201306 -4.169174 -15.955704  -1.6497803
1493846201306 -1.7290344  -14.572098  -2.292923
1493846201306 2.8052979 -10.83905 1.3552704
1493846201306 5.1217346 -9.796921 1.6561127
1493846201306 2.4199219 -9.846176 1.2563324
1493846201306 -0.124420166  -9.098175 1.8343048
1493846201306 -2.3937225  -7.322174 3.0674896
1493846201306 -3.8485413  -4.5407257  2.9129791
1493846201306 -4.7700043  -3.274109 2.6824799
1493846201306 -3.9989471  -2.4394684  2.6111755
1493846201306 -2.852188 -1.9881439  2.9365082
1493846201306 -2.5859528  -1.090271 3.2268524
1493846201306 -2.5955963  -1.8035126  2.7159271
1493846201307 -1.188324 -5.573944 0.22288513
1493846201307 1.757721  -11.759476  -6.7000885
1493846201307 4.149109  -17.895706  -16.47406
1493846201307 3.481781  -18.491669  -16.238876
1493846201307 2.215973  -13.309692  -7.007416
1493846201307 1.719635  -7.069092 -1.6794128
1493846201307 1.257431  -5.726486 -2.0084991
1493846201307 0.36894226  -6.9130707  1.3364105
1493846201307 -0.32643127 -12.546539  5.1185913
1493846201307 -2.4698792  -18.127533  -3.8072662
1493846201307 -5.33226  -15.440796  -7.0404816
1493846201307 -6.4432373  -8.183304 4.9411163
1493846201307 -5.8584747  -4.4746246  9.204514
1493846201307 -1.5415344  -4.8902435  6.625885
1493846201307 3.8734741 -8.993591 5.2934875
1493846201307 6.4618683 -12.812912  3.7889252
1493846201307 3.8151855 -13.238205  1.2721405
1493846201307 -1.2443237  -10.444687  0.4143219
1493846201307 -3.9976654  -8.124481 0.8995819
1493846201307 -2.656433 -7.9491577  1.3456268
1493846201307 -0.15942383 -8.480972 1.5908661
1493846201307 0.54026794  -8.813797 1.4459381
1493846201307 -0.30130005 -9.098251 1.3826599
1493846201307 -1.3124237  -8.990829 1.6580658
1493846201307 -0.8032379  -8.638748 1.9228363
1493846201308 0.6953888 -9.012421 1.4559479
1493846201308 1.4538727 -10.335327  1.3366852
1493846201308 1.2124176 -11.365097  0.1088562
1493846201308 1.1295319 -11.241241  -1.379425
1493846201308 1.1363525 -11.27388 -1.3136749
1493846201308 0.6256256 -11.547424  -0.6963806
1493846201308 1.2474823 -11.898209  -0.21957397
1493846201308 2.9707184 -12.097824  0.6195526
1493846201308 2.513977  -12.423813  -0.22662354
1493846201308 0.36715698  -12.811615  -2.545578
1493846201308 3.2519379 -13.541 -3.4116821
1493846201308 3.9168243 -14.390015  -2.578003
1493846201308 0.5668793 -14.498215  -4.7236786
1493846201308 -4.765167 -14.047302  -2.677353
1493846201308 -6.822586 -11.956726  4.296921
1493846201308 -6.3078003  -11.926895  9.929764
1493846201308 -5.7279816  -13.058105  2.118042
1493846201308 -5.676544 -15.421005  -1.9628448
1493846201308 -3.740036 -14.309814  -1.846283
1493846201308 1.497345  -10.42363 0.68717957
1493846201308 4.5189667 -8.497635 2.524887
1493846201308 1.6932068 -8.291107 1.6517792
1493846201308 -0.57995605 -7.7173004  0.46266174
1493846201308 -2.010498 -6.863983 1.6851044
1493846201308 -2.862732 -5.0650177  1.8807526
1493846201308 -3.6516266  -3.891159 2.295807
1493846201308 -3.0208588  -2.9796753  2.5481262
1493846201309 -2.1425018  -2.6868134  2.961914
1493846201309 -1.4646759  -1.7433167  3.3153992
1493846201309 -1.1422424  -1.9498138  2.6996002
1493846201309 -0.44030762 -4.725281 1.4519653
1493846201309 1.1419525 -10.000366  -6.2070007
1493846201309 3.2180023 -16.480896  -18.74591
1493846201309 4.8988647 -19.474823  -13.564453
1493846201309 4.7631683 -17.098038  -3.7829285
1493846201309 -0.08151245 -10.575775  -7.517517
1493846201309 -0.065826416  -4.75708  -1.7665558
1493846201309 -4.25 -4.802704 7.3613586
1493846201309 -10.12265 -11.065063  2.8008423
1493846201309 -3.5836945  -15.251068  -4.722412
1493846201309 3.0664825 -12.666611  -0.110687256
1493846201309 0.3668518 -7.1516113  7.9470673
1493846201309 -2.7732697  -6.6561584  3.388382
1493846201309 0.0053253174  -8.883591 3.7254333
1493846201309 2.086258  -10.873383  4.0142517
1493846201309 2.0584412 -10.979202  2.2625275
1493846201309 0.30926514  -10.718155  1.3369904
1493846201309 -0.97724915 -10.269226  1.4042816
1493846201309 -1.2317657  -9.379059 1.4637909
1493846201309 -0.78305054 -8.654434 1.2679596
1493846201309 0.01828003  -8.693298 1.3997803
1493846201309 0.2950287 -8.74588  1.720871
1493846201309 0.26506042  -9.032288 1.0834045
1493846201309 -0.067337036  -9.014847 1.0423431
1493846201310 0.73646545  -9.223984 1.2589264
1493846201310 1.6612549 -10.228027  1.0526123
1493846201310 1.4330444 -10.538254  0.33314514
1493846201310 1.2266693 -10.182922  -2.3250885
1493846201310 2.4934845 -10.305206  -1.4694977
1493846201310 2.9375  -11.181641  1.3750458
1493846201310 0.58110046  -11.446762  -0.7466583
1493846201310 0.02017212  -11.771622  -2.156845
1493846201310 2.2674255 -11.841156  -0.45669556
1493846201310 2.8723145 -12.517044  -1.194046
1493846201310 4.466278  -14.807739  -1.8604126
1493846201310 3.4062042 -15.775238  -1.4879761
1493846201310 -3.674347 -15.0312805 -6.4947968
1493846201310 -8.211624 -14.201675  -2.4351044
1493846201310 -8.6813965  -11.406265  5.245636
1493846201310 -6.5604553  -11.981171  10.36235
1493846201310 -5.1081696  -13.14653 0.48025513
1493846201310 -5.519272 -15.276276  -2.696167
1493846201310 -3.1569977  -13.879395  -1.3075409
1493846201310 1.3081512 -9.9783325  2.0226746
1493846201310 2.6154327 -8.913406 2.5586853
1493846201310 0.50450134  -8.860535 1.4230499
1493846201310 -1.5926056  -7.869034 1.018158
1493846201310 -2.0286255  -6.0524445  1.9859161
1493846201310 -2.7906342  -4.6717834  1.5792999
1493846201310 -3.0299377  -2.8516998  2.119049
1493846201311 -2.4312134  -2.102188 2.4609222
1493846201311 -0.7699127  -2.5016022  2.85289
1493846201311 0.32318115  -1.9436646  3.134674
1493846201311 0.33781433  -2.9411926  2.0201874
1493846201311 0.98291016  -6.471573 -1.3205719
1493846201311 3.7496796 -12.990067  -9.988754
1493846201311 7.144806  -19.474823  -19.66333
1493846201311 4.9085693 -17.719604  -15.165375
1493846201311 0.85861206  -11.656296  -4.1047516
1493846201311 -2.124588 -5.994217 -0.84217834
1493846201311 -5.153122 -4.327011 3.7288208
1493846201311 -8.834503 -8.363266 7.1204834
1493846201311 -6.435623 -13.765137  -0.97514343
1493846201311 1.160614  -15.820999  -5.0411377
1493846201311 2.4539337 -13.467804  2.125183
1493846201311 -1.167923 -7.5964813  6.559799
1493846201311 -3.2695618  -5.9307556  3.0942688
1493846201311 -0.6200104  -7.897812 5.4105988
1493846201311 2.024704  -11.104614  5.6326904
1493846201311 2.8302307 -11.944321  2.1719666
1493846201311 1.7970581 -11.262039  0.20806885
1493846201311 0.2459259 -9.884705 1.2574615
1493846201311 -0.6322632  -9.035492 2.1548767
1493846201312 -0.6082306  -8.761734 1.5219727
1493846201312 -0.36221313 -8.732315 0.76065063
1493846201312 -0.5417633  -8.730057 1.5784149
1493846201312 -0.4750061  -9.0125885  1.654068
1493846201312 -0.04197693 -9.312973 1.5658569
1493846201312 1.1699982 -9.881851 1.3702698
1493846201312 2.208191  -10.44136 1.3908234
1493846201312 1.8112793 -10.009949  0.37928772
1493846201312 1.121582  -10.069412  -1.2745972
1493846201312 1.8379669 -10.951309  -0.77464294
1493846201312 1.8981781 -11.654037  0.53681946
1493846201312 0.6573639 -11.753082  -0.5860901
1493846201312 0.74349976  -12.057709  -0.78086853
1493846201312 1.7333221 -12.276749  -0.59957886
1493846201312 1.3192596 -12.002258  -2.5657654
1493846201312 1.7522583 -12.944351  -5.5645447
1493846201312 5.5545044 -14.178925  -2.8415527
1493846201312 1.8045654 -13.921967  -5.4561615
1493846201312 -3.1812134  -13.475494  -3.4210968
1493846201312 -4.3167725  -12.318741  3.9934082
1493846201312 -4.8899994  -12.334778  8.563156
1493846201312 -5.007614 -14.532181  5.4520416
1493846201312 -5.89505  -17.117126  0.4013214
1493846201312 -5.347473 -16.020325  -2.5703125
1493846201312 0.80718994  -11.340637  -0.3195343
1493846201312 4.5310516 -9.36554  -0.4920044
1493846201312 3.3281097 -8.9479065  0.71855164
1493846201313 0.23558044  -8.553879 0.7381897
1493846201313 -2.3398743  -6.750061 2.978653
1493846201313 -4.7401733  -4.3694153  2.777954
1493846201313 -5.763031 -2.8717194  2.920166
1493846201313 -4.278412 -2.7808533  2.3792114
1493846201313 -2.0800781  -2.9252625  2.4457397
1493846201313 -1.7507935  -2.081665 2.9915466
1493846201313 -1.4452362  -1.6137085  2.6371613
1493846201313 0.21409607  -3.6049347  0.8336792
1493846201313 2.7102203 -8.685043 -4.204254
1493846201313 4.1377106 -15.61525 -13.495163
1493846201313 6.613373  -19.474823  -17.27806
1493846201313 6.9995575 -17.062622  -8.715622
1493846201313 1.972168  -8.692642 -3.2439117
1493846201313 -1.8652039  -3.4615936  3.063797
1493846201313 -5.170471 -6.6544952  9.2435
1493846201313 -7.196457 -14.112518  -2.3473053
1493846201313 -3.1802063  -15.20134 -5.2332
1493846201313 -0.88101196 -10.249191  9.151978
1493846201313 -3.918457 -6.4053802  7.200363
1493846201313 -3.3045044  -7.4682007  3.9787292
1493846201313 0.7448273 -10.02504 4.755066
1493846201313 2.9707947 -11.388962  4.4695435
1493846201313 3.482193  -11.504501  1.6501007
1493846201313 1.8457794 -10.87706 0.06010437
1493846201313 0.31892395  -9.331451 0.9765167
1493846201314 -0.7993469  -8.576553 1.2229004
1493846201314 -0.77124023 -8.525024 0.4507599
1493846201314 -0.03477478 -8.675674 0.21372986
1493846201314 0.17897034  -8.8641205  0.3018036
1493846201314 -0.3248291  -9.082596 0.7422943
1493846201314 -0.84887695 -9.075607 1.1462708
1493846201314 -0.28811646 -9.1527405  1.5456238
1493846201314 0.41627502  -10.003052  1.8112946
1493846201314 0.35424805  -10.524353  -0.16612244
1493846201314 0.7090912 -10.57608 -2.2210083
1493846201314 1.9367218 -11.83934 -1.4027252
1493846201314 1.7193146 -12.537201  -0.38279724
1493846201314 0.9137573 -12.11615 -2.064209
1493846201314 2.5802002 -12.117844  -1.7429352
1493846201314 3.0643158 -11.986954  -1.1043396
1493846201314 1.6667786 -12.937103  -3.8072205
1493846201314 4.118393  -14.1285095 -2.1073914
1493846201314 2.8854523 -15.132385  -2.9368591
1493846201314 -2.6177979  -14.61113 -3.0325317
1493846201314 -6.6154327  -12.86467 1.3624573
1493846201314 -6.7516174  -11.896866  8.318359
1493846201314 -7.17717  -13.108154  4.397522
1493846201314 -5.389389 -15.441254  0.24603271
1493846201314 -4.395584 -15.73996 -1.7664642
1493846201314 0.30778503  -12.310547  0.14286804
1493846201314 4.454193  -9.151108 1.7733154
1493846201314 3.2880707 -9.349884 1.2814789
1493846201314 0.5841675 -8.5035095  0.8950043
1493846201315 -1.4393005  -7.4234314  1.8988495
1493846201315 -3.9763184  -5.7962036  3.2402802
1493846201315 -4.506851 -4.355728 2.6192627
1493846201315 -3.832306 -3.0467224  2.9268951
1493846201315 -1.7320099  -2.4838104  2.6920624
1493846201315 -1.4219818  -1.8325043  2.5878296
1493846201315 -1.6336975  -1.2588654  2.3555603
1493846201315 -0.9757538  -3.1202393  0.92707825
1493846201315 0.67411804  -7.4055786  -3.869278
1493846201315 1.1372986 -14.030487  -14.228378
1493846201315 5.712982  -19.474823  -17.354599
1493846201315 8.321365  -17.702087  -7.8914185
1493846201315 1.2184143 -9.978409 -5.456833
1493846201315 -3.0282135  -5.9776 -0.8534088
1493846201315 -4.9409485  -10.725052  5.2216034
1493846201315 -2.8024902  -13.903275  2.1683502
1493846201315 -2.2386932  -11.587158  -4.903427
1493846201315 -2.636917 -8.089539 5.1891327
1493846201315 -5.2562256  -6.7252655  8.447449
1493846201315 -2.5989685  -8.95697  3.1629333
1493846201315 0.603302  -10.516388  3.9470978
1493846201315 2.4687958 -10.670441  4.2720795
1493846201315 3.9512177 -10.873825  2.718567
1493846201315 2.927124  -10.907822  0.8226013
1493846201315 0.6561432 -9.881897 1.0263824
1493846201315 -1.55896  -9.091293 1.5220032
1493846201315 -2.4664917  -8.927734 1.0431519
1493846201316 -1.8598938  -8.821365 1.0342255
1493846201316 -0.77516174 -8.897186 0.5166626
1493846201316 -0.4423828  -8.945587 0.17108154
1493846201316 -0.27453613 -8.842026 0.6457672
1493846201316 0.49310303  -9.104782 1.024765
1493846201316 1.4566956 -9.997208 1.1113129
1493846201316 1.658905  -10.215042  0.39091492
1493846201316 1.5434723 -9.991196 -1.5697327
1493846201316 2.1034698 -10.542908  -1.4839783
1493846201316 1.1105652 -11.477875  -0.2962799
1493846201316 -1.0328522  -11.689926  -1.7895813
1493846201316 0.555603  -11.857681  -2.019699
1493846201316 3.304306  -11.942276  -0.81822205
1493846201316 2.5604706 -12.524582  -2.642044
1493846201316 4.4732056 -14.452179  -2.3107605
1493846201316 4.138611  -16.05368 -3.8977356
1493846201316 -1.0383759  -15.479065  -3.487671
1493846201316 -5.1963806  -13.63298 1.7220154
1493846201316 -5.8470154  -12.521118  6.35672
1493846201316 -6.0211945  -13.494736  5.0867767
1493846201316 -5.330414 -15.23848 1.8643188
1493846201316 -4.6514435  -15.850006  -0.8406677
1493846201316 -1.8105621  -13.28035 -0.25543213
1493846201316 2.7466583 -9.996368 0.642395
1493846201316 3.7283325 -9.294968 0.99850464
1493846201316 0.8538208 -8.75769  2.2704773
1493846201316 -1.6672211  -7.867096 2.6449738
1493846201317 -3.0404358  -5.601471 3.7574768
1493846201317 -4.5618286  -3.9393616  2.7559052
1493846201317 -4.64534  -2.969452 3.2988586
1493846201317 -2.9501038  -2.455597 2.8555145
1493846201317 -2.3277588  -1.9772186  3.005249
1493846201317 -2.6894073  -0.35853577 3.3384857
1493846201317 -2.2488098  -1.4425049  2.2881012
1493846201317 0.7348938 -5.977249 -3.015854
1493846201317 2.3733215 -13.804596  -18.151764
1493846201317 2.3048248 -19.474823  -17.662323
1493846201317 6.334381  -17.834137  -5.365143
1493846201317 1.2496796 -8.517166 -3.5648193
1493846201317 -3.2262115  -6.006531 -2.177002
1493846201317 -4.74234  -14.672104  -1.0224762
1493846201317 0.1253357 -15.393936  0.120391846
1493846201317 -1.579483 -9.346619 0.75061035
1493846201317 -4.722992 -3.984192 3.7026672
1493846201317 -6.799347 -3.8621063  8.832077
1493846201317 -2.2263489  -8.4670105  4.3181305
1493846201317 2.85141 -12.400925  4.4932556
1493846201317 5.1345215 -13.216751  2.3876953
1493846201317 5.7993774 -11.61261 1.0506134
1493846201317 1.9117432 -9.947174 0.21235657
1493846201317 -1.7436981  -8.452179 1.358841
1493846201318 -2.9179993  -8.394318 1.9058838
1493846201318 -2.5027313  -8.625931 1.0194397
1493846201318 -1.2315063  -8.642334 0.60531616
1493846201318 -0.6783142  -8.729523 0.5732422
1493846201318 -0.5779419  -8.948441 0.7333374
1493846201318 -0.49279785 -8.970047 1.0198975
1493846201318 0.41270447  -9.165634 1.3578033
1493846201318 1.4983368 -10.200806  0.82614136
1493846201318 2.0997467 -10.932922  -0.55856323
1493846201318 2.8877716 -10.905365  -1.552536
1493846201318 2.4936523 -11.522751  -1.0080719
1493846201318 -0.42144775 -12.109207  -0.8148804
1493846201318 -2.31221  -12.082626  -2.0928192
1493846201318 0.12709045  -11.955124  -1.5559692
1493846201318 2.3120575 -11.639465  -0.30419922
1493846201318 2.232315  -12.318512  -1.7358704
1493846201318 4.3813477 -14.076767  -1.634018
1493846201318 4.806534  -14.34198 -1.0162659
1493846201318 -0.31159973 -14.062881  -5.1210938
1493846201318 -4.177704 -13.696915  -2.5751038
1493846201318 -4.558731 -12.003845  5.026413
1493846201318 -5.673218 -12.673782  9.124954
1493846201318 -5.355789 -14.184525  4.766327
1493846201318 -5.1888123  -16.276337  -1.3576355
1493846201318 -2.134369 -14.307983  -3.153473
1493846201318 2.412033  -10.555771  0.9795227
1493846201318 5.3871  -9.813797 0.18971252
1493846201318 2.9333038 -9.192108 1.0512543
1493846201318 0.5041504 -8.280594 1.6704865
1493846201318 -2.2042236  -6.8124084  3.0727234
1493846201318 -3.9286652  -4.488373 2.7867584
1493846201318 -4.2314453  -3.403656 3.0371704
1493846201318 -3.6159363  -3.502365 2.916809
1493846201318 -2.528473 -3.0547485  2.5186615
1493846201318 -3.0409393  -1.5745392  2.6805878
1493846201318 -3.385666 -1.0406494  2.6082458
1493846201318 -2.6852875  -3.35466  1.136261
1493846201318 0.085128784 -8.830994 -3.7141876
1493846201318 1.7973328 -16.245422  -14.953857
1493846201318 5.9813843 -19.474823  -18.668121
1493846201319 7.1644135 -18.09494 -8.971848
1493846201319 1.3737488 -7.4061584  -3.5571136
1493846201319 -1.1542053  -2.9339447  -0.091674805
1493846201319 -2.6007996  -9.623962 4.0714264
1493846201319 -0.22224426 -18.52655 -1.5290222
1493846201319 -0.23913574 -15.176895  -4.9893646
1493846201319 -4.047867 -6.301651 2.9594421
1493846201319 -7.3045807  -4.128662 9.404358
1493846201319 -4.9400635  -8.182541 5.2614136
1493846201319 0.2084198 -10.58548 4.361313
1493846201319 2.4498596 -11.583221  3.0649567
1493846201319 4.0799103 -11.181305  1.877655
1493846201319 1.5161438 -11.211975  0.760376
1493846201319 -1.2740479  -9.409454 0.88845825
1493846201319 -2.1854248  -8.438553 1.4817352
1493846201319 -1.3440094  -8.599686 0.93074036
1493846201319 -0.15576172 -8.707291 0.8513794
1493846201319 0.18017578  -8.598541 0.65496826
1493846201319 -0.2904358  -9.026947 -0.077178955
1493846201319 -0.4359436  -9.514389 -0.06852722
1493846201319 0.020568848 -9.37323  0.8555145
1493846201319 0.6027527 -9.832535 0.95783997
1493846201319 0.9673462 -10.888153  -0.06932068
1493846201319 2.2252197 -10.984909  -1.385788
1493846201319 3.4577484 -11.250641  -1.3333282
1493846201319 1.723877  -11.728729  -0.76615906
1493846201319 -0.97994995 -11.713257  -1.7449493
1493846201319 0.0803833 -11.9006195 -1.7909088
1493846201319 1.9204407 -12.27269 -1.1178894
1493846201319 2.625229  -13.828369  -2.547104
1493846201319 4.995682  -15.031158  -0.79904175
1493846201319 3.3514252 -14.926575  -2.5121765
1493846201319 -2.0042267  -14.267639  -3.7687378
1493846201319 -4.9035645  -12.576721  0.60380554
1493846201319 -5.1315765  -11.75264 6.909607
1493846201319 -4.736206 -13.083908  5.7649536
1493846201319 -4.7141724  -15.83931 1.1352844
1493846201319 -4.2274933  -15.878189  -1.4458618
1493846201319 -0.45262146 -12.13208 0.1927948
1493846201319 3.686386  -9.477295 1.4921417
1493846201319 3.5438385 -9.336441 0.591156
1493846201319 2.0072937 -8.614334 1.9319153
1493846201320 -0.7815552  -7.7374573  2.8844147
1493846201320 -2.6917114  -5.520981 3.2065582
1493846201320 -3.9789276  -4.1473083  3.0988464
1493846201320 -3.7661438  -3.4878998  3.2554626
1493846201320 -3.1683655  -3.3271484  2.8180237
1493846201320 -3.232193 -2.0519867  3.3900146
1493846201320 -4.2786865  -0.6871643  3.481247
1493846201320 -3.6398468  -2.253952 1.6664581
1493846201320 -0.52368164 -6.97641  -2.7791443
1493846201320 2.7209167 -15.068268  -18.09729
1493846201320 6.001999  -19.474823  -19.198486
1493846201320 6.254242  -18.980133  -6.045334
1493846201320 1.5904388 -9.890091 -5.0906677
1493846201320 0.047927856 -4.0184326  -4.2033386
1493846201320 2.3695984 -1.3340912  0.7029877
1493846201320 -4.900299 -10.950943  7.278595
1493846201320 -5.6043396  -19.071777  -0.34223938
1493846201320 0.45802307  -17.428696  -13.6202545
1493846201320 -0.06411743 -6.005493 8.418503
1493846201320 -5.8591766  -2.7449493  7.4485474
1493846201320 -1.8414459  -6.287277 6.638504
1493846201320 2.3343964 -11.511612  2.8975677
1493846201320 3.545288  -13.223755  3.0408325
1493846201320 2.5606232 -12.461487  1.8724823
1493846201320 -0.06820679 -10.138489  1.3378143
1493846201320 -2.654129 -8.355408 1.5457916
1493846201320 -2.3919983  -8.03627  1.6939545
1493846201320 -0.8303528  -8.454712 1.6456146
1493846201320 -0.3076477  -8.684235 1.4709625
1493846201320 -0.80856323 -8.767838 0.9035492
1493846201320 -1.3671417  -8.849365 0.18626404
1493846201320 -1.0674591  -8.785004 0.746109
1493846201320 -0.06324768 -9.023651 0.7277527
1493846201320 0.75720215  -10.355896  0.5109558
1493846201320 1.4506683 -11.667877  -0.2363739
1493846201320 2.5968933 -11.497025  -1.5539551
1493846201320 3.0054169 -11.247421  -1.1961975
1493846201320 1.2196198 -11.527115  -1.0319214
1493846201320 0.1129303 -11.7464905 -1.7640991
1493846201320 1.6259003 -12.048859  -1.6609344
1493846201320 2.06427 -12.154068  -1.907486
1493846201320 1.5870209 -12.599335  -3.754776
1493846201321 3.0960388 -14.270721  -3.4929504
1493846201321 2.5460968 -15.3710785 -3.2441711
1493846201321 -1.5484924  -14.259048  -2.5915222
1493846201321 -4.1241455  -12.91655 3.7039642
1493846201321 -4.765991 -13.302811  7.481735
1493846201321 -5.086075 -14.652969  4.362915
1493846201321 -5.1884155  -16.742142  0.42230225
1493846201321 -3.7411652  -16.208542  -0.6674652
1493846201321 0.78248596  -11.360138  1.0331116
1493846201321 4.447693  -9.088974 0.61976624
1493846201321 2.5331573 -8.541168 0.4879303
1493846201321 0.08860779  -7.7244415  1.5946655
1493846201321 -1.4934387  -6.717682 2.8299408
1493846201321 -3.0519104  -4.8520966  3.3591766
1493846201321 -3.7473297  -3.494629 3.3179474
1493846201321 -3.282425 -2.728485 3.6418152
1493846201321 -2.8004913  -2.2964935  3.2216187
1493846201321 -3.4127197  -1.2215729  3.204956
1493846201321 -3.5025024  -1.3319855  2.873932
1493846201321 -1.7794037  -4.5027313  0.05567932
1493846201321 -0.6287079  -10.330017  -9.119965
1493846201321 3.474823  -19.255371  -19.470596
1493846201321 7.0502014 -19.474823  -17.63884
1493846201321 4.45726 -14.315674  -6.370163
1493846201321 0.21980286  -4.9595795  -2.8828735
1493846201321 -0.23417664 -1.9967346  0.2026825
1493846201321 -3.7490997  -14.294647  0.8659973
1493846201321 -2.4369354  -18.263092  -2.1602936
1493846201321 -1.8780212  -13.18222 -7.2395935
1493846201321 -4.969513 -3.6639404  9.044479
1493846201321 -8.044632 -4.12735  7.3294983
1493846201321 -1.3652496  -8.758682 5.157501
1493846201321 2.0006104 -11.718018  4.313629
1493846201321 4.4934235 -13.090561  3.1857758
1493846201321 5.010269  -12.61058 1.5463257
1493846201321 1.2242279 -10.715683  0.121398926
1493846201322 -2.0761871  -8.778717 1.2107849
1493846201322 -2.8187714  -8.444702 1.4160919
1493846201322 -1.4662476  -8.456787 1.3190002
1493846201322 -0.7095032  -8.393677 0.73217773
1493846201322 -0.8842926  -8.535034 0.98612976
1493846201322 -0.78590393 -8.859833 0.30329895
1493846201322 -0.4186554  -8.865616 0.59417725
1493846201322 0.14781189  -8.4960785  1.1795197
1493846201322 0.5309448 -9.136444 1.3432465
1493846201322 0.6466522 -10.939072  1.3866577
1493846201322 1.4276581 -11.753159  -0.38868713
1493846201322 2.3833008 -11.429382  -2.5860138
1493846201322 2.0427856 -11.733307  -2.339981
1493846201322 0.88941956  -11.89801 -1.6142426
1493846201322 1.5006714 -12.030884  -1.9002838
1493846201322 2.5917053 -12.5624695 -2.3093567
1493846201322 2.7943573 -13.967606  -3.5741577
1493846201322 4.0045013 -15.235535  -2.3679352
1493846201322 2.4635925 -15.65889 -2.3071747
1493846201322 -2.6173859  -15.047592  -3.5603943
1493846201322 -5.80867  -13.168381  0.41731262
1493846201322 -5.873825 -12.578537  6.798294
1493846201322 -5.4738007  -13.4617  5.833725
1493846201322 -5.070984 -15.506531  1.3515015
1493846201322 -3.7339478  -16.00943 -1.238327
1493846201322 0.4000702 -12.452209  0.3166809
1493846201322 4.106842  -9.171494 1.9621582
1493846201322 3.112915  -8.952576 1.9291687
1493846201322 1.0588684 -8.182785 1.3963623
1493846201322 -0.88723755 -7.092804 2.2049255
1493846201322 -2.199051 -5.2308044  2.8882446
1493846201322 -3.154358 -3.4188232  3.1751404
1493846201322 -3.0679169  -2.3747864  3.2001953
1493846201322 -2.5585022  -2.3721619  2.8184662
1493846201322 -2.6536102  -1.269516 2.9238129
1493846201322 -2.8934326  -0.94540405 3.0127258
1493846201322 -1.7848206  -3.2865906  1.4770966
1493846201322 -0.89852905 -7.671997 -2.2130737
1493846201322 -0.5286865  -16.588211  -18.297775
1493846201322 5.391861  -19.334442  -19.722397
1493846201322 7.428467  -19.474823  -5.228897
1493846201322 0.8507538 -10.17482 -5.3069
1493846201323 1.6557922 -1.7381439  -1.7765198
1493846201323 2.366394  -1.224884 6.360443
1493846201323 -3.1759949  -15.237991  2.899292
1493846201323 -4.4349213  -19.160095  -6.8224792
1493846201323 -3.2188416  -10.975037  4.8662567
1493846201323 -7.648117 -0.69436646 9.160645
1493846201323 -9.166489 -4.1118164  9.026169
1493846201323 -2.2669678  -11.890945  6.001953
1493846201323 1.3599854 -13.56218 5.3168488
1493846201323 4.530884  -13.500809  3.5032196
1493846201323 5.3111877 -12.152039  2.1712494
1493846201323 0.8414612 -9.793243 -0.04522705
1493846201323 -1.8353882  -8.942795 1.990448
1493846201323 -1.9230347  -9.125961 1.1845398
1493846201323 -1.6265259  -8.811447 1.3139648
1493846201323 -1.2631683  -8.779816 -0.12184143
1493846201323 -0.8054352  -8.516968 -0.16069031
1493846201323 0.09590149  -8.250931 0.06011963
1493846201323 0.25772095  -8.440079 -0.10978699
1493846201323 0.41134644  -9.336578 0.96003723
1493846201323 0.34838867  -10.33049 2.232132
1493846201323 0.34384155  -10.569794  0.7445526
1493846201323 1.1259308 -10.384598  -2.3897705
1493846201323 2.7744598 -10.692184  -2.4904633
1493846201323 2.3474274 -11.402649  0.18586731
1493846201323 0.37020874  -11.75882 0.25056458
1493846201323 0.7411194 -11.970917  -0.63409424
1493846201323 1.2874146 -12.146027  -1.2874756
1493846201323 0.51660156  -13.318298  -3.284134
1493846201323 2.3843079 -15.03772 -2.9808502
1493846201323 3.5272675 -15.395325  -2.8629608
1493846201323 -0.0594635  -14.509033  -4.2214355
1493846201323 -4.164093 -13.286499  -0.34350586
1493846201323 -5.529236 -12.209702  7.043091
1493846201323 -6.2766266  -12.78891 6.875473
1493846201323 -5.9710693  -14.956512  1.8097534
1493846201323 -4.7541504  -15.502502  -0.80929565
1493846201323 -1.643753 -12.945694  0.055877686
1493846201323 2.6851196 -9.864075 1.512619
1493846201323 3.9613953 -9.436356 1.4037933
1493846201323 2.5461426 -9.382355 1.179779
1493846201323 0.07757568  -8.773621 1.2979279
1493846201323 -2.1645508  -6.8787384  2.7630005
1493846201324 -3.7660217  -4.665344 3.4957428
1493846201324 -4.2881927  -3.0580597  3.6085815
1493846201324 -3.3599396  -2.3966064  3.2641907
1493846201324 -2.5679932  -1.5569153  3.3791046
1493846201324 -2.8422546  -0.7440338  3.434784
1493846201324 -2.6732178  -2.1554565  2.8053436
1493846201324 -1.4654541  -6.0494537  -1.0474243
1493846201324 -0.76605225 -12.2105255 -12.282715
1493846201324 4.602646  -18.768036  -19.07634
1493846201324 10.807175 -19.474823  -10.277054
1493846201324 3.384552  -11.64859 -4.5387726
1493846201324 -1.9944916  -3.1965485  -0.9832611
1493846201324 -5.500931 -2.8781738  3.5057678
1493846201324 -8.400986 -14.782654  3.2700806
1493846201324 -3.982193 -15.324921  -1.3773956
1493846201324 2.299286  -13.874359  -4.7039795
1493846201324 -2.609314 -7.029129 11.180618
1493846201324 -8.2105255  -6.2376404  5.7443237
1493846201324 -2.2917175  -8.216537 4.276169
1493846201324 1.3383636 -11.107529  4.734741
1493846201324 4.9142303 -12.859512  2.9766998
1493846201324 5.104553  -12.962296  1.6386261
1493846201324 -0.08682251 -11.148285  -0.9456177
1493846201324 -1.532074 -8.921188 0.69654846
1493846201324 -1.7129517  -8.234924 1.3757477
1493846201324 -0.4159088  -8.3810425  1.8020477
1493846201324 -0.19863892 -8.879852 0.59007263
1493846201324 -0.96669006 -8.883606 0.2177887
1493846201324 -0.40174866 -9.019516 0.19291687
1493846201324 0.49913025  -8.574921 0.9126282
1493846201324 0.8201752 -8.608063 0.14964294
1493846201324 0.6148987 -9.675751 0.23806763
1493846201324 1.3708496 -10.682678  0.37789917
1493846201324 3.2549438 -10.680405  -0.38095093
1493846201324 3.4928894 -11.396194  -0.12463379
1493846201324 0.8697357 -11.975784  -0.61668396
1493846201324 -1.1178894  -12.151855  -1.9996796
1493846201324 0.7789154 -12.028809  -0.9908905
1493846201324 2.3390198 -12.010101  -1.4380493
1493846201324 2.4559326 -13.080383  -3.927353
1493846201324 4.484024  -14.506699  -3.369461
1493846201324 3.7803345 -14.9561615 -3.653946
1493846201324 -1.6224518  -14.746002  -5.717819
1493846201325 -5.886978 -14.110504  -2.397583
1493846201325 -6.2310486  -13.522812  6.1793823
1493846201325 -4.4309235  -13.464813  9.486008
1493846201325 -3.8740234  -14.339767  3.8523102
1493846201325 -3.7119446  -15.549042  -1.2936554
1493846201325 -0.6678467  -13.366623  -1.6685333
1493846201325 4.2691803 -10.219284  0.6388855
1493846201325 3.4179688 -9.213257 2.6814117
1493846201325 0.22087097  -8.479904 2.1673126
1493846201325 -1.1092834  -7.748169 2.030182
1493846201325 -1.6374054  -6.519058 2.6016235
1493846201325 -2.0489807  -4.9451904  2.7102356
1493846201325 -2.5183868  -3.8405762  2.5254517
1493846201325 -2.739029 -3.2544556  2.31044
1493846201325 -3.2378387  -2.0785065  2.8708954
1493846201325 -4.1531677  -0.8075714  3.48732
1493846201325 -3.8240814  -1.7336578  3.050537
1493846201325 -2.0572815  -5.214554 -0.24079895
1493846201325 -1.5604553  -11.825882  -9.765167
1493846201325 0.76742554  -18.491425  -18.478302
1493846201325 10.332825 -19.474823  -12.033722
1493846201325 4.929001  -12.593613  -5.4379425
1493846201325 -0.52763367 -2.186386 -0.76112366
1493846201325 -4.8473206  -7.432724 2.680313
1493846201325 -2.9697266  -17.367004  2.9677124
1493846201325 -2.369049 -14.485596  -6.5382385
1493846201325 -2.583023 -3.5996094  6.6677094
1493846201325 -8.236588 -0.7216034  8.1749115
1493846201325 -2.285965 -9.065857 8.971756
1493846201325 1.9451599 -14.053329  2.7313538
1493846201325 1.9826355 -14.779297  2.1318817
1493846201325 4.2326813 -11.015091  3.144577
1493846201325 1.4566803 -9.978775 1.4727325
1493846201325 -1.5604706  -9.134247 0.039718628
1493846201325 -1.2265015  -9.117004 1.6167145
1493846201325 -0.57011414 -9.660049 0.6826935
1493846201325 -0.24299622 -9.213135 0.8002167
1493846201325 -1.4160614  -8.5961 0.35176086
1493846201325 -1.6492615  -8.746017 -0.48153687
1493846201325 -0.5093231  -8.748596 -0.045944214
1493846201325 0.079055786 -8.444443 1.1425629
1493846201325 0.58673096  -9.101303 1.2341614
1493846201326 0.9341278 -10.7113495 0.8170471
1493846201326 1.429657  -10.8745575 -1.2017365
1493846201326 2.7795563 -10.367798  -2.1196594
1493846201326 1.9983063 -11.288849  -0.43292236
1493846201326 -0.98526  -11.783066  -0.5961151
1493846201326 -1.2805481  -11.866699  -2.3985748
1493846201326 2.0720062 -12.224487  -1.4478302
1493846201326 2.942154  -12.595459  -1.3624268
1493846201326 3.456726  -13.958633  -2.6396942
1493846201326 4.815277  -14.948685  -2.5805817
1493846201326 1.085907  -14.8385315 -3.4880981
1493846201326 -3.9230652  -13.921478  -1.767746
1493846201326 -5.981247 -12.523346  3.7125244
1493846201326 -6.3046722  -12.492432  6.7133636
1493846201326 -5.82843  -14.5898285 4.3780365
1493846201326 -4.969513 -16.03093 0.83081055
1493846201326 -2.7393188  -14.6553955 -0.8686371
1493846201326 1.5380859 -11.058472  0.14645386
1493846201326 3.9858246 -9.460266 1.0174713
1493846201326 2.7419434 -9.149033 0.91682434
1493846201326 0.24707031  -8.507904 1.5193939
1493846201326 -2.0375824  -7.2132416  3.0107422
1493846201326 -3.440628 -5.177353 3.1885223
1493846201326 -4.0298004  -3.7422485  3.0375519
1493846201326 -3.441101 -3.2969818  2.63797
1493846201326 -2.347824 -2.7797241  2.4681244
1493846201326 -2.5017548  -1.3846741  2.8786774
1493846201326 -2.5653992  -1.0072632  2.7442932
1493846201326 -1.6647186  -3.1350403  1.4250946
1493846201326 0.2320404 -7.950699 -2.963791
1493846201326 2.1211853 -17.242844  -16.342682
1493846201326 8.704651  -19.474823  -19.722397
1493846201326 7.7102203 -19.110764  -8.031906
1493846201326 0.7441101 -9.1418 -4.754959
1493846201326 2.213028  -1.5323029  -2.105011
1493846201326 -4.1436157  -6.315048 3.1577911
1493846201326 -10.549805  -14.874603  -0.044708252
1493846201326 -5.2828064  -16.59343 -2.4943085
1493846201326 0.29945374  -8.830948 6.8217163
1493846201326 -4.4219666  -3.9805298  6.0830383
1493846201326 -1.2561188  -6.689438 5.2026215
1493846201326 2.7167053 -10.937042  3.724472
1493846201327 3.6365662 -13.619751  3.181717
1493846201327 4.474945  -12.700104  0.40733337
1493846201327 0.48077393  -10.444443  -0.23548889
1493846201327 -2.033371 -8.609283 1.7271423
1493846201327 -2.4687347  -8.063202 1.3684082
1493846201327 -2.157074 -8.494125 0.8980408
1493846201327 -0.59317017 -9.011444 0.14167786
1493846201327 -0.1643219  -9.021881 0.16226196
1493846201327 0.13989258  -8.436462 0.5897217
1493846201327 -0.22105408 -8.739349 -0.47973633
1493846201327 -0.7623596  -9.352631 0.34780884
1493846201327 0.007232666 -9.583405 1.8635406
1493846201327 1.6172028 -10.345413  1.260849
1493846201327 2.420288  -10.868469  -0.6056671
1493846201327 2.679306  -10.913467  -2.551117
1493846201327 2.0538177 -11.719955  -0.88838196
1493846201327 -0.7272644  -11.853134  0.76934814
1493846201327 -2.057022 -11.96611 -1.8666077
1493846201327 0.8332977 -12.232208  -1.408905
1493846201327 2.3791199 -12.492645  -0.31341553
1493846201327 2.1612854 -13.555466  -1.4284515
1493846201327 3.992691  -14.426651  -2.3870392
1493846201327 3.4887695 -14.153564  -3.7622223
1493846201327 -1.4792023  -14.270782  -4.8506927
1493846201327 -5.3392334  -13.074234  -0.39979553
1493846201327 -6.1518707  -11.512222  6.091568
1493846201327 -5.569565 -12.115189  6.979065
1493846201327 -4.429764 -14.042236  1.6324463
1493846201327 -3.4800262  -15.795319  -1.8774261
1493846201327 -1.2895813  -14.595993  -1.7749939
1493846201327 3.3742065 -11.150848  0.46850586
1493846201327 4.0848694 -9.854889 1.8058319
1493846201327 1.0245514 -9.281937 1.277008
1493846201327 -1.715683 -7.7713776  1.7761688
1493846201327 -3.808609 -6.139557 2.4232788
1493846201327 -4.3017426  -4.7425995  2.150772
1493846201327 -3.309845 -4.096527 1.5015717
1493846201327 -1.927948 -3.5054474  1.6244812
1493846201327 -1.6094818  -2.5006866  2.652771
1493846201327 -1.632843 -1.2083588  2.955902
1493846201327 -1.0995026  -0.947464 2.5118866
1493846201328 -0.53822327 -2.8685608  0.95240784
1493846201328 0.9033203 -7.971695 -5.794647
1493846201328 3.5497284 -17.01155 -16.821594
1493846201328 7.2052  -19.474823  -19.722397
1493846201328 5.188904  -16.723282  -7.9422913
1493846201328 -0.020370483  -7.6979523  -2.6950989
1493846201328 -1.8071594  -1.4214478  -2.395111
1493846201328 -7.3153687  -9.493134 -0.4232483
1493846201328 -4.215744 -14.214142  3.093979
1493846201328 -1.475647 -14.365036  -7.6355133
1493846201328 1.4006348 -9.844299 4.8594055
1493846201328 -4.1264954  -4.703903 8.45517
1493846201328 -6.335724 -5.3667145  2.7336578
1493846201328 -1.0321503  -9.904053 3.699768
1493846201328 2.3385468 -10.9543915 4.6818085
1493846201328 3.2563019 -12.033142  2.031479
1493846201328 4.1580963 -12.136459  0.5106659
1493846201328 1.6960602 -10.839966  0.12774658
1493846201328 -0.25442505 -8.262131 1.6968384
1493846201328 -1.9866791  -7.598587 2.0097656
1493846201328 -2.0907593  -8.548492 0.28034973
1493846201328 -0.86854553 -9.439362 0.19702148
1493846201347 -0.23522949 -9.15303  0.60643005
1493846201368 -0.8016815  -8.888184 -0.18563843
1493846201387 -1.1743927  -9.387573 -0.48171997
1493846201407 -0.72099304 -9.748108 1.2024994
1493846201427 0.24085999  -10.170029  1.7780457
1493846201446 0.91770935  -10.882721  1.5638885
1493846201466 0.89852905  -10.103622  -0.13076782
1493846201486 1.6324463 -9.8789215  -2.2147217
1493846201506 2.0714722 -10.977692  -0.67056274
1493846201526 0.36967468  -12.342438  0.8133545
1493846210299 -1.7225342  -12.7343445 -1.608017
1493846210300 0.6479645 -12.902344  -2.5225067
1493846210300 3.3385773 -12.746094  -1.6555939
1493846210300 3.543167  -13.29454 -2.7883606
1493846210300 4.6839294 -14.509644  -2.3106232
1493846210300 3.2801666 -14.436508  -2.414978
1493846210300 -1.6431122  -14.071442  -4.0505676
1493846210301 -4.759552 -12.707642  0.10298157
1493846210301 -5.2053223  -11.434494  5.2772827
1493846210301 -5.25856  -12.464951  6.607132
1493846210301 -5.3748627  -14.833557  2.6501923
1493846210301 -5.150894 -16.12349 -0.5555725
1493846210301 -2.4945679  -13.646378  -0.52648926
1493846210302 3.0448914 -10.076508  0.6807709
1493846210302 4.5874786 -9.296341 1.0714111
1493846210302 1.9420013 -8.818848 1.2949371
1493846210302 -0.5496521  -7.264282 2.1428986
1493846210302 -2.5239105  -5.5755005  3.0473785
1493846210302 -3.735962 -4.360977 3.1365967
1493846210302 -3.9684448  -4.02977  2.7671661
1493846210303 -3.0191345  -3.9005737  2.0295868
1493846210303 -2.5476074  -3.152176 2.0192108
1493846210303 -3.0899506  -1.8509521  2.4749908
1493846210303 -2.9635315  -2.1307068  2.1764984
1493846210303 -1.5344696  -4.6187134  0.08287048
1493846210303 1.024765  -9.832779 -7.748947
1493846210304 3.662323  -17.357285  -17.272629
1493846210304 5.3280945 -19.474823  -17.95987
1493846210304 3.2949066 -13.939255  -7.7933197
1493846210304 0.22555542  -7.1091766  -4.2266846
1493846210304 0.13624573  -3.8723907  -3.635376
1493846210304 -4.0121 -13.204773  -2.6098328
1493846210304 -3.3082123  -16.22287 1.873642
1493846210305 -1.4062805  -11.381393  -3.1184235
1493846210305 -1.3858795  -5.7894287  4.9028473
1493846210305 -4.1964264  -5.6529083  5.259857
1493846210305 -1.1830902  -9.607407 5.446274
1493846210305 2.3836823 -11.071503  2.9183197
1493846210305 1.6774902 -10.802612  2.7436218
1493846210306 1.1072998 -10.107819  3.9808197
1493846210306 -0.24208069 -11.280884  1.3084564
1493846210306 -1.4528503  -9.836624 0.5636139
1493846210306 -2.3650818  -8.743011 1.8489227
1493846210306 -1.3126221  -8.690979 1.5774536
1493846210306 0.39711 -9.243393 0.71128845
1493846210306 0.8341522 -9.328262 1.2786102
1493846210329 0.09938049  -8.831863 0.7869415
1493846210329 -0.8114929  -8.858353 0.0071868896
1493846210329 -1.124649 -8.868713 -0.056869507
1493846210329 -0.14430237 -8.730957 1.3858185
1493846210329 0.02255249  -9.531418 0.9968109
1493846210330 -0.38865662 -11.221008  0.2963562
1493846210330 0.4957428 -11.345917  -0.96347046
1493846210331 2.9242706 -11.233475  -1.86586
1493846210331 3.4170227 -12.441132  -0.6194153
1493846210331 1.0362549 -12.327545  -0.41897583
1493846210331 -0.3642578  -12.277145  -2.354477
1493846210331 2.5404205 -12.667267  -1.5803833
1493846210331 3.6235504 -12.614365  -1.894867
1493846210333 3.1407166 -13.983337  -3.535263
1493846210333 4.211258  -14.886108  -1.9356537
1493846210333 0.55700684  -14.596893  -3.6908722
1493846210334 -4.1636353  -13.78598 -2.9240875
1493846210334 -5.0593414  -12.629211  3.7927551
1493846210334 -4.1252136  -12.559662  8.5699005
1493846210334 -4.8342133  -14.688339  4.214035
1493846210334 -5.3130493  -17.142136  0.25315857
1493846210334 -3.8036346  -15.857269  -0.75865173
1493846210335 0.7017822 -11.525162  0.5721741
1493846210335 3.8498688 -9.383728 1.3692169
1493846210335 2.9782867 -8.864716 1.3023987
1493846210335 0.26210022  -7.5377655  2.144043
1493846210335 -1.9880676  -5.8249664  3.2359161
1493846210335 -3.2687225  -4.014099 3.3891754
1493846210335 -3.980713 -3.2992554  2.7851715
1493846210336 -3.4541168  -3.167038 1.7801514
1493846210336 -2.5842285  -2.86557  1.7427826
1493846210336 -2.6908875  -1.9325714  2.4202118
1493846210336 -2.6276855  -1.6438293  2.8349304
1493846210336 -1.8782196  -3.2304688  1.7742767
1493846210336 0.18823242  -7.497299 -2.5079346
1493846210336 1.6470337 -16.42035 -15.150635
1493846210338 4.52565 -19.474823  -19.722397
1493846210339 4.480728  -18.15065 -8.411697
1493846210339 0.24958801  -8.8784485  -2.2281342
1493846210339 -1.5631256  -2.4787445  -2.8241882
1493846210339 -6.088516 -10.669785  -4.25943
1493846210340 -3.9954834  -14.571777  1.5013123
1493846210340 0.069869995 -12.56665 -1.3557129
1493846210340 1.3738251 -6.741974 8.43045
1493846210340 -3.089737 -3.1826782  6.6875153
1493846210341 -2.8614044  -7.8194733  6.540756
1493846210341 0.76911926  -13.093414  3.0465088
1493846210341 0.6259155 -13.693466  2.1585999
1493846210341 1.0644379 -11.639709  2.941864
1493846210341 0.5240631 -10.300003  1.3377533
1493846210341 -0.58358765 -9.137497 -0.29756165
1493846210341 -0.52008057 -8.785202 2.4856262
1493846210341 -0.99705505 -9.5407715  0.59872437
1493846210341 -0.93811035 -9.440002 0.6398773
1493846210341 -1.6561279  -9.3684845  -0.10670471
1493846210341 -1.8153229  -9.054504 0.015594482
1493846210341 -0.4862671  -8.807098 -0.39215088
1493846210341 -4.5776367E-4 -8.280579 -0.064712524
1493846210341 -0.0138549805 -8.271271 1.0046539
1493846210341 0.8054199 -9.017654 1.7081451
1493846210341 0.95895386  -10.249313  2.6784515
1493846210341 0.48841858  -11.004837  0.97306824
1493846210341 0.8753357 -11.248444  -3.1994934
1493846210342 1.7301941 -11.796371  -4.741501
1493846210342 2.0894775 -11.522797  -2.187912
1493846210342 2.153778  -11.697067  -1.2845917
1493846210342 2.640747  -12.378662  -1.1201019
1493846210342 1.9849548 -13.437393  -3.0443268
1493846210342 2.5002594 -15.105652  -4.046997
1493846210342 4.2492676 -15.311844  -0.6231537
1493846210342 0.8076019 -14.541687  -1.3794403
1493846210342 -5.091263 -12.832306  -2.105133
1493846210342 -6.8036346  -11.412979  3.5076904
1493846210342 -6.2278137  -11.427414  7.504135
1493846210342 -5.6792145  -14.740845  5.5581665
1493846210342 -4.0713196  -17.097229  1.0071259
1493846210342 -2.5648804  -15.933609  -1.3742981
1493846210342 -0.19413757 -12.354889  0.5031128
1493846210342 2.1585236 -10.556168  1.7745972
1493846210342 2.385849  -10.367935  1.4421844
1493846210342 0.117370605 -9.379272 1.5517731
1493846210342 -2.4646606  -7.275894 2.4630432
1493846210342 -3.8251648  -4.7595825  3.4269257
1493846210342 -4.180771 -3.2430115  3.377304
1493846210342 -3.5574493  -2.5460815  2.8499603
1493846210342 -2.7911682  -2.1142273  2.6976166
1493846210342 -2.426117 -1.0544281  2.7179413
1493846210342 -1.5720673  -0.56669617 2.5685425
1493846210342 0.1843872 -2.6815033  1.364914
1493846210343 1.7369843 -7.1901855  -2.41951
1493846210343 1.798233  -15.827896  -14.708313
1493846210343 7.6257477 -19.35405 -19.722397
1493846210343 9.8750305 -19.375977  -8.667664
1493846210343 4.0045013 -9.657867 -2.4629974
1493846210343 1.9546661 0.1338501 1.9896088
1493846210343 -3.1701813  -5.9910583  4.152008
1493846210343 -6.783722 -16.587921  2.0808868
1493846210343 -4.8878784  -19.337631  -15.584991
1493846210343 -2.1462097  -7.190872 7.960083
1493846210343 -9.355072 -0.2447052  7.732422
1493846210343 -5.0635834  -4.9925385  6.504242
1493846210343 1.2282104 -11.186584  5.888489
1493846210343 3.8847656 -15.309692  3.217575
1493846210343 6.6857758 -14.066223  2.5237427
1493846210343 2.9801483 -11.980881  -0.15670776
1493846210343 -0.8151703  -8.016739 0.95874023
1493846210343 -2.5066223  -7.987076 2.1089478
1493846210343 -2.0195923  -9.260559 0.73213196
1493846210343 -1.0190735  -9.436798 1.7051086
1493846210343 -1.4201508  -9.0563965  0.7176361
1493846210343 -1.8630981  -8.660034 -0.22669983
1493846210343 -0.71250916 -8.405823 -0.14559937
1493846210343 0.023757935 -7.8858185  0.81222534
1493846210343 0.7918396 -8.049408 1.346405
1493846210343 0.870697  -9.751923 2.3357544
1493846210343 0.124435425 -10.945847  1.5259247
1493846210343 0.37028503  -10.801086  -1.0647125
1493846210343 2.102478  -10.640533  -1.6628418
1493846210343 2.141632  -11.20282 -0.9223175
1493846210343 0.2826538 -11.572784  -0.47801208
1493846210343 0.3167572 -12.1839905 -1.0283813
1493846210343 1.5145569 -12.292465  -1.7388763
1493846210343 0.7048645 -12.634277  -4.2272034
1493846210343 2.320816  -14.192032  -4.879074
1493846210343 4.569931  -15.131729  -1.7394409
1493846210343 0.20376587  -15.241959  -3.4061432
1493846210343 -4.759033 -13.919647  -0.57273865
1493846210343 -5.960144 -13.62117 5.840042
1493846210343 -5.847534 -15.022461  7.141327
1493846210343 -6.3229065  -16.438446  2.469345
1493846210343 -5.9554596  -16.413574  0.5038452
1493846210343 -3.1878357  -13.182083  0.32739258
1493846210344 2.4079895 -9.478027 0.5057678
1493846210344 4.7957  -9.060074 -0.09861755
1493846210344 2.2860718 -8.937515 0.20487976
1493846210344 -0.021133423  -7.110153 1.5547638
1493846210344 -1.9193268  -5.0114594  2.6194763
1493846210344 -2.823822 -3.2478943  2.7401428
1493846210344 -2.8908234  -2.3637695  2.8886414
1493846210344 -2.5361938  -2.2437286  3.0447845
1493846210344 -2.6833344  -1.8678894  3.6789856
1493846210344 -3.3312378  -1.0542297  3.9690247
1493846210344 -3.2777863  -1.532486 3.3955383
1493846210344 -2.343216 -4.5533752  1.0396576
1493846210344 -0.24978638 -11.139954  -10.447098
1493846210344 4.1213837 -17.59584 -18.535385
1493846210344 8.054459  -19.474823  -16.119186
1493846210344 4.0321655 -13.656433  -6.767578
1493846210344 -1.483139 -5.237976 -3.1172028
1493846210344 -6.369156 -5.661621 0.25413513
1493846210344 -2.511078 -12.983795  -0.34176636
1493846210344 2.4414368 -14.539398  1.8366699
1493846210344 -1.1108093  -10.082748  -4.600357
1493846210344 -8.804596 -4.0131683  7.276581
1493846210344 -9.480057 -3.8349304  9.636002
1493846210344 -1.5677795  -10.559006  4.1768494
1493846210344 4.795532  -12.882019  2.5021057
1493846210344 6.9450684 -13.347443  2.7504272
1493846210344 5.837509  -10.731232  1.9992371
1493846210344 1.2336273 -9.060684 -0.5052185
1493846210344 -1.3081665  -7.7508087  1.7832336
1493846210344 -2.6404572  -7.495041 1.8554077
1493846210344 -2.7003632  -9.0516815  0.90867615
1493846210344 -1.624115 -10.061401  0.45921326
1493846210344 -0.9725189  -9.29895  0.32565308
1493846210344 -0.0869751  -8.814911 -0.5442352
1493846210344 -0.4281311  -8.754059 0.53738403
1493846210344 0.4348755 -9.009094 2.3720856
1493846210344 1.3378754 -10.362305  2.934723
1493846210344 0.45877075  -10.538437  1.8321381
1493846210344 -0.061691284  -10.246674  -0.76997375
1493846210344 0.8332367 -11.185745  -1.7254333
1493846210344 1.9035187 -11.834076  -1.7488861
1493846210344 2.1523132 -12.8524475 -0.7282562
1493846210344 0.4887848 -12.551849  -1.1663666
1493846210345 1.2609863 -11.907013  -2.3377686
1493846210345 3.7013092 -12.11824 -1.1447449
1493846210345 2.724823  -12.479324  -2.4772797
1493846210345 3.22052 -13.397858  -3.7971802
1493846210345 4.3672485 -13.87265 -1.607605
1493846210345 -0.80384827 -14.984299  -3.3421173
1493846210345 -6.1374664  -14.2881775 -1.0041199
1493846210345 -8.69075  -12.654556  6.056732
1493846210345 -7.8856964  -12.550156  7.6525726
1493846210345 -5.4109344  -13.800018  1.5567932
1493846210345 -3.614502 -14.754684  -0.9239044
1493846210345 -2.131134 -13.531433  -0.8040924
1493846210345 1.6630859 -10.665894  1.0958252
1493846210345 4.0742493 -9.101166 1.8743896
1493846210345 2.40448 -8.920563 1.2222137
1493846210345 -0.021362305  -8.105972 1.1528625
1493846210345 -2.0837555  -6.4644012  2.6938171
1493846210345 -3.6085358  -4.6371613  3.2318268
1493846210345 -4.104187 -3.567566 2.8192291
1493846210345 -3.204422 -3.2233124  2.4052734
1493846210345 -2.63826  -2.664688 2.8872375
1493846210345 -3.0569153  -1.6031799  3.414322
1493846210345 -2.6421967  -1.6556396  2.705368
1493846210345 -1.1223755  -4.09552  0.14900208
1493846210345 -0.85395813 -9.411789 -8.059677
1493846210345 2.7707672 -16.681046  -17.00946
1493846210345 9.842606  -19.474823  -11.662552
1493846210345 6.819977  -14.781296  -6.3761597
1493846210345 1.2612762 -5.781479 -4.557678
1493846210345 -2.4345093  -7.420517 -0.2247467
1493846210345 -1.6682892  -15.2778015 6.384018
1493846210345 -3.719162 -16.166473  -6.62265
1493846210345 -3.9384003  -6.1018066  5.385315
1493846210345 -8.880081 -2.3525543  9.914719
1493846210345 -8.107132 -7.5592194  6.3503265
1493846210345 -2.0405884  -11.667694  4.4918365
1493846210345 2.30307 -12.410278  4.883194
1493846210345 5.64534 -12.844345  2.8820496
1493846210345 6.260071  -12.454376  0.19728088
1493846210345 1.9552917 -9.511353 -0.42781067
1493846210345 -1.1756439  -7.807785 1.9763794
1493846210345 -2.7452545  -8.005066 1.9541321
1493846210346 -2.8260803  -8.766098 0.24412537
1493846210346 -1.7688599  -9.381393 -1.0137329
1493846210346 -1.0612946  -9.25145  -0.52835083
1493846210346 -0.15419006 -8.40004  -0.01965332
1493846210346 0.62542725  -7.7583313  0.4281311
1493846210346 1.0509949 -8.756088 1.7318726
1493846210346 0.41601563  -10.486404  1.8485718
1493846210346 0.65719604  -10.860504  -0.8725586
1493846210346 2.8991394 -10.5896  -2.5779114
1493846210346 3.7118225 -11.554092  -0.35673523
1493846210346 0.34957886  -12.567368  1.0000153
1493846210346 -2.8442383  -12.107544  -3.0259247
1493846210346 0.84225464  -12.843933  -2.594635
1493846210346 3.5583038 -13.022461  -1.4404755
1493846210346 3.3026733 -14.205139  -3.392334
1493846210346 5.149933  -14.317627  -1.4497986
1493846210346 2.5509796 -14.644379  -2.2088928
1493846210346 -3.581192 -14.397354  -3.6385803
1493846210346 -6.516739 -12.490128  3.4228363
1493846210346 -6.575241 -11.640564  7.833786
1493846210346 -5.6463013  -13.46759 4.1060944
1493846210346 -3.416031 -15.0457  0.20045471
1493846210346 -2.874176 -14.674042  -0.47576904
1493846210346 0.4968567 -11.730026  0.27079773
1493846210346 4.4196777 -9.673355 1.1287079
1493846210346 4.366791  -9.984497 0.88378906
1493846210346 0.9375  -9.424042 1.1990051
1493846210346 -1.5834045  -7.855484 2.4225464
1493846210346 -3.219818 -5.8282166  3.5056458
1493846210346 -3.905548 -4.334427 3.1150513
1493846210346 -3.8374634  -3.5660706  2.7444305
1493846210346 -3.1133118  -2.9302216  2.6546326
1493846210346 -2.809311 -1.7290344  3.1508026
1493846210346 -2.829071 -0.90138245 3.226532
1493846210346 -2.46904  -2.1239471  2.1699982
1493846210346 -1.0005798  -6.1245575  -2.209961
1493846210346 -0.8931885  -13.436478  -13.476929
1493846210346 3.9355164 -18.516754  -19.722397
1493846210346 6.589752  -19.474823  -11.348633
1493846210346 2.6732788 -11.292358  -3.9637299
1493846210346 -1.4536896  -1.2068634  -2.9093323
1493846210346 -4.58934  -6.370224 -1.1824493
1493846210346 -1.0711517  -16.159515  8.329132
1493846210347 -0.4117279  -16.792923  -5.126419
1493846210347 -4.7534943  -6.499893 3.0559387
1493846210347 -10.5578  -1.4678192  11.3728485
1493846210347 -7.2099915  -7.3532867  6.6609955
1493846210347 0.42462158  -12.499435  4.3320465
1493846210347 3.5595093 -14.183594  3.2145386
1493846210347 6.6431274 -13.316055  3.43573
1493846210347 4.3447266 -11.824814  0.5941162
1493846210347 0.3095703 -8.781052 -0.022888184
1493846210347 -2.0509033  -8.020035 1.8473663
1493846210347 -2.8552094  -8.945404 0.61654663
1493846210347 -2.293518 -9.569397 0.655426
1493846210347 -1.4009705  -9.258682 -0.47372437
1493846210347 -0.8193512  -8.373047 -0.81655884
1493846210347 -0.13327026 -7.6269836  0.17593384
1493846210347 0.22219849  -7.8224945  0.7003479
1493846210347 0.4353485 -9.041611 0.9893799
1493846210347 0.85235596  -10.209869  2.3439178
1493846210347 1.0511932 -10.382843  0.78685
1493846210347 1.7793121 -10.676529  -2.393097
1493846210347 2.2254791 -11.349442  -1.9259949
1493846210347 -0.36825562 -11.624908  -0.6616821
1493846210347 -1.9877167  -11.864532  -1.8463135
1493846210347 0.9100647 -12.234787  -1.0915222
1493846210347 2.5022736 -12.610016  -1.226059
1493846210347 1.8833771 -13.444946  -3.525299
1493846210347 4.972351  -14.7651825 -3.2098389
1493846210347 4.530777  -15.745331  -1.7568665
1493846210347 -1.9403839  -15.286514  -4.624298
1493846210347 -5.828125 -13.562683  0.7127075
1493846210347 -6.817932 -12.529663  6.3592377
1493846210347 -6.467087 -14.296951  6.871704
1493846210347 -5.0068207  -15.403015  1.5780334
1493846210347 -3.8451233  -15.760544  -1.194046
1493846210347 -0.7923126  -12.794327  -1.0814514
1493846210347 3.0238495 -9.588806 0.8095856
1493846210347 3.7930908 -9.195297 1.7404938
1493846210347 0.7454376 -8.5289 1.6582489
1493846210347 -1.3503265  -6.9025574  1.734375
1493846210347 -2.773285 -5.0045166  3.2708893
1493846210347 -3.2496948  -3.414032 3.228241
1493846210348 -2.9089355  -2.6943054  3.0999298
1493846210348 -2.3502655  -2.530487 2.9931335
1493846210348 -2.221817 -1.7905121  3.5220032
1493846210348 -2.455902 -0.9823303  3.7025146
1493846210348 -2.298767 -2.1095276  3.296463
1493846210348 -1.7657928  -6.041397 -0.0116119385
1493846210348 -0.7699127  -13.914139  -11.82399
1493846210348 2.4271698 -19.095337  -19.722397
1493846210348 4.662079  -19.474823  -11.691147
1493846210348 1.4449463 -11.944061  -3.9273682
1493846210348 -2.4537506  -3.6182556  -3.3969269
1493846210348 -4.900879 -7.4947357  -3.5602875
1493846210348 -0.3149414  -11.941772  2.5907898
1493846210348 1.4743195 -11.570145  2.4720306
1493846210348 -2.3607788  -9.688034 -0.26643372
1493846210348 -5.9577637  -6.965637 5.331131
1493846210348 -5.7835083  -7.527542 5.9029083
1493846210348 -2.428238 -9.528534 4.294327
1493846210348 1.4358215 -10.188705  3.8544312
1493846210348 4.1875916 -11.11441 3.3211212
1493846210348 4.740265  -12.248093  1.2252045
1493846210348 2.1492615 -10.812103  -0.1507721
1493846210348 -0.52134705 -9.14241  0.9781952
1493846210348 -2.5553741  -8.588211 0.9103699
1493846210348 -2.7265472  -8.715118 0.11782837
1493846210348 -1.854599 -8.999008 -0.10372925
1493846210348 -1.1210022  -8.959839 -0.18515015
1493846210348 -0.7371979  -8.831451 -0.5380249
1493846210348 -0.2994995  -8.543442 1.0299377
1493846210348 0.7814026 -8.462601 1.6731262
1493846210348 1.7197571 -9.307907 2.1323395
1493846210348 1.4555054 -10.206665  1.4030151
1493846210348 1.132904  -10.283478  -1.3911896
1493846210348 1.3169708 -10.547943  -2.2867432
1493846210348 0.31726074  -11.769577  -0.7323456
1493846210348 -1.6970215  -11.877228  -0.9938202
1493846210348 -0.60317993 -11.664368  -1.7758942
1493846210348 2.0224304 -12.062439  -1.5853271
1493846210348 1.5344391 -12.524857  -2.3571777
1493846210348 1.2608185 -13.417557  -4.2387238
1493846210348 5.9227753 -15.262329  -2.0230865
1493846210348 4.1641083 -14.6176605 -3.8207703
1493846210348 -1.6043243  -13.604126  -6.7996674
1493846210349 -4.5996246  -13.404373  1.5111542
1493846210349 -3.2839508  -12.325607  13.620911
1493846210349 -4.1425476  -13.785919  8.546738
1493846210349 -3.515152 -15.222733  -0.40483093
1493846210349 -2.0232239  -15.296326  -3.7502747
1493846210349 2.3691864 -11.911926  -0.23638916
1493846210349 3.4573517 -9.989456 1.5321045
1493846210349 1.5975952 -9.440247 0.5945282
1493846210349 -0.0765686  -8.025269 2.9056702
1493846210349 -1.9784393  -7.002472 2.9490814
1493846210349 -2.8951569  -5.740265 2.4896393
1493846210349 -3.2072601  -4.6477203  2.0335083
1493846210349 -3.0469208  -4.189926 2.1930847
1493846210349 -2.9679413  -3.5675201  2.3945923
1493846210349 -3.8145447  -2.175476 2.9367676
1493846210349 -4.416733 -1.149643 3.3023071
1493846210349 -3.521881 -2.507721 2.053009
1493846210349 -1.1611633  -6.531616 -2.3567657
1493846210349 0.37345886  -13.354782  -12.566025
1493846210349 5.588135  -18.545654  -19.722397
1493846210349 8.538712  -19.474823  -10.503128
1493846210349 3.877182  -11.965363  -2.7352448
1493846210349 0.28553772  -0.9723816  -1.328476
1493846210349 -2.5729218  -5.8681335  -1.1021729
1493846210349 -2.8483887  -16.493683  1.5910797
1493846210349 -0.9929352  -17.511292  -2.7805634
1493846210349 -3.993454 -4.6685486  4.054489
1493846210349 -10.396576  1.4520874 11.177811
1493846210349 -7.6331024  -7.738144 8.454285
1493846210349 -0.6728058  -14.7113495 5.264145
1493846210349 3.5698853 -15.624695  3.870697
1493846210349 5.9168854 -13.281555  2.9707947
1493846210349 3.0598755 -10.2404175 0.76405334
1493846210349 -1.0069122  -7.9173737  1.0310059
1493846210349 -2.7710266  -8.161713 1.6553955
1493846210349 -2.2423706  -9.257965 0.9272156
1493846210349 -1.1987457  -9.929825 0.16921997
1493846210349 -1.1348724  -9.472183 -0.017471313
1493846210349 -0.42486572 -8.475479 -0.54104614
1493846210349 0.28408813  -7.965561 -0.12947083
1493846210349 0.60040283  -8.156876 0.14175415
1493846210349 0.8858032 -9.169876 0.943985
1493846210350 0.7627106 -10.420151  1.4165955
1493846210350 1.0751038 -10.597931  -0.4963379
1493846210350 2.606903  -10.1575165 -2.840088
1493846210350 3.3742523 -10.955917  -1.4695129
1493846210350 0.0075683594  -11.656128  0.9285126
1493846210350 -4.0245056  -11.330841  -2.6675415
1493846210350 -0.75619507 -11.863327  -1.413559
1493846210350 2.0684662 -12.444458  -0.9107666
1493846210350 1.221695  -12.897659  -3.2111664
1493846210350 4.361603  -14.635925  -3.5813599
1493846210350 4.4245605 -15.427673  -1.7338104
1493846210350 -0.4986267  -14.6454315 -4.2263184
1493846210350 -4.3193665  -13.891663  1.0460052
1493846210350 -5.6036835  -12.75528 6.1709137
1493846210350 -6.5513306  -14.39328 5.978073
1493846210350 -6.547653 -15.524445  2.0590668
1493846210350 -4.9136505  -15.220398  -0.13731384
1493846210350 -1.182663 -12.637451  -0.0818634
1493846210350 2.9342194 -9.53125  0.639801
1493846210350 4.3497925 -9.202805 0.019805908
1493846210350 1.0699463 -8.463699 1.3262024
1493846210350 -0.8780365  -6.8710785  2.3220367
1493846210350 -2.5220947  -5.087036 3.4051056
1493846210350 -3.3332062  -3.7844849  3.234558
1493846210350 -3.1856842  -3.224121 3.020874
1493846210350 -3.0168304  -3.2375336  2.9317017
1493846210350 -2.7228088  -2.171112 3.1993256
1493846210350 -3.1076813  -0.99768066 3.5373688
1493846210350 -3.1202087  -1.5850983  2.8988342
1493846210352 -2.323349 -4.730255 -0.3779297
1493846210372 -0.5730591  -12.459076  -11.306213
1493846210397 4.302597  -18.752731  -19.722397
1493846210416 6.771408  -19.474823  -13.173874
1493846210436 2.6167755 -12.910553  -3.6553192
1493846210456 -1.4345093  -0.97984314 -1.6000671
1493846210471 -3.8658752  2.0343628 -1.3779602
1493846210496 -5.3868256  -8.773682 -1.6775208
1493846210515 -1.7806396  -18.044937  -0.15872192
1493846210535 2.9936676 -16.422272  -1.9863281
1493846210550 -0.5776825  -7.2166595  3.0320435
1493846210582 -7.6820526  -3.07547  9.471512
1493846210594 -8.199738 -7.6940155  6.4599
1493846210612 -2.7191467  -11.197113  4.113693
1493846210635 0.86247253  -12.471817  4.060089
1493846210655 4.786026  -13.178116  3.7114868
1493846210674 4.7444305 -12.930603  1.5012207
1493846210694 1.3288269 -10.334274  -0.2090149
1493846210714 -1.3118896  -8.396698 1.7131195
1493846210734 -2.9076233  -8.540222 1.0884094
1493846210751 -3.0973816  -9.531769 -0.12104797
1493846210773 -2.0315704  -9.821762 -0.6576843
1493846210793 -1.0625916  -9.149063 -0.97068787
1493846210810 -0.5060272  -7.988907 -0.8490753
1493846210832 -0.0050964355 -7.4826355  0.06239319
1493846210852 0.49061584  -7.887863 1.0077972
1493846210872 0.6745758 -9.09639  1.7044067
1493846210892 0.6693878 -10.144363  1.4523315
1493846210912 1.4090729 -10.516815  -0.6888733
1493846210932 2.2700653 -10.894592  -1.9385071
1493846210951 1.4499817 -11.568192  -1.4174194
1493846210971 -0.84936523 -11.614838  -1.8652344
1493846210991 -0.0362854  -11.826736  -1.0048828
1493846211011 1.4363251 -12.276794  0.27165222
1493846211050 0.6387329 -12.932007  -2.1156921
1493846211070 1.1880798 -14.744659  -5.044937
1493846211090 5.635742  -15.882065  -1.2601166
1493846211110 2.5196838 -15.684113  -2.458786
1493846211129 -3.0019836  -13.680176  -3.8496246
1493846211149 -5.4974976  -13.058762  1.3215485
1493846211169 -4.7739105  -12.189194  7.7671814
1493846211185 -4.9604645  -13.914658  5.6015472
1493846211209 -5.0719147  -15.396896  0.50434875
1493846211230 -3.7528687  -14.823883  -2.1760406
1493846211248 0.57684326  -11.097275  -0.19154358
1493846211268 3.3866882 -8.818634 1.4330902
1493846211290 3.662094  -8.764114 1.2634583
1493846211308 0.80336 -7.836334 1.8143005
1493846211325 -1.4966125  -6.7233124  1.9842529
1493846211349 -3.3398285  -5.0597687  3.156021
1493846211367 -3.5397491  -3.672699 2.8986359
1493846211384 -3.4294128  -3.4794922  3.206726
1493846211402 -2.7851715  -3.6183167  3.0037537
1493846211426 -2.4960632  -2.8443298  3.2370148
1493846211446 -2.8971252  -1.9099884  3.3126984
1493846211466 -2.6135101  -2.740509 2.2541504
1493846211486 -1.516159 -6.3977966  -2.3382568
1493846211506 0.93019104  -13.654114  -12.317642
1493846211525 5.4052734 -19.474823  -19.722397
1493846211545 6.4844666 -18.502426  -13.1193695
1493846211565 1.6861572 -12.807343  -4.4286804
1493846211585 -0.985672 -4.683075 -4.487015
1493846211605 -0.69488525 -3.1259003  1.4290009
1493846211624 -4.2073364  -9.095123 5.5599823
1493846211644 -5.1387024  -16.109467  -1.5515747
1493846211664 -1.984314 -15.742767  -1.5660858
1493846211684 -4.021927 -9.111267 3.3989258
1493846211704 -6.565796 -4.792053 5.7509155
1493846211723 -1.9440613  -5.69722  4.5134125
1493846211743 3.359085  -8.505463 4.2233734
1493846211762 4.472992  -11.519623  3.1463928
1493846211787 4.676178  -13.141602  0.29992676
1493846211799 2.244278  -11.587891  -1.2465057
1493846211818 -0.21792603 -8.464066 0.92344666
1493846211838 -2.5374603  -7.607956 1.9029999
1493846211858 -2.9501038  -8.420471 0.7039795
1493846211881 -1.8873444  -9.45578  -0.06524658
1493846211901 -1.3545227  -9.641174 0.38963318
1493846211921 -1.759964 -8.743362 1.1086578
1493846211941 -1.4826508  -8.391541 1.8261108
1493846211960 -0.069503784  -9.183258 1.7494354
1493846211980 1.0084839 -9.903336 1.932785
1493846212000 1.2350311 -9.768829 1.5960541
1493846212020 0.38902283  -10.286545  -0.62564087
1493846212040 0.3552704 -11.150009  -3.1421967
1493846212059 1.3368378 -11.949158  -1.9623413
1493846212079 0.29631042  -11.819656  -0.8204498
1493846212099 -0.045791626  -11.502258  -2.14563
1493846212119 2.0707397 -11.78981 -1.1672668
1493846212139 1.799408  -12.469696  -1.6161652
1493846212158 2.3233948 -14.538498  -4.2041016
1493846212197 4.927368  -15.001862  0.6204834
1493846212218 0.23217773  -14.94371 -3.6512299
1493846212237 -5.0230255  -14.753281  -2.1025238
1493846212257 -6.351074 -12.03006 3.0062408
1493846212277 -6.5545044  -11.912201  7.663315
1493846212303 -6.2038574  -13.7173  5.1098175
1493846212317 -5.503525 -15.688278  0.9116211
1493846212337 -3.1888275  -14.790207  -2.3789825
1493846212359 1.0806885 -11.294083  0.758255
1493846212377 4.371292  -9.552689 1.540268
1493846212396 2.906189  -10.336304  0.60653687
1493846212416 0.7481842 -8.506424 0.71318054
1493846212436 -1.4618835  -6.232971 1.8065948
1493846212456 -2.9862366  -4.435272 2.9123688
1493846212476 -3.062027 -2.8985138  2.7804413
1493846212495 -2.4266663  -2.0585022  3.182602
1493846212515 -1.2853851  -1.7927246  3.0707397
1493846212535 -1.023346 -1.2321777  3.2559662
1493846212555 -1.2891998  -1.2867279  3.4154663
1493846212574 -0.77737427 -3.8880157  1.6833954
1493846212594 -0.29328918 -8.737183 -4.627136
1493846212614 0.286438  -15.226379  -14.469666
1493846212634 5.6132813 -19.474823  -16.615768
1493846212651 7.635895  -17.379974  -8.446426
1493846212673 0.5505371 -10.003418  -2.5844574
1493846212693 -3.140747 -3.037506 0.31134033
1493846212713 -5.4081573  -8.232574 -2.4729767
1493846212733 -2.3229065  -17.834793  -2.9057922
1493846212750 0.91093445  -14.6106415 1.4664612
1493846212773 -5.303955 -3.688675 2.3961487
1493846212792 -10.870422  1.4548035 8.716034
1493846212812 -6.269333 -5.879715 9.743088
1493846212832 1.4608765 -14.111237  4.802017
1493846212851 3.7892456 -16.351501  1.5441437
1493846212871 4.3889923 -14.231857  1.985321
1493846212891 2.6322174 -10.58783 1.4207153
1493846212911 -0.49124146 -8.064194 1.2974243
1493846212931 -1.7466431  -8.183731 2.2712402
1493846212951 -1.9063873  -9.614288 1.5363922
1493846212970 -1.6769714  -10.274597  0.8579407
1493846212990 -1.5910645  -9.504944 0.40679932
1493846213010 -1.3438568  -8.474106 0.059066772
1493846213030 -0.17073059 -7.949692 -0.19732666
1493846213049 0.6054077 -7.9193726  0.3449402
1493846213069 0.7975464 -8.540054 1.2815094
1493846213091 0.8728485 -9.740723 2.2209625
1493846213106 0.9137268 -10.337692  0.74964905
1493846213125 1.8719482 -10.32402 -2.278122
1493846213145 2.752884  -10.736023  -2.1626282
1493846213164 0.73121643  -11.484253  1.269989
1493846213188 -2.456604 -11.414932  -0.8051758
1493846213206 -0.53868103 -11.834793  -1.0040283
1493846213226 1.6815948 -12.6345215 -0.44799805
1493846213246 0.7563019 -12.773819  -0.6992035
1493846213266 1.3068237 -14.179504  -3.415451
1493846213305 5.0704346 -14.435471  -2.34169
1493846213324 2.861023  -14.716537  -4.849823
1493846213345 -2.055191 -14.34819 -5.8274384
1493846213365 -5.559082 -13.473877  1.4789276
1493846213382 -5.715866 -12.072327  7.3567657
1493846213406 -6.954056 -13.436523  6.030884
1493846213425 -6.545883 -14.134018  1.4696198
1493846213445 -4.547241 -14.078461  -0.51846313
1493846213465 -0.5617676  -12.023712  -1.0452423
1493846213485 3.4311523 -9.532135 0.23565674
1493846213505 4.066452  -9.346603 1.3472137
1493846213524 1.139328  -8.330505 2.0543365
1493846213544 -1.5904694  -6.904831 1.9526672
1493846213564 -3.1040497  -5.3345947  2.44104
1493846213584 -3.7404785  -4.305481 2.1928864
1493846213604 -3.6894836  -3.9888153  2.235199
1493846213634 -3.063507 -3.788269 2.5028229
1493846213639 -2.4987946  -2.8348846  3.046936
1493846227320 -2.8300323  -1.5429993  3.5112
1493846227321 -3.0894165  -1.7754669  3.0177765
1493846227321 -2.445404 -4.1986847  1.1365204
1493846227321 -0.13311768 -9.140244 -6.947708
1493846227321 2.4297028 -15.986237  -17.455078
1493846227321 3.7292938 -19.474823  -15.770935
1493846227322 3.0334473 -16.170105  -8.415207
1493846227322 0.154068  -7.2752075  -5.0908356
1493846227322 -3.2402802  -1.6427307  -1.6369934
1493846227322 -6.227112 -7.818573 1.0679321
1493846227322 -1.9621277  -16.177185  0.31774902
1493846227322 3.5241547 -13.630676  0.7671356
1493846227322 0.62202454  -5.923279 4.5524445
1493846227323 -6.2793427  -3.3440552  8.022064
1493846227323 -6.6729126  -8.244308 5.6158295
1493846227323 -2.5400848  -12.37648 3.8320618
1493846227323 1.2952423 -11.9045105 3.9131622
1493846227323 3.966751  -11.041763  3.4472656
1493846227323 4.241562  -11.089523  1.589859
1493846227323 3.0467224 -10.165375  0.909317
1493846227324 1.0541534 -9.112228 1.9133606
1493846227324 -1.1927185  -9.1232605  1.099762
1493846227324 -2.0757751  -9.442825 0.21665955
1493846227324 -2.0475159  -9.259598 0.3852539
1493846227324 -1.7785187  -9.097473 -0.23927307
1493846227324 -1.4105225  -8.718658 -0.62820435
1493846227325 -0.20349121 -8.405075 0.3184967
1493846227325 0.9898529 -8.971664 1.372757
1493846227325 1.2131805 -9.845169 1.9333649
1493846227325 0.68055725  -9.885971 0.707077
1493846227325 1.198883  -10.164444  -1.5114594
1493846227325 2.3542023 -10.498123  -1.26651
1493846227325 2.119049  -11.7894745 0.7197418
1493846227326 -0.2727356  -11.81636 0.53842163
1493846227326 -0.86050415 -11.56189 -1.076477
1493846227326 0.8184204 -11.975845  -0.70217896
1493846227326 0.8529358 -12.108917  -1.0634155
1493846227326 0.5606079 -13.240189  -2.7420197
1493846227326 4.732086  -15.193954  -2.626068
1493846227327 6.11763 -13.999527  -2.3989868
1493846227327 0.06617737  -14.368607  -7.040848
1493846227327 -3.7994995  -13.832123  -1.1170044
1493846227327 -5.2022705  -12.121185  4.228943
1493846227327 -4.566635 -13.019501  8.902191
1493846227327 -4.328003 -14.24881 3.4598541
1493846227328 -4.408127 -15.449753  0.11004639
1493846227328 -3.4164734  -14.830536  -1.7964172
1493846227328 1.332489  -11.439362  0.05088806
1493846227328 5.376358  -10.180527  0.5506134
1493846227328 2.6115875 -9.706375 1.1000366
1493846227328 -0.40774536 -7.9698334  1.6906738
1493846227328 -2.3072357  -5.6933746  3.395584
1493846227329 -2.8517914  -3.8559265  2.947235
1493846227363 -3.8092957  -3.3812408  3.1598663
1493846227363 -3.208847 -3.0895844  2.6271057
1493846227363 -3.2891388  -2.8193665  3.0419617
1493846227363 -3.5183258  -1.2911835  3.7787476
1493846227364 -3.1327667  -0.6399689  3.4694214
1493846227364 -1.78508  -2.7476807  1.5812378
1493846227364 0.002822876 -7.570709 -4.220169
1493846227364 2.727707  -14.749847  -14.772278
1493846227364 7.337387  -19.474823  -18.65657
1493846227364 7.1472015 -17.162735  -12.064865
1493846227364 0.38796997  -9.360458 -4.3743134
1493846227365 -4.226898 -6.1381836  -3.6643066
1493846227365 -3.773697 -11.686493  0.18255615
1493846227365 -1.022171 -12.350143  2.2895355
1493846227365 -3.1107635  -7.083603 1.1392212
1493846227365 -4.560196 -2.158905 7.6132813
1493846227366 -2.6269531  -4.594635 8.824066
1493846227366 1.3628693 -11.874023  3.3694916
1493846227366 2.2528687 -15.27829 0.9979248
1493846227366 2.702423  -12.8181305 1.6934662
1493846227366 1.9309845 -9.585434 1.4372101
1493846227367 -0.25245667 -7.9288483  0.7930603
1493846227367 -1.0480957  -7.5989685  1.7055511
1493846227367 -0.9685669  -8.273407 2.0552368
1493846227367 -1.1420898  -9.3675995  0.6823425
1493846227367 -1.1590424  -10.043793  -0.7394409
1493846227367 -1.1845093  -9.478699 -0.9117584
1493846227368 -0.84272766 -8.405029 -0.95054626
1493846227368 -0.7392731  -8.301804 -1.2927856
1493846227368 -0.85343933 -8.7534485  -0.01876831
1493846227368 0.28997803  -9.384735 2.3106995
1493846227368 0.869751  -10.500183  2.8623657
1493846227368 0.40405273  -10.951965  0.7859802
1493846227369 0.17007446  -11.074402  -2.3299408
1493846227372 0.9029236 -11.40535 -2.1556091
1493846227373 1.5210876 -12.972519  1.0896149
1493846227375 -1.4942474  -12.369064  0.92344666
1493846227375 -1.3651428  -12.443695  -3.5555878
1493846227375 2.9164276 -12.93515 -1.335022
1493846227377 3.672226  -13.146133  -1.2882538
1493846227377 4.2514343 -14.251511  -0.6238251
1493846227377 4.0084686 -14.517502  -1.6453552
1493846227377 0.33042908  -14.600327  -6.2560883
1493846227377 -3.437561 -13.732986  -1.319107
1493846227378 -4.701874 -11.655914  4.2738037
1493846227378 -5.4188385  -11.5811615 8.16095
1493846227378 -6.360733 -14.56514 5.7811584
1493846227378 -5.544861 -16.021774  1.8519897
1493846227378 -3.2756805  -14.410324  -1.9366455
1493846227378 1.1908417 -10.624863  -0.70222473
1493846227378 6.4024353 -9.526627 -0.33355713
1493846227379 3.935852  -9.7729645  0.66537476
1493846227379 1.0867004 -8.019119 1.2415161
1493846227379 -2.2181854  -6.558029 2.954712
1493846227379 -2.8778992  -4.6421967  3.1802979
1493846227379 -3.54747  -3.2062073  3.3061829
1493846227380 -3.8544922  -3.5641785  2.6526794
1493846227380 -3.0735931  -3.7505646  2.3775177
1493846227380 -3.3423767  -3.0048065  2.6963959
1493846227380 -3.1205902  -1.4993286  2.9182587
1493846227380 -2.255783 -2.0830688  2.533142
1493846227380 -0.88471985 -5.174408 -0.072402954
1493846227381 0.8982544 -11.689026  -8.868652
1493846227381 3.2122345 -18.445877  -19.722397
1493846227381 6.9747314 -19.474823  -14.865204
1493846227381 4.151184  -15.338364  -5.095871
1493846227381 -0.46202087 -5.094696 -2.3371277
1493846227381 -3.0920105  -3.6618958  -0.83232117
1493846227381 -2.9726868  -12.1835785 1.7453766
1493846227382 -0.74391174 -15.118317  0.5319977
1493846227382 -2.7094574  -9.84169  -2.8981476
1493846227382 -6.116089 -3.3070984  6.602066
1493846227382 -6.6427 -4.5118103  9.640076
1493846227382 -1.9120331  -10.848129  3.7470093
1493846227382 1.1083374 -13.385742  2.5976105
1493846227383 3.3998413 -11.647629  2.7752533
1493846227383 4.075775  -10.519867  1.8285675
1493846227383 2.346161  -10.268921  0.52545166
1493846227383 0.52693176  -9.101501 1.5620728
1493846227383 -1.3197632  -8.646454 1.6146698
1493846227383 -2.0723267  -9.192139 0.4708252
1493846227383 -1.6601257  -9.336197 -0.230896
1493846227384 -1.4206543  -8.717545 -0.17201233
1493846227384 -1.2487946  -8.498276 -0.49299622
1493846227384 -0.93640137 -8.928848 -0.32531738
1493846227384 -0.28398132 -9.231659 1.0862122
1493846227384 0.9425049 -9.571442 1.7119751
1493846227384 1.7855225 -10.020477  1.8372498
1493846227384 1.742691  -9.986374 -0.10110474
1493846227385 1.6988068 -9.849304 -2.2777405
1493846227385 1.9348602 -11.118988  -1.896225
1493846227385 0.39993286  -12.344711  0.27035522
1493846227387 -0.7625122  -11.922989  -0.94473267
1493846227387 0.9811096 -11.972321  -1.7402039
1493846227387 2.3332062 -12.312042  -1.5057068
1493846227387 1.3554993 -13.454895  -3.988388
1493846227388 4.871826  -14.277756  -1.8097839
1493846227388 3.2332916 -14.273117  -3.2454681
1493846227388 -0.9776306  -14.879364  -5.9222565
1493846227388 -3.59581  -14.828079  -0.98960876
1493846227388 -4.5176544  -12.815186  7.4519196
1493846227388 -6.696335 -13.8510895 7.2810364
1493846227388 -7.978195 -15.292633  2.062851
1493846227389 -6.580475 -16.259079  -0.63638306
1493846227389 -0.9501343  -13.063614  -1.2595673
1493846227389 4.204544  -9.385101 0.90901184
1493846227389 4.707855  -9.705811 0.8872528
1493846227389 1.4571686 -8.216064 1.1723022
1493846227389 -1.2002563  -7.0075684  2.3147583
1493846227390 -2.90831  -5.8408203  3.4424438
1493846227390 -3.2451477  -3.975586 3.0044403
1493846227390 -3.706787 -3.0368805  3.3742676
1493846227390 -3.3066254  -2.6840057  3.024353
1493846227390 -3.0418396  -1.9449463  3.2424164
1493846227391 -3.2913666  -0.5967865  3.4516907
1493846227391 -2.7936554  -0.9039612  3.166565
1493846227391 -1.622757 -4.3562164  0.7512207
1493846227391 0.45863342  -11.05658 -8.685928
1493846227391 3.150879  -18.417343  -19.722397
1493846227391 4.33696 -19.474823  -14.749435
1493846227391 2.5779572 -14.820084  -3.9228058
1493846227392 -1.7310181  -3.442627 -2.3307037
1493846227392 -5.349716 -3.5921783  -2.48172
1493846227392 -4.258713 -13.665909  0.32714844
1493846227392 0.14971924  -15.536697  1.6087952
1493846227392 -0.38641357 -9.497406 -1.3371735
1493846227392 -2.8595123  -4.5066986  7.262924
1493846227393 -3.8515778  -6.3936157  8.131805
1493846227393 -0.9511261  -10.63385 4.0572357
1493846227393 0.5346527 -11.916428  3.4869843
1493846227393 1.7853851 -11.622833  2.7105255
1493846227393 2.0245361 -11.602936  1.567627
1493846227393 0.25338745  -10.424332  1.1273193
1493846227393 -1.3888245  -8.512848 1.7823792
1493846227394 -2.1835022  -8.33432  1.4259186
1493846227394 -1.0773468  -9.118805 0.61128235
1493846227394 0.14105225  -9.363312 -0.012924194
1493846227394 0.16937256  -8.890564 0.23597717
1493846227394 -0.3335266  -8.792664 -0.42211914
1493846227394 -0.8747406  -8.962357 0.0131073
1493846227395 -0.20259094 -8.898239 1.5216064
1493846227395 0.9945221 -9.320648 1.775238
1493846227395 1.2306061 -10.014755  1.3216248
1493846227397 1.3478851 -10.496643  -0.8251953
1493846227397 2.055603  -11.172073  -2.1447144
1493846227397 1.8308411 -12.096527  -0.90838623
1493846227397 -0.657074 -11.812622  -1.3449402
1493846227397 0.35179138  -11.728027  -2.4996948
1493846227397 3.4601898 -12.122498  -1.3705444
1493846227398 3.0234222 -12.3423  -1.5900421
1493846227398 0.9571228 -12.748932  -3.9743042
1493846227398 5.0164948 -14.69487 -3.1188812
1493846227398 4.5168  -15.570038  -2.5206604
1493846227398 -1.7797852  -14.917892  -5.034134
1493846227398 -5.3670197  -13.880722  0.5743408
1493846227398 -5.7753296  -12.987427  8.61116
1493846227401 -6.6067047  -14.699326  6.7008057
1493846227401 -5.6818542  -15.2378235 1.9767761
1493846227401 -3.923111 -16.093353  -1.7086334
1493846227401 0.97416687  -12.631638  -0.20884705
1493846227402 5.132248  -8.97403  -0.14645386
1493846227402 3.8269348 -8.777664 1.2559662
1493846227402 0.6356201 -7.529602 2.7820892
1493846227402 -1.6957397  -6.9299164  2.6098022
1493846227402 -2.9237823  -5.613739 3.6892548
1493846227403 -3.3253632  -3.9099731  3.0174866
1493846227403 -3.4081268  -3.5844727  3.118805
1493846227403 -2.375351 -3.089386 2.1787872
1493846227404 -2.8688965  -2.2593079  2.3658905
1493846227404 -3.0611725  -1.2208405  2.5131989
1493846227404 -1.9346161  -3.0735474  1.7494202
1493846227404 -0.861969 -7.069031 -1.976944
1493846227404 -0.72480774 -13.203064  -11.076431
1493846227404 2.4335632 -19.474823  -17.907959
1493846227404 7.079529  -18.19345 -11.271118
1493846227404 1.2936249 -12.121063  -5.5739594
1493846227404 -2.2267456  -6.7944183  -2.028366
1493846227404 -3.9638977  -12.81073 -2.7582703
1493846227404 -1.5823975  -17.99295 -3.9729767
1493846227404 0.3396454 -11.413254  2.4902344
1493846227404 -6.4322968  -1.946106 5.3484955
1493846227404 -6.9004974  -0.5395508  10.880569
1493846227404 -1.1634979  -8.538864 8.647583
1493846227404 1.3162994 -16.240189  3.0105133
1493846227404 2.6204224 -15.240311  2.2041016
1493846227404 2.3516388 -10.674377  2.5913696
1493846227404 -0.88056946 -8.109055 1.8801727
1493846227404 -2.0961914  -7.6019897  2.288559
1493846227404 -1.6902924  -8.974426 1.943039
1493846227404 -1.0008087  -10.320328  0.15281677
1493846227404 -0.27630615 -9.954819 -0.09829712
1493846227404 -0.24525452 -9.202057 -0.56333923
1493846227404 -0.13710022 -8.853989 -1.0090637
1493846227404 0.32460022  -8.552017 -0.17344666
1493846227404 0.6385956 -8.920853 0.68510437
1493846227405 0.7311554 -9.944366 1.9569092
1493846227405 0.2111206 -10.298019  1.86969
1493846227405 -0.03744507 -10.377716  -0.73469543
1493846227405 0.7333069 -10.453781  -2.9223938
1493846227405 2.5945587 -11.047836  -2.9970398
1493846227405 2.0277557 -11.180725  -0.2905426
1493846227405 0.08253479  -11.204071  -0.50782776
1493846227405 0.6777649 -12.073044  -1.0947571
1493846227405 1.3887329 -12.941895  -1.656723
1493846227405 2.3605194 -14.897156  -3.4599
1493846227405 3.3251648 -15.263489  -1.1105652
1493846227405 1.0658722 -14.741638  -3.0655975
1493846227405 -3.096527 -14.119751  -2.3713226
1493846227405 -5.781555 -13.201736  2.1527405
1493846227405 -6.7767334  -12.852158  8.154022
1493846227405 -7.6903076  -13.845718  4.3669586
1493846227405 -6.699814 -14.579758  0.09361267
1493846227405 -3.960312 -13.509766  -1.534317
1493846227405 0.53193665  -10.462448  0.10032654
1493846227405 4.6696625 -8.900848 1.0907745
1493846227405 2.863327  -9.189072 2.079544
1493846227405 1.2695313 -8.387451 -0.3445282
1493846227405 -1.2045746  -7.7129364  1.7554779
1493846227405 -3.9913177  -6.0411377  3.2793274
1493846227405 -4.7635345  -3.9029236  3.082428
1493846227405 -4.9408264  -2.4278564  3.1369476
1493846227405 -3.8282318  -2.3296814  2.7151642
1493846227405 -2.7733917  -1.5139008  2.8602448
1493846227405 -2.685669 -0.88009644 2.7845001
1493846227405 -2.2850494  -2.6730652  1.5967102
1493846227405 -1.107727 -6.9090424  -2.8775635
1493846227405 0.9113312 -14.030594  -14.019745
1493846227405 3.7879791 -19.474823  -18.513626
1493846227405 4.588791  -17.645569  -11.741959
1493846227405 0.43858337  -9.337601 -3.8114624
1493846227405 -1.7738037  -1.4872742  -2.0395508
1493846227405 -4.237488 -3.4838867  2.898056
1493846227405 -7.581436 -14.953461  2.7283173
1493846227405 -1.4750366  -17.174545  -3.1825867
1493846227406 4.515976  -12.659317  -2.3097534
1493846227406 -0.53982544 -4.8037567  11.352951
1493846227406 -8.210175 -4.939087 4.6683807
1493846227406 -6.08757  -8.727936 4.3287354
1493846227406 -0.22103882 -11.335815  4.5270233
1493846227406 4.2895355 -12.040756  3.4020386
1493846227406 5.029587  -12.049835  0.8586731
1493846227406 2.3067627 -11.694885  -0.2843628
1493846227406 -0.08822632 -10.546234  0.54545593
1493846227406 -1.2124634  -9.320465 1.383728
1493846227406 -1.1466675  -8.501633 1.6893921
1493846227406 -0.7582245  -8.251099 1.1707153
1493846227406 -0.4813385  -8.034866 1.3972778
1493846227406 -0.21829224 -7.9643707  2.1813354
1493846227406 0.2375946 -8.617111 1.4282532
1493846227406 1.5695648 -9.2343445  0.6351471
1493846227406 2.4113922 -9.482956 0.8079376
1493846227406 1.6816559 -9.270584 0.5378113
1493846227406 1.083725  -9.439865 -0.8699188
1493846227406 1.4278412 -10.487427  -0.94877625
1493846227406 1.307312  -11.456512  -0.062026978
1493846227406 0.21376038  -11.592636  -1.3928223
1493846227406 1.1139984 -12.142456  -1.751831
1493846227406 2.331833  -12.775421  -1.1507721
1493846227406 2.7782745 -14.466537  -3.34021
1493846227406 4.8945313 -15.727066  -2.4478455
1493846227406 2.1262512 -16.08339 -3.7794952
1493846227406 -4.939392 -15.254501  -5.745285
1493846227406 -9.0271 -13.528778  0.32206726
1493846227406 -8.65416  -12.883484  8.329147
1493846227406 -7.0401154  -14.316193  6.062607
1493846227406 -4.92395  -14.89653 1.4256744
1493846227406 -3.0686188  -14.811951  -1.6438599
1493846227406 1.4047394 -12.318298  -0.8687134
1493846227406 3.941574  -9.450592 2.1121216
1493846227406 1.4104614 -9.269836 2.212616
1493846227406 -0.9460449  -7.5122375  1.16922
1493846227406 -2.3077393  -5.822571 1.8967438
1493846227406 -3.6362915  -4.232422 2.7998352
1493846227406 -3.875183 -2.9954681  1.726059
1493846227406 -3.0786896  -2.3648682  2.143692
1493846227406 -2.407486 -2.8017273  2.3449097
1493846227407 -1.4375916  -2.3869476  2.5932617
1493846227407 -1.1121368  -1.7565155  2.4273224
1493846227407 -0.4537964  -2.5484314  1.9972687
1493846227407 0.8310089 -6.268631 -0.7252655
1493846227407 1.3535004 -12.846893  -8.535202
1493846227407 1.9937744 -19.474823  -19.494125
1493846227407 8.218094  -18.81099 -15.736572
1493846227407 3.3321228 -13.796616  -4.166641
1493846227407 -1.4044647  -4.225647 -3.4365997
1493846227407 -4.0980377  -1.3929596  2.6914978
1493846227407 -8.538666 -12.305145  2.3192444
1493846227407 -3.797638 -15.917679  -1.4336853
1493846227407 2.0672913 -11.468857  -3.5649414
1493846227407 -0.21620178 -5.0306854  11.263718
1493846227407 -5.5158844  -6.5885773  5.0089417
1493846227407 -2.4984894  -10.964722  4.3423157
1493846227407 1.0867004 -12.316528  4.056122
1493846227407 2.4641724 -11.498291  3.3323212
1493846227407 2.251419  -10.958023  1.5766907
1493846227407 0.71180725  -10.70343 0.8538971
1493846227407 -0.118515015  -9.906799 1.9194489
1493846227407 -0.5454407  -9.134094 1.6719513
1493846227407 -0.24223328 -8.659805 1.2754059
1493846227407 0.25979614  -8.4500885  1.3560944
1493846227407 0.698822  -8.534927 1.4273987
1493846227407 0.68782043  -8.549606 1.1134644
1493846227407 0.37678528  -8.783829 0.45489502
1493846227407 0.99313354  -9.772324 0.30041504
1493846227407 2.0115204 -10.031021  0.9970703
1493846227407 1.6313629 -9.6753845  -0.25028992
1493846227407 1.0960999 -10.363144  -1.4593506
1493846227407 0.8626251 -11.309311  0.8663788
1493846227407 0.06335449  -11.4891205 0.26113892
1493846227407 0.8066406 -11.557617  -1.086441
1493846227407 2.5338745 -11.666733  -0.7659912
1493846227407 2.1984558 -11.698471  -1.9299622
1493846227407 2.478897  -12.993011  -3.8588562
1493846227407 5.087387  -14.912735  -2.580841
1493846227407 2.334961  -15.133133  -4.077347
1493846227407 -3.7814178  -14.829224  -6.2472076
1493846227407 -7.429779 -14.089157  -0.7049866
1493846227407 -7.5875854  -13.4322815 7.784378
1493846227407 -6.09848  -14.08107 8.884796
1493846227408 -4.3058167  -13.509613  3.037201
1493846227408 -3.0130157  -14.265045  -2.5737305
1493846227408 -0.89512634 -13.095764  -3.5833282
1493846227408 2.8332214 -9.81459  0.23049927
1493846227408 2.7467499 -9.398956 2.796692
1493846227408 0.3282318 -8.639389 2.1012573
1493846227408 -2.150879 -7.2878876  1.5724182
1493846227408 -3.1434174  -5.4698334  2.0236206
1493846227408 -3.4182281  -4.628647 1.2935028
1493846227408 -3.1129608  -4.179123 1.6033478
1493846227408 -1.695755 -3.869934 1.4309692
1493846227408 -1.3399963  -2.986618 2.9074097
1493846227408 -2.0151978  -1.4857788  4.0237885
1493846227408 -1.7095642  -1.1750641  3.9262848
1493846227408 -0.82003784 -3.214325 1.9231415
1493846227408 0.6557007 -8.137314 -3.151184
1493846227408 2.8510132 -15.998718  -15.333267
1493846227408 6.88237 -19.474823  -18.458115
1493846227408 7.0345917 -17.964996  -9.080658
1493846227408 -0.049087524  -8.022415 -2.8356323
1493846227408 -7.819336 -4.2568054  5.625107
1493846227408 -8.241638 -13.740494  2.2388153
1493846227408 -0.17578125 -13.067642  -1.3879242
1493846227408 0.11212158  -5.1029053  1.4285583
1493846227408 -1.7964478  -0.0011901855 10.161606
1493846227408 -4.668503 -6.230118 9.063141
1493846227408 -1.6866608  -16.235245  1.3008881
1493846227408 1.0077362 -16.310928  1.8037872
1493846227408 1.9476776 -10.910889  3.7729797
1493846227408 1.8628235 -8.517548 2.838623
1493846227408 0.7941284 -9.363358 0.8242035
1493846227408 0.5325928 -10.056183  2.0278778
1493846227408 -0.04144287 -10.1058655 2.1375885
1493846227408 -0.34960938 -9.767715 0.61131287
1493846227408 -0.107543945  -9.001724 0.82206726
1493846227408 -0.05555725 -8.483856 1.0060883
1493846227408 -0.24502563 -8.9422 0.64868164
1493846227408 -0.5264282  -9.359863 0.7446594
1493846227408 0.0050201416  -9.645447 0.22315979
1493846227408 1.2716675 -9.942368 -0.31150818
1493846227408 1.7785339 -9.811386 -0.7749939
1493846227408 1.9697418 -9.511154 -1.6765442
1493846227408 2.109253  -9.895309 0.0778656
1493846227409 0.64759827  -10.760468  1.4802246
1493846227409 -1.4126892  -11.577087  -0.46902466
1493846227409 -0.6440277  -12.324951  -1.3362885
1493846227409 0.8908386 -12.296875  -0.61039734
1493846227409 0.9246826 -12.371811  -2.3633423
1493846227409 2.440445  -13.450027  -4.996002
1493846227409 5.414261  -14.884644  -3.07753
1493846227409 3.1627655 -15.516663  -4.101288
1493846227409 -2.1013184  -14.291229  -2.6262054
1493846227409 -5.790848 -12.956146  2.7606354
1493846227409 -6.260071 -12.914505  7.372711
1493846227409 -3.9581757  -13.578369  5.2727966
1493846227409 -3.2239532  -14.509857  0.52568054
1493846227409 -3.1816406  -15.05928 -1.8609467
1493846227409 0.06604004  -12.263763  -0.72068787
1493846227409 4.8011475 -10.100861  -0.31384277
1493846227409 3.8408356 -9.6922455  2.601654
1493846227409 0.3202057 -9.113434 2.0895996
1493846227409 -2.0836487  -7.6298523  2.4320068
1493846227409 -2.895218 -5.2379 2.798767
1493846227409 -4.0688477  -3.7827148  3.2744904
1493846227409 -3.915207 -2.8213959  3.2979126
1493846227409 -3.104599 -2.7904663  3.3022003
1493846227409 -3.0639954  -1.528717 3.806244
1493846227409 -3.611557 -0.11593628 3.7905884
1493846227409 -2.8206024  -1.8614655  2.9670868
1493846227409 -0.17755127 -6.3273163  -1.5078125
1493846227409 0.20010376  -13.408432  -10.7656555
1493846227409 3.65802 -19.474823  -18.866653
1493846227409 10.489044 -18.573532  -7.980179
1493846227409 2.8642273 -8.675201 -3.3688354
1493846227409 -2.4246979  -0.23248291 1.2571869
1493846227409 -6.497162 -10.155685  4.1569977
1493846227409 -1.861908 -18.184097  0.4607849
1493846227409 -1.9824982  -14.199112  -10.857162
1493846227409 -1.7738495  -2.7539673  10.684479
1493846227409 -7.7518616  -3.265396 8.716583
1493846227409 -2.787201 -10.691803  4.295868
1493846227409 0.70848083  -13.175171  4.4306335
1493846227409 3.7467651 -12.906723  3.3905182
1493846227409 6.423889  -11.45459 1.8898315
1493846227410 3.3776703 -11.316849  -0.1330719
1493846227410 0.29614258  -9.411789 1.1811676
1493846227410 -2.1805267  -8.3064575  2.1223145
1493846227410 -3.5645447  -8.407227 0.50816345
1493846227410 -2.9571838  -8.778336 -0.020812988
1493846227410 -1.5113068  -8.829971 -0.109954834
1493846227410 -0.66937256 -8.665237 -0.46896362
1493846227410 -0.375  -8.324966 -0.29211426
1493846227410 0.13200378  -8.267593 0.53193665
1493846227410 0.88890076  -9.0466 1.6902771
1493846227410 0.96517944  -9.975632 1.7516632
1493846227410 1.3849335 -10.023087  -0.27072144
1493846227410 2.3289948 -10.58551 -0.9404297
1493846227410 1.2232208 -11.654007  0.06703186
1493846227410 -1.792511 -11.70697 -1.2634277
1493846227410 -1.004242 -11.757126  -1.7535706
1493846227410 2.0157776 -12.09874 -0.4723816
1493846227410 1.8784637 -12.424454  -1.6144409
1493846227410 2.0089417 -13.424698  -3.9075775
1493846227410 4.364853  -14.252869  -2.6737976
1493846227410 2.9909973 -14.199341  -3.6816254
1493846227410 -1.9395294  -14.232925  -5.7068176
1493846227410 -4.602936 -13.532227  0.06916809
1493846227410 -4.299408 -12.918945  8.204315
1493846227410 -4.9144745  -13.812225  6.851639
1493846227410 -5.5454407  -15.201126  1.3223267
1493846227410 -4.2989044  -15.593979  -1.8630981
1493846227410 -0.32728577 -12.8591  -0.6842804
1493846227410 3.3374329 -9.933472 0.506073
1493846227410 2.2427673 -9.153473 1.3737335
1493846227410 0.75354004  -8.183655 1.01828
1493846227410 -1.1417236  -6.856308 1.4205933
1493846227410 -2.0465546  -5.029373 2.0518494
1493846227410 -2.630478 -3.4518738  2.1592865
1493846227410 -2.4855957  -2.5768127  2.993805
1493846227410 -2.3374023  -2.7594604  2.93779
1493846227410 -2.379242 -2.5547638  3.701706
1493846227410 -3.595993 -1.6717682  3.8814545
1493846227410 -3.686554 -2.170395 3.1876984
1493846227410 -2.5912933  -4.547592 1.2582855
1493846227410 0.2735443 -10.799728  -8.816132
1493846227410 5.105957  -19.474823  -19.722397
1493846227410 10.441849 -19.373795  -19.116135
1493846227411 4.022156  -16.164673  -3.2708282
1493846227411 -0.7404785  -5.5862885  -2.3633423
1493846227411 -1.8378754  -0.82025146 -2.966858
1493846227411 -2.0823364  -12.6128235 -2.91008
1493846227411 1.2731628 -16.230988  7.321289
1493846227411 -4.1596527  -11.24585 -4.333679
1493846227411 -8.417206 -4.240799 3.560852
1493846227411 -8.586365 -3.3784637  9.386795
1493846227411 -2.5484772  -9.97966  5.3397064
1493846227411 2.0387726 -12.149155  2.853424
1493846227411 3.5534973 -12.017624  2.9469147
1493846227411 5.187851  -11.552383  3.1296082
1493846227411 3.5335236 -11.232758  1.3934021
1493846227411 0.6667023 -9.56778  0.370636
1493846227411 -1.768692 -8.382797 1.5112457
1493846227411 -2.8793182  -8.956802 1.4845276
1493846227411 -2.8523102  -9.494217 0.5840454
1493846227411 -2.2324524  -9.484695 -0.14656067
1493846227411 -1.9285278  -8.818512 0.1268158
1493846227411 -1.4144287  -8.255737 0.73054504
1493846227411 -0.15562439 -8.270386 1.319931
1493846227411 1.116333  -9.288528 1.9158478
1493846227411 1.3837891 -10.385605  1.5497131
1493846227411 0.79400635  -10.741074  0.08543396
1493846227411 1.0500946 -10.670807  -1.6038818
1493846227411 2.3101807 -10.811691  -1.6405029
1493846227411 2.3296814 -11.42717 -0.7976532
1493846227411 0.4818573 -11.738861  -1.1192322
1493846227411 -0.12307739 -11.743988  -1.8224945
1493846227411 0.6422882 -11.644455  -1.3046112
1493846227411 0.8229675 -12.183701  -1.8678894
1493846227411 2.7046204 -13.974289  -3.0812378
1493846227411 4.8999023 -14.848404  -1.1925354
1493846227411 1.6678314 -15.188446  -2.6728058
1493846227411 -3.952896 -14.241653  -2.376007
1493846227411 -6.4416656  -12.216354  2.3393707
1493846227411 -6.480194 -12.142807  6.8425903
1493846227411 -4.4438324  -13.73082 4.980484
1493846227411 -3.1821594  -15.432373  1.3358917
1493846227411 -2.6010284  -15.3029785 -1.8352509
1493846227411 -0.16343689 -12.176895  -0.56936646
1493846227411 3.2246246 -10.054657  1.7249603
1493846227411 2.5637665 -9.873093 2.0231934
1493846227412 0.3446045 -9.113525 1.4322815
1493846227412 -2.0013885  -7.5923767  2.432129
1493846227412 -3.442627 -5.514572 2.8004303
1493846227412 -3.61911  -3.8296661  2.8320618
1493846227412 -3.4618988  -3.1760406  2.433426
1493846227412 -2.6520538  -2.914917 2.33815
1493846227412 -2.5567932  -2.0195313  2.9772186
1493846227412 -2.9873505  -0.5340271  3.2215576
1493846227412 -2.3037567  -1.3555145  2.4802704
1493846227412 -0.17437744 -4.9187164  -0.42492676
1493846227412 0.8679657 -11.459976  -7.1875
1493846227412 1.1889648 -19.450531  -19.684174
1493846227412 12.16983  -19.39241 -19.005264
1493846227412 5.8148956 -13.756073  -5.0946198
1493846227412 -0.57624817 -2.5351563  -0.9794922
1493846227412 2.1244202 2.3395386 2.2772522
1493846227412 -4.0533752  -9.53064  1.875412
1493846227412 -6.232086 -17.896744  -2.489975
1493846227412 -2.576416 -18.080734  -14.178253
1493846227412 -0.22445679 -7.0246887  10.236893
1493846227412 -7.4417725  -2.8909607  6.1978455
1493846227412 -4.4262238  -5.6524963  5.2716064
1493846227412 0.6152191 -9.96875  4.2713013
1493846227412 3.523407  -13.20433 4.628479
1493846227412 6.207611  -13.680923  2.3201904
1493846227412 3.023529  -13.252335  0.07498169
1493846227412 -1.398819 -9.194336 1.003418
1493846227412 -4.065155 -7.865097 2.1444397
1493846227412 -4.145279 -8.402054 1.0183563
1493846227412 -1.9220428  -8.996735 1.1108551
1493846227412 -0.4165802  -9.131775 0.87545776
1493846227412 -0.17347717 -8.852463 0.41636658
1493846227412 -0.37690735 -8.75177  0.057540894
1493846227412 -0.3716278  -8.543549 0.8178253
1493846227412 0.21014404  -8.65509  1.2190399
1493846227412 0.54026794  -9.747421 1.5063629
1493846227412 0.7032623 -10.876083  0.3359375
1493846227412 1.6115417 -10.662323  -1.5967407
1493846227412 2.0287933 -10.670929  -1.6439514
1493846227412 0.4393158 -11.263016  -0.9981537
1493846227412 -0.71302795 -11.636902  -1.2738647
1493846227412 0.54107666  -12.066895  -1.9059296
1493846227413 2.181717  -13.274521  -2.9283295
1493846227413 3.5068054 -14.917969  -2.7132263
1493846227413 3.7102203 -15.8441925 -1.5915375
1493846227413 -0.19198608 -15.257172  -3.6370087
1493846227413 -5.113617 -13.887436  -3.2383728
1493846227413 -6.111389 -12.326401  2.9652405
1493846227413 -6.032135 -13.034821  7.4665527
1493846227413 -5.1971283  -14.348068  6.333954
1493846227413 -3.4124298  -15.124664  1.0780487
1493846227413 -0.4277954  -13.975357  -2.1587982
1493846227413 2.9983368 -11.294785  -0.7136078
1493846227413 3.2969208 -10.3242035 1.1092224
1493846227413 1.2369232 -9.641418 1.5222931
1493846227413 -0.9556885  -8.486755 2.1540833
1493846227413 -2.6124268  -6.865219 2.8716736
1493846227413 -3.6307678  -5.061371 2.5319672
1493846227413 -4.2395477  -3.9557953  2.6760254
1493846227413 -3.4701996  -3.4568176  2.2536469
1493846227413 -2.7800293  -3.1777496  2.062088
1493846227413 -3.0458984  -1.6513367  2.8625946
1493846227413 -3.501709 -0.35505676 3.3963623
1493846227413 -2.9223938  -1.6421356  2.4463806
1493846227413 -1.2055359  -6.098465 -0.42503357
1493846227413 0.3786316 -13.928009  -10.156464
1493846227413 5.30249 -19.241623  -19.309708
1493846227413 10.667114 -19.474823  -9.632935
1493846227413 2.3875427 -9.541611 -4.9880524
1493846227413 -2.1976624  -0.7410431  -0.13742065
1493846227413 -5.4938354  -10.091873  0.14634705
1493846227413 -0.34838867 -17.202744  -0.37773132
1493846227413 -0.4808197  -13.046051  -5.4498596
1493846227413 -1.9402466  -5.878067 4.990631
1493846227413 -7.5922546  -2.182312 9.46051
1493846227413 -6.0475006  -5.842041 4.5249786
1493846227413 -0.44421387 -11.888199  3.6073456
1493846227413 1.8212433 -12.721115  3.0762634
1493846227413 4.935974  -11.45401 1.9551697
1493846227413 3.668991  -11.363846  1.2097168
1493846227413 0.7176361 -10.016663  0.17456055
1493846227413 -1.679184 -8.86113  1.7477417
1493846227413 -2.4941406  -9.287064 1.0208435
1493846227413 -2.071045 -9.706207 0.17434692
1493846227413 -1.2002258  -9.421005 0.28071594
1493846227414 -1.3184357  -8.948273 0.10328674
1493846227414 -1.1234894  -8.784317 0.35697937
1493846227414 -0.78796387 -8.872696 0.8201294
1493846227414 -0.21672058 -9.001968 1.3807983
1493846227414 0.9465027 -9.368927 1.7611847
1493846227414 1.3961029 -9.938629 1.7699738
1493846227414 1.2970581 -10.050262  0.19615173
1493846227414 1.9328613 -10.169342  -1.4427643
1493846227414 2.2790222 -11.061188  -1.6138458
1493846227414 0.6620178 -11.4848175 -1.4949036
1493846227414 -1.0906677  -11.474731  -2.0510712
1493846227414 -0.38308716 -12.166763  -1.8210449
1493846227414 1.5650635 -13.710724  -1.7974243
1493846227414 2.9195404 -14.947556  -1.1857452
1493846227414 2.4600525 -15.458221  -0.39707947
1493846227414 -0.9519806  -14.919769  -2.9384308
1493846227415 -5.076584 -13.236832  -1.9401093
1493846227440 -5.5836945  -11.137253  2.480713
1493846227460 -4.554291 -11.216019  4.77536
1493846227480 -3.7804718  -13.219009  3.6502228
1493846227499 -3.1331024  -14.637192  1.0987701
1493846227514 -1.9192352  -14.189529  -0.8006439
1493846236317 1.0776062 -11.327408  0.370224
1493846236317 3.1181946 -10.190857  1.5200806
1493846236317 1.6491241 -9.774612 1.7862091
1493846236317 -0.9982147  -8.645767 1.3916473
1493846236317 -2.9269867  -7.0117493  2.1953583
1493846236318 -3.9443512  -5.425812 2.0559387
1493846236318 -4.294693 -4.6533966  2.1811981
1493846236318 -3.0714111  -3.879715 1.7881927
1493846236318 -2.1945496  -3.4217377  1.8010101
1493846236318 -2.3165436  -2.1549835  2.2421722
1493846236319 -2.6323395  -0.99194336 2.6207123
1493846236319 -2.2298737  -2.1072998  1.8071136
1493846236319 -0.41244507 -5.9982147  -1.1073303
1493846236319 0.38549805  -12.704514  -8.021805
1493846236319 3.7174988 -18.825165  -18.55571
1493846236319 13.201187 -19.474823  -14.607971
1493846236320 6.0286407 -13.262787  -5.6051483
1493846236320 -0.91096497 -3.4069824  -0.48872375
1493846236320 1.3537445 1.1966095 3.8843384
1493846236320 -2.9709778  -10.193756  3.0595398
1493846236320 -6.346695 -17.834457  -5.5248413
1493846236320 -1.5200348  -19.043472  -14.295227
1493846236320 -1.6417084  -6.5509186  12.334961
1493846236321 -9.239273 -2.9263763  7.028778
1493846236321 -6.4309387  -6.3986206  5.2973633
1493846236321 -1.2754517  -11.496506  4.555969
1493846236321 5.145294  -12.60173 5.5845795
1493846236321 8.276276  -13.315811  2.3209229
1493846236321 4.1151123 -12.30722 -0.39997864
1493846236322 -0.6863861  -8.954132 0.7358246
1493846236322 -3.5375519  -8.438507 2.41008
1493846236322 -4.285095 -9.115967 1.1194
1493846236322 -3.350647 -9.474838 0.40997314
1493846236322 -1.9237823  -9.089218 0.050079346
1493846236322 -0.9268646  -8.497314 -0.1295166
1493846236322 -0.40257263 -8.150085 0.2771454
1493846236323 -0.00630188 -8.4986725  1.1873016
1493846236323 0.827713  -9.388779 1.8978577
1493846236323 1.3852081 -9.773727 2.0579681
1493846236323 1.1515808 -9.735779 0.53274536
1493846236323 0.85032654  -9.934586 -1.1008453
1493846236323 1.0973663 -10.306931  -1.5921631
1493846236323 0.71255493  -10.880035  -1.4181976
1493846236324 -0.21780396 -11.237198  -1.5210266
1493846236324 0.20727539  -11.260483  -1.5541992
1493846236324 0.89923096  -11.249634  -1.5188599
1493846236324 0.60920715  -12.528687  -3.3571777
1493846236324 1.5933228 -14.861206  -3.3730927
1493846236324 1.9147491 -15.964172  -2.771988
1493846236325 -1.643753 -14.855164  -4.116974
1493846236325 -4.4467163  -13.198898  -1.5054626
1493846236325 -3.7069397  -12.963013  4.49234
1493846236325 -2.4719543  -13.727066  7.9759064
1493846236325 -3.4976654  -14.610565  4.801651
1493846236325 -3.963562 -15.871429  0.12409973
1493846236326 -1.0143433  -14.359848  -2.0093842
1493846236326 2.527649  -10.785507  -0.25805664
1493846236326 2.4227448 -9.261597 2.2563019
1493846236326 0.32359314  -8.480057 3.1831207
1493846236326 -1.3754578  -7.4768066  2.69339
1493846236326 -2.4970245  -6.3950195  2.0927734
1493846236326 -2.416092 -4.8053284  1.7727203
1493846236327 -2.7377625  -4.208359 2.1801605
1493846236327 -2.4745178  -3.8085175  2.5816498
1493846236327 -2.4814148  -2.6548157  2.7823334
1493846236327 -3.149109 -1.3728485  3.0027466
1493846236327 -3.3625793  -1.7878113  3.0339355
1493846236327 -1.6278992  -4.5597534  1.2812195
1493846236327 0.2693329 -10.486969  -3.049469
1493846236328 -0.109313965  -18.46495 -17.7238
1493846236328 6.837616  -19.474823  -19.722397
1493846236328 7.233536  -17.577393  -2.9260864
1493846236352 0.70521545  -3.6259918  3.2142181
1493846236353 -1.4824219  2.9506073 6.701065
1493846236353 -3.6309662  -7.149124 -0.55851746
1493846236353 -1.4414215  -18.137207  -7.76297
1493846236353 0.5441742 -19.473083  -11.265045
1493846236353 3.6564941 -10.060486  10.269058
1493846236353 -2.9068146  -1.8217773  12.433121
1493846236354 -9.413376 -3.6376495  4.258133
1493846236354 -3.8532867  -11.127548  3.8443604
1493846236354 0.66166687  -12.347305  3.8376312
1493846236354 5.65979 -12.36676 2.6254425
1493846236354 4.4823303 -12.725479  0.6403198
1493846236355 0.87649536  -10.227386  -0.41557312
1493846236355 -2.4557343  -8.959  1.3408661
1493846236355 -3.8289185  -8.537781 1.7842102
1493846236355 -4.2470245  -9.257248 0.078323364
1493846236355 -2.8841095  -9.226837 -0.55307007
1493846236355 -1.537323 -8.503357 0.2581787
1493846236355 -1.076767 -8.360748 1.4259949
1493846236356 -1.1681366  -8.990082 1.9356384
1493846236356 -0.5730896  -9.576614 2.0045624
1493846236356 0.6157074 -10.088593  2.615738
1493846236356 0.09487915  -9.844376 0.68084717
1493846236357 -1.3937378  -9.249054 -1.3363342
1493846236357 -1.7589569  -9.208237 -0.50883484
1493846236357 -1.2701569  -10.162201  0.1109314
1493846236357 -0.09075928 -10.914978  0.087875366
1493846236357 1.5592041 -11.4869995 -0.24104309
1493846236357 2.7351837 -12.090897  -0.40792847
1493846236357 1.4159088 -12.462799  -1.5505066
1493846236358 -1.9434814  -12.896973  -3.0611115
1493846236358 -3.8217163  -13.197571  -3.8589935
1493846236358 -4.645691 -13.349503  -2.4825592
1493846236358 -5.7478943  -11.941498  1.9626312
