accelerometer_timestamp	accelerometer_x_data	accelerometer_y_data	accelerometer_z_data
1493784096328	1.9539795	5.5080414	6.051361
1493784096343	1.7282562	5.2901306	7.3314514
1493784096362	0.6303711	5.3966217	5.303406
1493784096382	0.9254761	5.788971	4.378601
1493784096402	2.0132294	6.386841	4.577072
1493784096422	2.0059814	6.448761	4.947693
1493784096441	0.74580383	5.9944	4.637497
1493784096481	1.2244568	6.189728	5.273224
1493784096500	1.5141296	6.0601196	6.7981415
1493784096520	2.5243835	6.089203	6.9258423
1493784096540	2.107315	6.064728	6.152878
1493784096560	2.1697083	6.110855	6.3507233
1493784096580	2.2734222	6.0790405	6.634186
1493784096600	2.287918	5.8712616	6.5272827
1493784096619	2.360382	5.8132935	7.2352295
1493784096639	2.2243652	5.7772064	7.613388
1493784096659	1.7314606	5.625763	7.5459747
1493784096679	1.6904602	5.8396606	6.647003
1493784096698	1.8483582	6.4674225	5.568161
1493784096718	1.9564514	6.7715454	5.163925
1493784096738	1.5017242	6.4694366	5.540085
1493784096758	0.7911377	6.032303	6.2323303
1493784096777	0.07304382	5.7576904	6.7835236
1493784096797	-0.14672852	6.023163	7.266098
1493784096817	-0.3585968	6.331192	7.2531433
1493784096837	-0.3391266	6.490555	6.9459076
1493784096857	0.28952026	6.698349	7.701889
1493784096876	0.44831848	6.416733	8.895157
1493784096896	0.06867981	6.209076	9.181488
1493784096916	-0.2372284	6.3327026	8.134399
1493784096936	-0.3566742	6.5747223	7.388275
1493784096955	-0.36064148	6.4801483	7.181839
1493784096975	-0.40769958	6.2734985	7.2891846
1493784096995	-0.17730713	6.300125	7.4858093
1493784097015	0.15322876	6.45343	7.891693
1493784097035	0.2671814	6.34433	7.7656403
1493784097054	-0.0074920654	6.228897	7.2043915
1493784097074	-0.116241455	6.303528	7.2917175
1493784097094	0.31297302	6.503525	7.9089966
1493784097114	0.50115967	6.589676	7.8967285
1493784097134	0.13571167	6.4763947	7.328308
1493784097153	-0.12646484	6.3863525	7.363144
1493784097173	-0.26635742	6.4250793	7.858963
1493784097193	-0.24479675	6.599182	8.232117
1493784097213	-0.3648224	6.4154663	7.490738
1493784097232	-0.6880493	6.2108765	6.9808807
1493784097253	-0.469635	6.1558533	7.213089
1493784097272	-0.46992493	6.163025	7.3897095
1493784097292	-0.6895294	6.2024994	7.9382935
1493784097311	-0.9324341	6.384369	8.122025
1493784097331	-0.79418945	6.5582886	7.55954
1493784097351	-0.3837433	6.7840576	7.289032
1493784097371	-0.32022095	6.81752	7.0844116
1493784097391	-0.10853577	6.7486267	7.0819244
1493784097410	-0.048355103	6.8993835	7.2817993
1493784097430	-0.02482605	6.9964905	7.2039795
1493784097450	-0.061782837	6.8697205	6.94458
1493784097470	0.15840149	7.0001526	7.2824707
1493784097489	0.19618225	7.170044	7.755432
1493784097509	-0.12538147	7.0171356	7.352539
1493784097529	-0.23916626	7.0684814	6.9184723
1493784097549	-0.44104004	6.9685974	6.691864
1493784097569	-0.867157	6.8715515	6.992874
1493784097610	-0.95088196	7.0392303	6.883774
1493784097628	-0.6544342	7.1427	6.6377716
1493784097648	-0.1493988	7.0690155	6.5144806
1493784097668	-0.28886414	6.870636	6.5334625
1493784097687	-0.61221313	6.4621735	5.968094
1493784097707	-0.7958374	6.014679	6.538391
1493784097727	-0.36979675	5.9977875	7.6119843
1493784097747	-0.07121277	5.7901917	7.7781677
1493784097766	-0.192276	5.494339	6.6164856
1493784097786	-0.2366333	5.710022	6.1403046
1493784097806	-0.15788269	5.470978	5.9679413
1493784097826	0.19683838	5.759674	7.230835
1493784097846	0.6415558	6.63591	7.171707
1493784097865	1.2125244	6.9169464	6.4950104
1493784097885	1.0549164	6.191223	6.4424744
1493784097905	1.6523895	6.398178	7.1308136
1493784097925	1.5842133	6.004959	8.017517
1493784097944	1.2764587	5.4902954	8.24527
1493784097964	1.0605621	5.2799683	7.480438
1493784097984	0.99897766	5.4283447	6.608017
1493784098004	1.3327026	5.429947	5.8263245
1493784098024	2.183548	5.1151886	6.02388
1493784098043	2.1252594	4.9702454	6.4693756
1493784098063	2.3683624	4.787094	5.820862
1493784098083	2.4461823	4.7101593	4.554657
1493784098103	2.431015	4.5990143	4.999359
1493784098123	2.6844788	4.8420105	6.5540924
1493784098142	2.590454	5.201645	7.1513824
1493784098162	1.784195	5.0528107	7.068207
1493784098182	1.1495056	4.7988434	8.251694
1493784098202	1.1600342	4.6689453	10.005798
1493784098221	1.6836243	4.767288	10.255936
1493784098241	2.2548065	4.8910065	8.697952
1493784098261	2.4849243	4.402542	5.919052
1493784098281	2.26828	3.6298218	3.3682861
1493784098301	2.2924042	2.0649414	2.1917267
1493784098320	1.822586	-0.19979858	2.0432434
1493784098340	1.3780975	-1.5269928	1.1618347
1493784098360	1.4910583	-1.9868622	0.25169373
1493784098380	1.6274109	-3.4869843	0.522522
1493784098400	1.8446198	-5.400543	0.5775299
1493784098419	3.0173492	-6.595337	1.6065521
1493784098439	7.1876984	-6.7880554	4.003113
1493784098459	13.454605	-5.0053406	8.085205
1493784098479	18.582748	-1.9535828	12.589584
1493784098498	19.461044	-0.0011749268	12.404327
1493784098518	19.461044	0.61224365	6.735306
1493784098538	19.461044	1.4075775	0.41259766
1493784098558	19.461044	2.74086	-3.971756
1493784098577	19.461044	4.5148773	-8.418091
1493784098597	19.461044	5.8045197	-18.12642
1493784098617	15.061249	-0.7307892	-19.673996
1493784098637	12.137833	-1.3014832	-10.497879
1493784098657	10.453445	-3.2191772	-1.81427
1493784098676	11.166199	-2.6961365	2.549408
1493784098716	10.753326	-3.239853	6.3344116
1493784098736	8.7283325	-4.3378906	7.7749176
1493784098756	7.2109222	-5.0650024	6.3378143
1493784098775	6.8878326	-4.745804	3.0952454
1493784098795	6.6348724	-4.4534607	1.1657715
1493784098815	7.411133	-3.6033478	0.16105652
1493784098835	8.737976	-2.4424896	-0.44943237
1493784098855	8.939209	-1.3987579	-1.132019
1493784098874	8.4823	-0.7132416	-6.154312
1493784098894	7.3451385	0.3236084	-16.894943
1493784098914	7.28981	-1.5390778	-2.332489
1493784098934	8.245316	0.49456787	1.9723358
1493784098954	7.612503	-0.8854065	0.22851563
1493784098973	8.200836	-0.14918518	1.0262909
1493784098993	6.8721313	-0.9038696	-1.4594727
1493784099013	5.8066864	-2.1871948	0.5282135
1493784099033	6.874634	-2.676651	0.7272186
1493784099053	6.3288574	-3.7583466	0.95129395
1493784099074	6.051529	-3.67276	0.1974945
1493784099092	5.5376587	-3.6395416	0.42337036
1493784099112	4.708542	-4.0007324	-1.0993958
1493784099132	3.5571747	-5.2891846	-0.5086365
1493784099154	6.144867	-6.3161316	0.2374115
1493784099171	13.063263	-5.759445	0.25242615
1493784099191	15.126114	-5.246399	0.32933044
1493784099211	11.453125	-6.7517395	0.49562073
1493784099230	8.995422	-8.712128	3.409668
1493784099250	10.839447	-9.404953	2.5324097
1493784099270	11.793991	-10.604874	0.5853119
1493784099290	14.741592	-11.1171875	-1.8339539
1493784099309	11.462952	-8.706879	-2.0297089
1493784099329	2.6051483	-7.4321594	1.1422272
1493784099349	-1.2939606	-9.243683	-1.1513977
1493784099369	-0.25912476	-10.313858	-1.5443268
1493784099389	0.20661926	-16.091202	4.847473
1493784099408	3.6418457	-16.795212	2.3135223
1493784099428	6.085022	-11.816513	-1.1976471
1493784099448	4.2420044	-7.5857086	-0.7916107
1493784099469	1.6885071	-5.3083496	-0.74172974
1493784099488	0.92193604	-5.3763885	1.289856
1493784099508	-0.041915894	-10.538116	4.0687714
1493784099528	2.9531708	-16.601715	-6.653183
1493784099547	5.5800934	-16.895737	-1.6983948
1493784099567	2.2155457	-9.014877	0.7825165
1493784099588	0.04484558	-5.6239777	0.07647705
1493784099607	0.25942993	-5.53183	0.35549927
1493784099627	0.74380493	-5.3765564	0.5086212
1493784099647	0.77381897	-5.2561035	0.5502014
1493784099666	0.7206726	-4.6900177	-0.39453125
1493784099686	1.1651154	-4.6621246	-0.21090698
1493784099706	0.7405243	-5.391571	-3.292694
1493784099726	0.8687439	-5.9026184	-4.515854
1493784099745	1.2858734	-7.1445007	-6.633011
1493784099764	2.0872192	-9.858353	-8.412155
1493784099785	2.3354797	-12.446274	-10.092438
1493784099825	2.2767792	-13.468994	-10.07489
1493784099844	1.6607666	-13.352661	-8.152298
1493784099864	1.8341064	-12.589127	-4.6047974
1493784099884	0.35186768	-12.2845	-7.0517273
1493784099904	-0.24398804	-13.242584	-5.400421
1493784099923	0.08616638	-14.614197	-1.3063507
1493784099943	1.3973236	-10.570236	0.2500763
1493784099963	2.2076416	-6.5532074	1.2706146
1493784099983	2.7943268	-6.680786	4.8116913
1493784100002	2.6479645	-7.1798553	5.239044
1493784100022	2.4829407	-1.881012	3.7689514
1493784100042	0.30940247	1.5364532	2.3269653
1493784100062	2.4957275	-2.2066345	1.8662109
1493784100082	6.2588654	-2.908142	6.391449
1493784100101	3.434784	-10.578598	11.207779
1493784100122	-0.3596344	-13.505112	2.2147675
1493784100141	-1.5236816	-18.159256	-1.6907654
1493784100161	3.3123932	-10.338379	1.2489014
1493784100181	4.466217	-4.0062103	1.3146362
1493784100200	3.7178345	-11.803665	1.2187958
1493784100220	1.6667023	-10.972412	1.1817474
1493784100240	-3.6621094E-4	-9.595551	0.62298584
1493784100260	0.40400696	-8.731262	0.6786804
1493784100279	1.7332764	-9.494064	0.23510742
1493784100299	2.1181183	-10.634598	-0.26542664
1493784100318	0.95928955	-10.897705	0.35214233
1493784100339	0.873291	-11.164612	0.41575623
1493784100358	2.610733	-11.908478	-0.9114685
1493784100378	5.134186	-12.381454	-1.313446
1493784100398	6.2052	-12.218872	-0.8297272
1493784100417	4.468704	-11.92572	-1.0870056
1493784100438	3.0650482	-12.040741	-2.2298126
1493784100457	3.9179688	-12.148651	-2.730835
1493784100477	6.037628	-11.623947	-2.993164
1493784100497	6.9664	-10.381332	-0.9073181
1493784100517	4.1960144	-10.929184	-1.3825073
1493784100536	0.7314606	-11.964035	-0.24868774
1493784100556	-0.044006348	-14.312439	2.8701477
1493784100577	-1.7113647	-17.375214	4.896469
1493784100597	-2.8811493	-18.20494	4.176178
1493784100616	-2.6825867	-16.026352	1.2382202
1493784100638	-2.31633	-13.918869	-0.84402466
1493784100656	-1.2265472	-12.807037	0.7535095
1493784100674	2.49411	-11.257599	0.70700073
1493784100695	3.2784119	-10.907715	-1.4741669
1493784100715	3.2545013	-7.4812775	0.52952576
1493784100735	3.458664	-4.446518	2.2606964
1493784100755	1.7996826	-3.9611511	3.5066528
1493784100774	-0.83265686	-2.7384033	3.7112122
1493784100794	-2.217865	-2.047943	3.8361511
1493784100814	-2.692871	-2.0624847	3.466095
1493784100834	-2.295227	-2.6026	2.7654114
1493784100854	-1.9944916	-2.829132	1.7163696
1493784100875	-1.2248993	-4.385788	-0.6014404
1493784100893	-0.50994873	-8.357101	-5.7009735
1493784100913	-1.4298096	-15.205627	-13.418152
1493784100933	-2.4640198	-17.813812	-13.048599
1493784100972	-3.1274872	-12.704895	-9.576294
1493784100992	-2.6975403	-9.837631	-6.1952057
1493784101012	-1.213974	-10.632797	-4.70224
1493784101032	-2.850357	-8.428711	-6.455597
1493784101052	-4.2563477	-5.1543884	-7.7896576
1493784101071	-6.869629	-8.471024	-4.739685
1493784101091	-6.010254	-17.694305	-1.0246124
1493784101111	-4.145752	-18.841904	1.9530792
1493784101131	0.76290894	-13.415466	0.8166504
1493784101150	1.4463806	-5.742218	7.5885925
1493784101170	0.23812866	-5.5711975	7.4338074
1493784101190	2.8842468	-7.3142853	6.7707214
1493784101210	5.9547424	-10.405945	5.6823883
1493784101230	5.9255066	-13.634827	-0.3024292
1493784101249	5.83403	-12.899628	-1.3250885
1493784101269	1.3459778	-10.787384	-1.3407135
1493784101289	-2.56073	-9.242035	-0.7930145
1493784101309	-4.0345154	-8.483231	-0.009048462
1493784101328	-2.3475342	-8.671524	0.08143616
1493784101348	0.656662	-9.404144	1.4799805
1493784101368	2.6053314	-9.139557	2.9747467
1493784101388	1.4820862	-8.953796	0.99250793
1493784101408	1.594162	-8.444717	-1.3948822
1493784101429	2.560913	-9.349091	-2.531372
1493784101447	3.6975098	-9.423904	-1.8727112
1493784101467	3.58667	-8.207581	-0.3450775
1493784101487	2.1569061	-8.178925	0.6550293
1493784101506	0.45066833	-9.88472	0.19847107
1493784101526	0.21131897	-11.733337	-0.98861694
1493784101546	2.188034	-12.145065	-0.98683167
1493784101566	4.18161	-11.891571	-0.08294678
1493784101586	4.2586365	-11.777145	-0.5381775
1493784101605	3.460785	-11.787643	-1.9937286
1493784101625	3.635727	-12.198822	-2.9613342
1493784101645	5.049637	-13.13176	-3.5891418
1493784101665	5.966568	-12.622116	-2.761078
1493784101685	4.45932	-11.488663	-1.6720886
1493784101704	0.6081238	-11.956268	-0.93948364
1493784101724	-1.8421631	-13.765472	2.6874542
1493784101744	-3.7703552	-16.27893	4.6332397
1493784101764	-5.1117706	-17.80429	2.5912018
1493784101782	-3.6794128	-17.006897	0.022003174
1493784101803	-1.7448425	-14.932037	-1.6638947
1493784101823	3.1926117	-12.328674	1.5423737
1493784101843	3.0576324	-11.462692	0.53034973
1493784101863	3.4966583	-10.416229	0.59376526
1493784101882	1.7024994	-7.3151245	1.3215942
1493784101902	0.044662476	-5.4986267	3.4274902
1493784101922	-1.1078644	-3.5035553	3.3564453
1493784101942	-1.0616913	-2.7069702	4.2295685
1493784101961	-1.3975525	-2.1114197	4.448883
1493784101982	-2.1952057	-2.1444855	3.4082184
1493784102001	-3.1944275	-2.4256897	1.610611
1493784102021	-2.2570648	-2.888214	0.20544434
1493784102041	-2.0299225	-5.1111298	-1.2710419
1493784102079	-2.4761658	-10.343246	-7.657913
1493784102100	-3.0529175	-15.724289	-11.684738
1493784102120	-4.3157196	-18.021729	-14.563873
1493784102140	-4.0085754	-13.5456085	-9.768234
1493784102159	-2.4326782	-10.672836	-5.91893
1493784102179	-2.4310303	-8.712204	-6.0953064
1493784102199	-4.962311	-7.8021545	-7.328079
1493784102219	-5.190445	-13.158417	-7.117264
1493784102239	-1.3750916	-14.316696	-0.032806396
1493784102258	-1.5932312	-11.703186	5.6387177
1493784102278	-1.8271637	-6.7309113	6.66539
1493784102298	-2.177002	-7.3917236	3.9872437
1493784102318	2.2175446	-10.108948	5.388687
1493784102337	6.209366	-12.724167	6.1598053
1493784102358	7.2281647	-14.502594	1.8547363
1493784102377	5.1686554	-13.920685	-2.2834625
1493784102397	2.5227356	-11.687759	-1.3156738
1493784102417	0.25375366	-10.266541	0.044662476
1493784102436	-3.255783	-8.936737	-0.47966003
1493784102456	-4.4128876	-7.8856964	-0.79130554
1493784102476	-3.4454193	-8.611877	-2.0460663
1493784102496	-0.8805542	-9.013672	-1.2852478
1493784102518	1.3502045	-8.446747	-0.62435913
1493784102537	1.5150299	-7.6013336	-0.14988708
1493784102556	1.6788788	-7.3676453	0.20523071
1493784102576	1.2867584	-8.07634	0.7125702
1493784102596	0.13526917	-9.011551	0.17526245
1493784102617	-0.061935425	-9.314636	-0.42294312
1493784102636	0.7843323	-9.822678	-0.97291565
1493784102655	1.9099121	-10.099045	-1.3929749
1493784102676	1.8661652	-10.4673	-1.8434906
1493784102694	1.1565094	-11.238449	-2.1999207
1493784102714	1.2901611	-11.51178	-1.8763428
1493784102734	1.7520294	-11.214325	-1.2920532
1493784102753	3.03508	-10.885056	-0.41732788
1493784102773	4.143036	-11.195847	-0.94163513
1493784102793	5.0608673	-13.123917	-1.0898285
1493784102812	6.3336487	-14.348419	-0.28598022
1493784102832	3.2505493	-13.707016	0.23576355
1493784102852	-2.9334106	-13.874847	-1.6034851
1493784102871	-5.5888214	-12.372528	-1.3140106
1493784102890	-4.559799	-11.242508	2.7758942
1493784102911	-3.164154	-13.907242	5.251297
1493784102931	-1.6231842	-15.094849	5.328415
1493784102951	-0.9189453	-14.130478	1.3464203
1493784102970	-0.6361084	-12.545624	-0.84547424
1493784102990	-0.79875183	-12.073975	0.6660614
1493784103010	-1.2410431	-12.028885	1.555954
1493784103030	-1.717926	-10.818497	0.66244507
1493784103050	-0.09938049	-8.416763	0.59336853
1493784103069	0.2909088	-6.8235626	0.8711853
1493784103090	0.77926636	-5.913971	2.1450958
1493784103109	0.021530151	-5.556259	1.524353
1493784103129	0.17506409	-5.2208405	1.4976959
1493784103148	0.43728638	-4.8137054	1.262558
1493784103187	-0.055999756	-4.717697	0.95928955
1493784103208	-0.18511963	-5.5402985	0.21943665
1493784103228	-0.34753418	-8.098007	-1.0295715
1493784103247	-0.29891968	-11.358978	-4.097183
1493784103267	-0.4683075	-13.241898	-7.4322968
1493784103287	-1.1384277	-12.382523	-6.28067
1493784103307	-2.6722107	-10.039764	-4.756363
1493784103326	-3.0616608	-9.423492	-3.6070557
1493784103346	-3.0262604	-10.210358	1.4538879
1493784103366	-3.6557312	-10.719742	6.0472107
1493784103386	-5.217148	-8.526245	5.7338104
1493784103406	-4.6344757	-8.174698	4.8448944
1493784103425	-2.4016418	-10.177139	3.6502533
1493784103445	-1.9521179	-11.26889	1.6338501
1493784103465	-0.2599945	-11.948074	-0.6995392
1493784103485	1.6463165	-12.212677	1.5505676
1493784103505	2.2436066	-11.746796	2.386734
1493784103524	2.4461517	-10.591263	1.6236877
1493784103543	1.9158325	-9.822632	0.50891113
1493784103564	1.2140045	-9.758148	-0.4178772
1493784103584	0.38101196	-10.133484	-0.8087616
1493784103603	-0.4373169	-10.3396	-1.361557
1493784103623	-0.96655273	-10.268112	-1.2902527
1493784103644	-0.8421936	-9.942398	-0.743515
1493784103663	-0.93193054	-9.591354	-0.28744507
1493784103683	-1.0980682	-9.721848	-0.098846436
1493784103702	-1.4149017	-10.014709	-0.3010254
1493784103722	-1.6272583	-10.010468	-0.5145874
1493784103741	-1.7748718	-9.664383	-0.60084534
1493784103762	-1.6244965	-9.271408	-0.5044708
1493784103781	-1.105072	-9.415421	-0.6585541
1493784103801	-0.32325745	-10.199478	-1.20018
1493784103821	0.6093445	-10.719147	-1.5743713
1493784103841	1.1271667	-10.389084	-1.5286255
1493784103861	0.9865265	-9.81485	-1.2771759
1493784103880	0.51594543	-9.410538	-0.788147
1493784103900	0.011306763	-9.32164	-0.46658325
1493784103920	-0.22372437	-9.171005	-0.65641785
1493784103940	-0.22209167	-9.27652	-1.2109833
1493784103960	0.07359314	-9.777359	-1.5431213
1493784103979	0.81126404	-10.275497	-1.972641
1493784103998	1.4976654	-10.519012	-1.9547577
1493784104019	1.7918091	-10.433441	-1.4202576
1493784104039	1.4399109	-10.545395	-1.3213043
1493784104058	0.4666748	-10.543701	-1.6095123
1493784104078	-0.55877686	-10.043137	-1.7755737
1493784104098	-1.3697205	-9.362244	-1.8479462
1493784104118	-1.4751892	-9.210434	-2.8726044
1493784104138	-1.3719635	-9.513565	-4.282715
1493784104157	-1.5419769	-9.553909	-5.4663696
1493784104177	-1.5222626	-9.654495	-5.9452972
1493784104198	-1.0587769	-10.033768	-6.2890778
1493784104217	-0.2667389	-10.391113	-6.389435
1493784104236	0.8616333	-11.447327	-6.1627045
1493784104256	2.4181824	-11.791885	-6.171463
1493784104295	2.857376	-10.531937	-6.2333374
1493784104315	2.894226	-8.82312	-4.7632446
1493784104335	1.1994476	-7.9904633	-1.288559
1493784104355	-1.2844086	-7.5315704	-0.1963501
1493784104375	-2.3537903	-7.5509644	-1.1117859
1493784104395	-3.7609406	-8.309067	-1.6329193
1493784104414	-5.1259613	-8.70343	-1.4256439
1493784104434	-5.1557617	-8.782288	-1.7003784
1493784104454	-4.7985077	-9.426102	-1.8834686
1493784104474	-3.0256805	-9.639404	-1.9286652
1493784104494	-1.9980469	-9.605179	-2.2040863
1493784104514	-1.729248	-9.330673	-2.1816711
1493784104533	-1.8118286	-9.123428	-2.5629272
1493784104553	-1.9564209	-8.717514	-3.107376
1493784104573	-2.161148	-8.123108	-3.3161469
1493784104592	-2.3218079	-7.6618805	-3.3313751
1493784104612	-2.4592743	-7.6747284	-3.2799835
1493784104632	-2.3967896	-8.115875	-3.1924744
1493784104651	-2.3544922	-8.505936	-3.1828156
1493784104672	-2.2204742	-8.342789	-3.3102264
1493784104691	-2.3046875	-7.9560547	-3.5865479
1493784104711	-2.344818	-7.6983185	-4.073944
1493784104731	-2.055359	-7.672882	-4.6522217
1493784104750	-1.5328522	-7.821472	-4.865509
1493784104771	-1.1176147	-8.030716	-4.8746185
1493784104790	-1.1728973	-8.381851	-4.9020996
1493784104810	-1.3319397	-8.676437	-5.3703156
1493784104830	-0.69763184	-8.549133	-6.0887146
1493784104849	-0.004760742	-7.709915	-5.798874
1493784104869	-0.82377625	-6.483444	-4.534851
1493784104889	-2.6496124	-6.3856354	-3.3476563
1493784104909	-5.971634	-9.798218	-2.5133972
1493784104929	-7.917099	-16.476639	-3.5131989
1493784104948	-4.4461823	-17.866165	-4.8557587
1493784104968	-2.1053467	-11.881699	-0.019638062
1493784104988	-3.1856232	-6.9406586	3.8848572
1493784105008	-3.7161865	-6.147415	4.2544556
1493784105028	-0.6400757	-6.8832703	6.0924377
1493784105047	3.794754	-8.567322	7.826172
1493784105067	5.5138397	-11.594589	2.7985687
1493784105087	6.5469055	-12.996887	-0.17922974
1493784105105	4.6164856	-11.6914215	-1.5746307
1493784105127	1.9184875	-8.998352	-1.1774597
1493784105146	0.81437683	-7.960495	-1.2040863
1493784105166	1.8981476	-8.208694	-0.5927124
1493784105186	1.8649292	-10.208054	0.00390625
1493784105205	1.8205414	-11.357803	-1.7845612
1493784105226	5.427765	-10.266876	-1.677185
1493784105245	2.5626678	-9.983948	-2.1530762
1493784105265	1.7724304	-8.762497	0.6347809
1493784105285	-0.24531555	-8.716217	1.6532135
1493784105306	-0.27374268	-8.520157	2.75943
1493784105325	-0.12973022	-8.72702	1.6214905
1493784105344	-0.6527252	-10.094742	-0.077178955
1493784105364	0.007156372	-10.127106	1.5120087
1493784105403	0.85609436	-10.788483	0.15022278
1493784105423	2.5174713	-11.525894	-1.4188995
1493784105443	3.1678772	-11.506577	-1.8054962
1493784105462	3.2161865	-11.648407	-1.4400177
1493784105483	3.9128418	-11.445465	-0.8561554
1493784105503	4.071991	-11.282852	-1.569931
1493784105522	4.0082703	-11.306885	-3.4466095
1493784105542	5.8004913	-12.328293	-2.045639
1493784105562	5.31691	-13.6145935	-1.2912903
1493784105581	-1.4328766	-13.004257	-2.4051971
1493784105601	-5.6786346	-12.349838	-2.7042542
1493784105621	-7.123108	-15.077072	1.3362122
1493784105641	-8.317261	-18.914215	5.273224
1493784105661	-8.156784	-17.495972	2.8390045
1493784105681	-5.680084	-14.767593	0.27626038
1493784105700	-3.440277	-13.791779	-1.057251
1493784105720	-0.8590851	-13.419113	-1.126831
1493784105740	1.986206	-12.096298	1.3368225
1493784105759	3.0082397	-10.2786255	0.9799347
1493784105779	1.874588	-7.9905853	0.9131012
1493784105799	-0.26635742	-5.461273	2.574463
1493784105819	-0.75157166	-3.2261047	3.185913
1493784105839	-1.26268	-1.4824219	3.3993378
1493784105858	-0.81378174	-0.39666748	3.034958
1493784105878	0.014022827	-0.6431122	1.845871
1493784105898	0.60484314	-1.6175385	0.24969482
1493784105918	0.2902527	-3.1243439	-2.282196
1493784105937	-1.3257294	-6.050003	-7.5977173
1493784105956	-4.031372	-9.8233795	-9.752457
1493784105977	-7.0704803	-13.394791	-11.492279
1493784105997	-6.9865265	-13.174942	-11.234116
1493784106017	-5.4372406	-10.178528	-7.44664
1493784106037	-6.1629333	-8.756317	-6.79274
1493784106056	-11.436951	-8.926895	-5.828125
1493784106076	-11.767761	-12.502106	-7.3699493
1493784106096	-7.396057	-14.808731	-3.0163727
1493784106116	-0.14607239	-6.4382324	4.206955
1493784106135	-1.2210999	-2.5495605	2.9251862
1493784106155	-1.9757538	-5.523636	2.9236908
1493784106175	-4.523102	-10.952911	6.00914
1493784106195	-4.3191986	-16.142517	4.17247
1493784106213	0.75141907	-16.604187	3.5487823
1493784106234	4.0147705	-14.535522	2.4142761
1493784106254	5.422043	-13.725372	2.3772125
1493784106274	5.7849884	-13.181747	2.7852783
1493784106294	4.116852	-12.39183	0.7185974
1493784106313	2.2636871	-10.508133	-1.5861969
1493784106333	-0.8236389	-10.15361	-2.5341644
1493784106353	-1.5503693	-8.746353	-2.4054718
1493784106373	-1.1894684	-8.567963	-3.8496246
1493784106392	-0.34143066	-8.012207	-0.8048096
1493784106413	0.6789398	-7.174118	2.7540588
1493784106432	-1.2919464	-6.234543	1.8468475
1493784106452	-0.6268616	-5.319107	0.7427521
1493784106472	0.9019928	-7.173889	-1.5738983
1493784106510	3.7187653	-8.782974	-3.5754242
1493784106531	4.4092712	-9.729416	-1.8322601
1493784106551	2.980545	-11.135132	1.3556213
1493784106571	2.359436	-12.194687	-1.147934
1493784106590	2.9582062	-13.044739	-1.2320557
1493784106610	4.2342224	-13.243225	0.88446045
1493784106630	3.319397	-13.715485	-2.0325012
1493784106650	3.2944336	-13.736465	-4.516876
1493784106669	4.300537	-13.753143	-4.5495605
1493784106689	5.758194	-13.982544	-3.2433777
1493784106709	4.6040344	-13.809143	-2.830902
1493784106729	0.87309265	-13.025055	-0.66259766
1493784106749	-3.5639343	-14.275238	0.9632263
1493784106768	-5.7078857	-16.799423	5.3892517
1493784106788	-8.205872	-18.181107	4.381668
1493784106808	-6.3500824	-16.369858	1.20607
1493784106828	-4.4028015	-15.219574	-0.6675873
1493784106848	-1.4964752	-14.504395	-0.70077515
1493784106867	2.5700226	-12.913544	0.5134125
1493784106887	3.3526459	-11.514267	0.77571106
1493784106907	1.9477539	-9.075867	2.462494
1493784106927	1.9178772	-5.6535187	3.8547363
1493784106946	0.11634827	-3.0655212	4.2358093
1493784106968	-0.8197632	-0.6979523	5.018051
1493784106986	-1.5909119	0.30155945	5.0784454
1493784107006	-1.687851	0.07861328	4.211685
1493784107026	-1.720932	-0.53868103	3.0488434
1493784107045	-1.6627197	-1.4329376	1.7604523
1493784107064	-1.6405792	-3.049179	0.4303131
1493784107085	-2.0242157	-6.2843933	-2.7908173
1493784107105	-3.8369904	-13.5299225	-9.659973
1493784107124	-5.751358	-18.719925	-15.550522
1493784107144	-5.868561	-16.838913	-14.202652
1493784107164	-4.235504	-12.117615	-8.127716
1493784107184	-4.041565	-8.801773	-5.147705
1493784107204	-5.632004	-5.5502014	-5.6180725
1493784107224	-6.8072968	-4.705826	-5.838867
1493784107243	-7.3089294	-11.215576	-3.9403992
1493784107263	-6.010666	-15.460083	-0.9359894
1493784107283	-2.0403595	-13.798279	0.6012726
1493784107303	0.34983826	-8.534454	7.50679
1493784107321	-1.7525635	-7.172333	6.890335
1493784107342	-0.1217041	-8.340256	5.742462
1493784107362	1.8673553	-10.477325	6.657318
1493784107382	2.7362823	-12.529282	2.9960175
1493784107401	5.3439026	-14.458618	0.780838
1493784107421	6.3633423	-14.611053	-0.056015015
1493784107441	2.7682648	-11.880096	0.67185974
1493784107461	-1.8982391	-8.76152	-0.28025818
1493784107481	-5.002075	-7.2879486	-3.0873566
1493784107501	-3.1543121	-8.100769	-1.3301544
1493784107521	-1.7600555	-9.741425	-1.1384277
1493784107540	2.0357208	-9.142181	1.0746765
1493784107560	0.7904053	-8.015869	0.34381104
1493784107580	0.7330475	-6.2799835	0.7506561
1493784107618	1.6488342	-6.6299744	-0.28321838
1493784107639	1.2827301	-7.5625916	-1.2584229
1493784107659	1.3835449	-10.08403	0.4389038
1493784107679	1.3655243	-11.202942	0.093933105
1493784107698	0.78816223	-11.543137	-1.8805542
1493784107718	0.510376	-12.344131	-1.0144653
1493784107738	2.3856506	-13.455124	-0.3354187
1493784107758	4.135391	-13.308868	-0.80163574
1493784107777	3.841919	-12.679642	0.34571838
1493784107797	3.2856445	-12.582474	-2.1795502
1493784107817	4.8436127	-12.838226	-2.5485992
1493784107837	4.366455	-13.000824	-3.622467
1493784107856	3.7893982	-12.712906	-3.9927979
1493784107876	0.84469604	-11.83432	-1.5286865
1493784107896	-2.3137512	-12.002594	-0.10809326
1493784107916	-4.1576843	-13.79567	4.629196
1493784107935	-6.5401154	-17.172424	4.8277435
1493784107955	-7.81723	-18.220123	1.9099579
1493784107976	-5.4019623	-16.136032	-0.60369873
1493784107998	-3.764801	-14.084702	-0.5874481
1493784108018	-1.0860138	-12.808685	0.9365845
1493784108037	2.194168	-12.211563	1.2274628
1493784108057	2.6049805	-10.9592285	-1.1894073
1493784108081	2.8283844	-7.9169464	1.3326721
1493784108097	3.080368	-4.9601746	3.706131
1493784108117	0.40151978	-2.9608154	4.26976
1493784108143	-1.0208282	-1.2285004	4.690277
1493784108156	-1.5674591	-0.79296875	4.7010345
1493784108174	-1.7294159	-0.94699097	4.04541
1493784108195	-1.7213135	-1.3807831	2.9876404
1493784108214	-1.6923218	-2.0220642	1.7059021
1493784108234	-1.7854156	-3.7985077	0.25447083
1493784108256	-3.1550598	-9.179855	-5.046707
1493784108281	-5.8281403	-16.60402	-12.569199
1493784108293	-7.222809	-19.474823	-17.192764
1493784108313	-6.1979065	-15.056335	-12.5685425
1493784108332	-4.8004303	-9.478088	-4.924835
1493784108351	-5.664276	-6.155243	-3.2419891
1493784108373	-7.3084717	-5.248352	-5.202484
1493784108394	-8.3346405	-11.807602	-6.1827545
1493784108414	-5.757889	-14.862991	-0.7508545
1493784108433	-3.1656952	-12.439545	1.3588867
1493784108454	1.0973969	-9.005142	6.9319763
1493784108473	0.4268341	-8.127365	7.5835724
1493784108494	0.48042297	-9.085587	6.418579
1493784108513	2.530655	-10.54863	6.886902
1493784108532	3.158371	-11.785614	2.598236
1493784108553	3.43396	-14.061783	-0.9445038
1493784108572	4.302429	-13.864624	-0.11642456
1493784108593	1.452179	-11.45343	0.79026794
1493784108611	-1.5671844	-7.526001	0.8040924
1493784108645	-6.9301453	-7.31662	-1.8423157
1493784108653	-3.6305237	-8.885941	-1.797226
1493784108670	-0.7752075	-10.229279	-0.056518555
1493784108691	1.8829803	-9.412781	2.6143951
1493784108728	0.94314575	-7.5057983	1.8370514
1493784108751	1.3778839	-6.5557404	-0.8032074
1493784108772	2.3365326	-8.223068	-1.0603027
1493784108792	2.7394257	-10.501114	-1.022583
1493784108810	2.7879028	-10.028519	-1.522232
1493784108829	1.9698334	-10.093689	-1.003067
1493784108851	0.6093445	-11.599487	-0.76815796
1493784108871	0.08206177	-12.904373	-1.4015808
1493784108893	2.7339478	-13.190094	-0.39759827
1493784108911	4.148514	-12.8220215	0.42333984
1493784108930	1.5349426	-12.436096	-1.1453247
1493784108950	1.3893127	-12.576706	-2.9487
1493784108970	2.9233246	-12.8658905	-2.6720276
1493784108992	3.7799072	-13.2509	-4.0791016
1493784109010	3.7887726	-12.620148	-2.8693237
1493784109029	-0.70635986	-12.078918	-1.959732
1493784109049	-2.8334503	-12.371765	1.753418
1493784109069	-4.0336914	-15.61795	5.274765
1493784109088	-7.300293	-17.943115	3.71727
1493784109107	-6.59317	-17.563675	0.19758606
1493784109126	-4.7829742	-15.6514435	-1.4795837
1493784109146	-2.891693	-13.522049	-0.60398865
1493784109165	0.67181396	-12.408157	1.6213989
1493784109185	2.9248657	-11.495834	1.4411469
1493784109204	2.3441925	-9.159454	0.3197937
1493784109223	2.246399	-5.1180115	2.5905151
1493784109244	1.1840057	-2.3912964	4.478424
1493784109265	-0.21937561	-0.62493896	5.388794
1493784109283	-1.2950287	-0.13267517	5.253647
1493784109305	-1.4699097	-0.4152527	4.627655
1493784109324	-1.6647491	-1.0172119	3.2515564
1493784109342	-1.8417206	-1.7268066	1.5972137
1493784109366	-1.6845856	-3.6157837	-0.49084473
1493784109385	-2.802124	-8.765274	-6.1215363
1493784109406	-5.3143463	-16.284058	-12.966721
1493784109425	-6.791687	-19.474823	-16.032242
1493784109444	-5.926361	-15.134155	-11.977524
1493784109461	-4.8957214	-10.433853	-5.5838623
1493784109482	-5.8660736	-6.7940216	-4.400345
1493784109502	-9.037949	-6.817688	-7.112503
1493784109518	-9.877548	-15.065964	-8.771561
1493784109537	-5.1652527	-15.064438	0.6612854
1493784109558	-1.2582855	-8.889313	6.629471
1493784109577	0.6021881	-5.132004	9.67543
1493784109597	-2.1421814	-6.9375916	7.427841
1493784109620	-0.07849121	-9.884247	6.741562
1493784109636	3.6190186	-12.560394	6.638916
1493784109657	4.6116333	-15.471863	-0.37538147
1493784109676	5.3289185	-15.0354	-3.1856842
1493784109696	6.066101	-12.437164	0.3750763
1493784109716	-0.11882019	-9.57869	2.1773376
1493784109737	-3.504547	-6.844116	-1.4578552
1493784109758	-6.2059174	-6.249359	-2.8844452
1493784109777	-3.1665955	-8.178116	-1.582901
1493784109797	0.25445557	-10.77388	-0.80688477
1493784109821	2.9054108	-9.017792	2.7453156
1493784109863	-0.12710571	-7.306015	0.84614563
1493784109863	-1.6050568	-7.0812683	1.0164185
1493784109897	-1.5506897	-9.331223	-0.95365906
1493784109919	-0.2061615	-10.270386	-0.5426483
1493784109936	2.3159485	-9.457962	-2.007248
1493784109955	2.8930511	-10.570511	-0.95928955
1493784109978	1.8522797	-11.479446	-0.113479614
1493784109998	-0.6596527	-12.951019	-2.4863892
1493784110018	3.2724457	-13.378555	-0.5611725
1493784110037	4.1222534	-12.788513	-0.8743286
1493784110057	3.4417267	-13.419464	-1.7947083
1493784110077	4.7355194	-15.203964	-1.5623322
1493784110097	4.5165253	-15.28801	-2.7486725
1493784110113	1.7061462	-14.030502	-2.7817535
1493784110132	-3.2547607	-11.801971	-2.3366394
1493784110151	-4.4316406	-11.728424	0.6257477
1493784110171	-4.652237	-14.693069	4.999954
1493784110190	-6.6376495	-17.007019	4.2001038
1493784110211	-7.578766	-17.102005	0.8473358
1493784110235	-5.017868	-14.762466	-0.6686096
1493784110255	-2.8125305	-12.977478	0.37727356
1493784110274	-2.5117493	-12.106079	0.92329407
1493784110295	-0.536438	-10.472412	0.56036377
1493784110314	2.613861	-8.948166	0.2362976
1493784110335	3.1106415	-6.960129	1.6519165
1493784110352	2.7103577	-4.7734375	3.3397217
1493784110375	0.37052917	-2.7877655	4.0447693
1493784110393	-0.7524872	-0.87272644	4.613144
1493784110415	-1.1764374	-0.3392334	4.2901917
1493784110434	-1.3169556	-0.44488525	3.4943085
1493784110453	-1.4709015	-0.71125793	2.135666
1493784110474	-0.9682617	-2.043106	0.114746094
1493784110493	-1.5689697	-6.130081	-2.8363495
1493784110514	-4.452286	-14.255112	-10.033127
1493784110533	-6.8103485	-19.034744	-16.438034
1493784110553	-6.5291443	-14.783981	-12.500778
1493784110571	-4.952759	-9.449402	-5.477539
1493784110592	-4.445221	-8.189484	-3.5142517
1493784110613	-6.332428	-7.4304504	-6.657776
1493784110629	-9.62561	-15.288315	-9.876663
1493784110650	-7.560669	-19.216003	-3.5491943
1493784110667	-1.791687	-11.671402	4.9001617
1493784110687	0.11090088	-4.3484955	10.3824005
1493784110707	-2.8678894	-4.6298523	7.87442
1493784110727	-1.3731995	-8.334274	6.777313
1493784110747	3.0545807	-11.10994	8.144409
1493784110769	3.4894562	-13.767654	3.832016
1493784110787	3.7277832	-14.809021	-2.1795044
1493784110808	5.1901093	-13.883194	-2.2745514
1493784110827	3.0979462	-11.8701935	1.187561
1493784110850	-0.5782471	-7.730942	1.314682
1493784110870	-4.1391296	-6.9217987	-2.245453
1493784110889	-3.9113617	-7.1006775	-2.1308136
1493784110909	-0.7714081	-9.864243	-1.8208771
1493784110931	3.486847	-9.54454	1.5626221
1493784110969	2.5621948	-8.021362	1.3743896
1493784110969	-1.6575928	-6.6458435	0.15574646
1493784111008	-1.7528687	-8.4075165	-1.7921448
1493784111028	-0.007736206	-9.2771	-0.75613403
1493784111047	2.600174	-9.979416	-0.29005432
1493784111068	2.511856	-10.829742	-0.118270874
1493784111087	0.900177	-11.672501	-0.3441925
1493784111107	-0.52996826	-13.003326	-2.7254028
1493784111127	3.8303223	-13.697311	-0.31829834
1493784111144	4.665085	-13.324936	0.08041382
1493784111165	2.145813	-13.013748	-2.7935333
1493784111182	2.555893	-13.240311	-3.8947449
1493784111202	4.138489	-13.378891	-3.0230865
1493784111221	4.7355957	-13.581146	-3.5100098
1493784111244	2.5197906	-12.471054	-2.028885
1493784111266	-2.3757477	-12.201645	-1.8429108
1493784111285	-5.3645935	-12.727051	3.2855682
1493784111303	-6.5619965	-16.083801	5.473343
1493784111325	-8.40126	-18.09082	2.4176483
1493784111344	-7.1766205	-17.638672	-0.7231598
1493784111364	-4.3291016	-15.544403	-0.40390015
1493784111384	-2.3429718	-13.841263	0.64889526
1493784111404	-0.17723083	-12.175125	0.69506836
1493784111424	2.711319	-9.947815	0.009307861
1493784111443	1.6752014	-8.013412	0.8812256
1493784111460	1.523468	-5.0253754	2.4338684
1493784111482	0.72406006	-2.7479858	3.343399
1493784111500	-0.15318298	-0.46487427	4.9668274
1493784111522	-0.7162018	0.36694336	4.738144
1493784111542	-0.46284485	0.19981384	4.6683807
1493784111559	-0.8296051	-0.26489258	3.2279968
1493784111583	-1.0747681	-1.6369629	0.5863495
1493784111601	-1.5483704	-4.750412	-2.8289032
1493784111622	-4.390503	-11.978622	-10.178009
1493784111638	-7.628769	-18.042618	-17.464859
1493784111658	-6.9204254	-17.191986	-14.159454
1493784111676	-5.4357758	-11.786118	-7.253723
1493784111696	-5.7469025	-8.321472	-3.908661
1493784111716	-8.654892	-6.3591766	-5.0166016
1493784111736	-10.89801	-11.855606	-7.2578735
1493784111755	-7.433914	-15.227386	-2.3537292
1493784111778	-3.4885864	-10.415787	2.264862
1493784111796	0.47917175	-6.2819977	9.160049
1493784111817	-1.7171936	-7.6210327	8.622787
1493784111835	-1.4468231	-10.420395	7.55571
1493784111855	1.7812195	-11.806	7.52771
1493784111881	2.8343658	-13.161926	4.24823
1493784111898	4.3246	-15.034058	-1.7959595
1493784111918	4.9410095	-14.561371	-1.5778809
1493784111938	3.300644	-12.419601	0.837677
1493784111956	-0.32861328	-8.6324005	-0.52378845
1493784111978	-2.9777222	-7.246338	-1.9573822
1493784111997	-4.058716	-8.003372	-2.6120148
1493784112016	-2.055069	-9.265366	-1.8881531
1493784112036	-1.0134888	-9.512741	-0.5510864
1493784112055	0.9109192	-7.6842346	2.1927948
1493784112076	0.26130676	-6.2727814	2.4424286
1493784112115	-0.46316528	-6.8654327	1.0197601
1493784112137	-0.117889404	-7.7589874	-1.2280579
1493784112160	0.8695984	-9.779297	-1.0184174
1493784112171	2.0368195	-10.891266	-1.5799408
1493784112191	1.7496948	-11.225449	-0.65805054
1493784112211	0.85821533	-12.248093	-1.5803223
1493784112230	1.1226959	-12.853119	-1.7344055
1493784112252	4.2042694	-13.1345215	-0.19680786
1493784112272	3.8447876	-12.824341	-0.36457825
1493784112291	1.8649902	-13.13356	-2.5943604
1493784112312	3.2124176	-13.33136	-2.592743
1493784112331	4.700241	-13.517426	-2.602356
1493784112352	5.1422577	-13.098236	-2.0717316
1493784112372	0.8793793	-12.301285	-1.2993011
1493784112392	-3.845459	-12.115021	-1.0111084
1493784112413	-4.9200287	-13.12204	4.331299
1493784112432	-5.9665833	-16.277893	5.084259
1493784112451	-7.2854614	-17.867249	2.5959015
1493784112470	-6.4533234	-17.977371	-0.36366272
1493784112495	-4.108429	-15.159515	-0.29537964
1493784112510	-2.4933624	-12.843689	0.838089
1493784112527	1.2424774	-11.599396	1.1329803
1493784112547	5.08696	-10.214279	0.201828
1493784112568	3.3961487	-8.48439	1.0467834
1493784112589	2.0266113	-5.5210876	3.374939
1493784112607	0.23303223	-2.782364	4.2814026
1493784112631	-0.34236145	-1.1621399	4.8072815
1493784112646	-1.0698547	-1.029068	4.7316284
1493784112668	-1.8909149	-0.8852997	4.2021027
1493784112688	-2.098175	-1.092514	3.003006
1493784112704	-1.9703522	-1.7920227	1.1035156
1493784112725	-1.5930634	-3.7043152	-0.7103882
1493784112744	-2.6985168	-9.489944	-7.687973
1493784112766	-5.442627	-17.023682	-13.610092
1493784112784	-7.0748596	-19.415283	-15.791962
1493784112808	-6.049835	-15.205307	-10.397202
1493784112828	-5.111908	-9.59639	-5.5802307
1493784112847	-6.562195	-5.999298	-5.382126
1493784112865	-9.602142	-7.991699	-6.42395
1493784112886	-9.123871	-16.898483	-5.594452
1493784112906	-5.258499	-14.633713	-0.45687866
1493784112927	0.94670105	-7.9286194	6.1217804
1493784112946	-0.8265228	-5.617111	9.316727
1493784112964	-2.9230194	-7.8407745	7.9950256
1493784112986	-0.14830017	-10.176544	7.443039
1493784113005	2.0126953	-12.670868	6.4431458
1493784113025	3.9802551	-15.226273	0.720871
1493784113045	4.8276825	-15.496475	-2.979782
1493784113065	5.0325165	-13.526367	-0.40652466
1493784113085	1.658905	-10.200867	0.9740143
1493784113104	-1.7213898	-7.401703	-1.156189
1493784113124	-3.4554443	-7.155655	-2.4758606
1493784113167	-1.3805084	-8.782318	-2.939865
1493784113180	-0.09941101	-9.841614	0.054107666
1493784113199	0.99749756	-9.186371	-0.005996704
1493784113221	0.4767151	-7.2238464	1.034378
1493784113239	-0.58833313	-6.735779	0.11968994
1493784113258	-0.8942871	-8.469849	-1.4837646
1493784113283	-0.4610901	-9.655762	-0.3053131
1493784113300	1.1537018	-8.996155	-0.7327728
1493784113320	2.0930786	-9.63382	-1.1420746
1493784113342	2.0334015	-11.094513	-0.6736908
1493784113361	0.45056152	-12.724579	-1.6040802
1493784113382	2.3012238	-13.082642	-0.63023376
1493784113403	3.7147522	-13.028671	0.17506409
1493784113421	2.2448883	-12.753128	-0.5903015
1493784113441	2.3312225	-13.530289	-1.8369598
1493784113462	4.326874	-14.185669	-1.28125
1493784113480	3.7092133	-13.9036255	-3.0193634
1493784113500	0.6080475	-13.059418	-3.8853912
1493784113519	-3.2784882	-10.954803	-1.8703003
1493784113538	-3.376358	-11.273453	1.6085968
1493784113559	-4.0578766	-14.4960785	4.4970245
1493784113577	-6.583191	-17.712341	3.6986237
1493784113601	-7.098404	-18.141678	0.64445496
1493784113620	-5.2155	-15.417557	-0.6756134
1493784113637	-3.794342	-13.05986	-0.2789917
1493784113655	-1.1221161	-12.118027	1.2854156
1493784113677	1.8426208	-11.582962	0.26965332
1493784113696	2.6678925	-9.442276	-0.74549866
1493784113713	2.3178253	-6.857849	1.6494446
1493784113733	2.182373	-5.2210236	3.2939606
1493784113753	0.7305298	-2.9047089	4.4660034
1493784113775	-1.3031006	-0.6142273	5.13443
1493784113797	-1.7722168	-0.36743164	4.567459
1493784113815	-1.6132202	-0.6091919	3.8655243
1493784113837	-1.554184	-1.1370697	2.312317
1493784113856	-1.47995	-2.502411	0.55285645
1493784113876	-1.6051483	-5.934738	-1.5961151
1493784113896	-4.003311	-12.760666	-8.618439
1493784113915	-6.8666077	-18.153748	-16.76886
1493784113936	-6.7081146	-17.552734	-15.404999
1493784113955	-4.6833954	-12.937912	-8.11557
1493784113972	-4.397705	-8.635178	-4.4855347
1493784113995	-5.5910187	-4.7660217	-4.732376
1493784114014	-7.1348114	-4.1227264	-5.298523
1493784114034	-8.528748	-11.326843	-4.0585175
1493784114054	-7.198303	-15.88266	-0.86279297
1493784114072	-1.795517	-14.75119	1.5754395
1493784114094	0.5603943	-9.551529	8.485809
1493784114113	-2.238739	-7.2446594	7.0677795
1493784114133	-0.28756714	-7.676773	6.092972
1493784114157	2.1492004	-10.217529	7.153183
1493784114183	2.4000397	-12.628952	3.1703491
1493784114188	3.2024994	-14.356522	-0.93400574
1493784114208	5.759384	-14.055191	-1.3090363
1493784114246	2.2732391	-12.026566	-0.03605652
1493784114265	-1.4031525	-8.361389	-0.5135193
1493784114285	-3.8895416	-7.120178	-0.79067993
1493784114305	-3.5954132	-7.5238953	-1.6100159
1493784114325	-1.3092499	-9.432861	0.052368164
1493784114344	0.8434448	-9.326874	0.3111725
1493784114364	0.57655334	-8.115921	0.7867737
1493784114385	-0.10101318	-6.565445	0.072769165
1493784114406	0.66441345	-6.9980927	-0.3103943
1493784114425	0.42694092	-9.329544	-0.13908386
1493784114445	0.26660156	-10.965729	0.22892761
1493784114467	1.5566254	-10.519577	0.20680237
1493784114485	2.0099182	-10.907623	-0.7205658
1493784114507	1.6825409	-11.709305	-2.0308685
1493784114527	1.7285919	-12.935883	-2.4720154
1493784114547	3.5376587	-13.114624	-0.52256775
1493784114566	3.3917084	-12.706558	0.039886475
1493784114587	2.2530365	-13.002823	-1.4362488
1493784114606	3.343338	-13.238266	-1.967804
1493784114626	3.7060547	-13.229401	-2.2384033
1493784114646	3.4422302	-13.07077	-3.2024689
1493784114664	1.1362915	-12.412872	-2.5008545
1493784114684	-2.596054	-11.495972	-0.7190399
1493784114702	-4.2108917	-12.166702	2.435608
1493784114722	-5.7092743	-15.074234	5.0138855
1493784114742	-7.7951965	-17.24759	3.7351227
1493784114762	-7.212921	-16.935287	0.73957825
1493784114784	-5.3750763	-14.638184	-0.98457336
1493784114802	-3.3181	-12.631317	-0.29777527
1493784114824	0.07449341	-11.975372	1.271759
1493784114845	2.0237427	-11.848724	-0.04135132
1493784114864	2.3759003	-9.500076	-0.5436249
1493784114883	2.5055542	-6.853119	2.4804535
1493784114905	1.0609589	-4.275833	4.388672
1493784114924	-0.5289459	-1.6970215	4.476959
1493784114944	-1.406723	-0.7407379	4.4650574
1493784114963	-1.5334778	-0.87335205	3.9420319
1493784114983	-1.535202	-1.1820831	3.12706
1493784115003	-1.6495972	-1.7722626	1.7371063
1493784115023	-1.5684204	-3.1598053	0.23672485
1493784115043	-2.3552704	-7.275879	-2.6313324
1493784115063	-5.05394	-14.878799	-9.629578
1493784115082	-7.5443115	-19.002335	-18.072311
1493784115102	-6.2667847	-15.404877	-13.889557
1493784115122	-4.91774	-9.879089	-6.607315
1493784115142	-4.966217	-7.1211395	-3.3977203
1493784115160	-6.13295	-5.2725525	-3.7967224
1493784115184	-8.411575	-8.734955	-5.7043
1493784115197	-7.824417	-15.996887	-5.2751617
1493784115217	-5.254181	-15.099564	0.7904663
1493784115236	-0.32048035	-9.157547	5.378952
1493784115256	-0.85246277	-6.17894	7.3386536
1493784115275	-1.4761505	-6.798538	6.001709
1493784115301	1.5944977	-9.064896	6.831085
1493784115319	3.6761627	-11.876999	7.3251495
1493784115341	4.029251	-14.194046	0.35466003
1493784115360	3.7102814	-14.294556	-2.1667633
1493784115399	4.54805	-12.782333	-0.051712036
1493784115418	0.2680359	-10.383911	0.5579071
1493784115438	-2.8087463	-7.0735626	-0.54234314
1493784115458	-5.0934143	-7.0528107	-1.6029663
1493784115477	-1.4506531	-9.177643	-1.3154755
1493784115498	-0.22851563	-10.55249	-0.2817688
1493784115515	1.3734436	-9.576538	0.76667786
1493784115533	0.30924988	-7.948761	1.2596588
1493784115553	0.32844543	-7.520813	0.021499634
1493784115573	0.9707947	-8.482895	-0.6961975
1493784115593	0.945343	-9.559235	-1.4008636
1493784115613	1.7303314	-10.019257	-1.4841919
1493784115633	2.201126	-10.051773	-0.7757416
1493784115650	1.0132599	-10.716064	-0.4945526
1493784115671	-0.29196167	-11.974609	-1.1782684
1493784115690	2.4376678	-12.760696	-0.16352844
1493784115709	4.065048	-12.751251	0.41513062
1493784115728	1.8543549	-12.277817	-0.8466797
1493784115749	0.87049866	-12.644241	-2.0581512
1493784115772	1.9822845	-13.473053	-3.1499481
1493784115791	3.766449	-13.942535	-3.7153015
1493784115810	3.6701202	-13.152863	-2.4719086
1493784115831	0.12547302	-11.97345	-1.3625793
1493784115850	-2.9261017	-11.865158	-0.06866455
1493784115873	-4.671051	-13.580292	3.8964539
1493784115889	-7.0356445	-16.786789	3.8924103
1493784115913	-6.991211	-17.28746	1.6956024
1493784115931	-4.375122	-15.366135	-0.15484619
1493784115953	-2.3843536	-13.1651	-0.68574524
1493784115972	0.33221436	-12.005829	0.9280548
1493784115992	1.8312225	-12.106949	0.50257874
1493784116012	1.0673065	-10.485138	-0.26132202
1493784116031	1.5753479	-7.6970215	1.7688446
1493784116052	0.80973816	-5.0393677	2.7740326
1493784116073	-0.2874298	-2.5719147	3.9460907
1493784116091	-0.9121399	-1.4969482	4.6022644
1493784116111	-1.477478	-1.3276825	4.4450073
1493784116132	-1.9272461	-1.6146088	3.9023743
1493784116151	-2.0080414	-1.9234009	2.620102
1493784116173	-2.06073	-2.4906921	0.9191284
1493784116196	-1.8990173	-4.6226044	-0.6134186
1493784116206	-3.812622	-10.667114	-6.704788
1493784116226	-5.514694	-18.126663	-14.699921
1493784116245	-6.969391	-19.474823	-16.968231
1493784116265	-5.7122955	-12.883621	-10.779434
1493784116284	-4.3878174	-7.9525146	-4.215744
1493784116309	-4.478714	-5.9804993	-3.118042
1493784116328	-5.2597504	-3.835556	-4.446411
1493784116348	-8.33255	-9.266769	-5.8797455
1493784116368	-7.3029175	-15.988525	-3.0183716
1493784116387	-5.392624	-16.496368	2.2064362
1493784116408	1.124115	-11.079254	3.064865
1493784116427	0.3552246	-6.612915	8.293472
1493784116467	-1.0888519	-6.1674347	5.494293
1493784116485	1.518219	-8.609116	6.748474
1493784116507	1.8368988	-12.324646	4.766678
1493784116526	1.5337982	-14.395004	-0.1680603
1493784116546	3.4952545	-14.665543	-1.8742218
1493784116566	3.6100006	-13.18425	1.3300476
1493784116584	-1.1188202	-9.617783	0.4443512
1493784116606	-3.8827667	-6.9263306	-0.5184479
1493784116625	-4.1076813	-7.5749054	-0.68110657
1493784116645	-1.9726715	-9.422699	-1.1356964
1493784116664	0.2887268	-9.702057	0.07185364
1493784116691	1.7442169	-8.770233	1.0067596
1493784116701	0.57144165	-7.657486	-0.08308411
1493784116720	0.981369	-7.4066315	-0.44256592
1493784116741	0.9412384	-8.873566	-0.5499573
1493784116760	0.98191833	-9.643494	-0.5429535
1493784116779	1.3634033	-9.774979	-1.1808472
1493784116801	1.8178253	-9.804138	-0.6539917
1493784116821	1.0233917	-10.784988	-0.8134155
1493784116841	-0.33529663	-12.188995	-1.3323822
1493784116861	2.0801544	-12.614044	-0.30174255
1493784116880	3.3368683	-12.262131	0.33670044
1493784116899	1.6066895	-12.01059	-1.1211548
1493784116921	1.9524536	-12.939972	-1.8631744
1493784116941	3.7416687	-13.846069	-1.921402
1493784116962	4.0160522	-14.013245	-2.93219
1493784116983	1.8873749	-13.17688	-2.9342194
1493784116998	-2.0853882	-11.391617	-2.0634155
1493784117021	-3.4133606	-11.284088	0.9488373
1493784117041	-4.233032	-14.353836	4.141693
1493784117061	-6.7197876	-17.749435	3.4100037
1493784117080	-7.0219116	-18.006607	1.2467194
1493784117097	-5.1526337	-15.327911	-0.58750916
1493784117122	-3.3902893	-12.949722	-1.1350708
1493784117139	-2.3424835	-12.24884	-0.12805176
1493784117162	1.8308411	-11.928497	-0.04081726
1493784117184	2.572754	-10.7127075	-0.7438965
1493784117202	1.6803741	-7.955475	1.01091
1493784117217	1.1446533	-5.0126038	3.0408325
1493784117234	0.36538696	-2.916977	3.9980469
1493784117254	-0.5713501	-1.475357	4.5795135
1493784117274	-1.394577	-0.8488312	4.3294373
1493784117292	-1.9485321	-1.1244965	3.651184
1493784117316	-1.7738647	-1.3798218	2.553482
1493784117335	-1.8553619	-2.0629425	0.9002991
1493784117355	-1.7669525	-3.8100586	-0.03048706
1493784117374	-3.4083557	-8.653397	-4.461014
1493784117394	-6.2088776	-17.56932	-13.596619
1493784117417	-7.7880096	-19.324387	-18.05043
1493784117436	-5.837845	-14.657257	-11.442276
1493784117456	-3.9837341	-8.604385	-4.569351
1493784117476	-4.8888702	-6.5857544	-3.4333801
1493784117494	-8.493774	-8.354584	-6.194702
1493784117516	-9.62645	-18.396103	-9.574966
1493784117535	-5.9545593	-15.6193695	1.8660889
1493784117573	-0.9686279	-5.940201	5.3763123
1493784117593	-0.86405945	-2.797348	9.333435
1493784117614	-2.8890839	-6.1767426	6.8840485
1493784117634	1.1396637	-9.943192	7.7100983
1493784117654	4.5567017	-12.805405	7.8553467
1493784117674	4.530121	-15.8988495	0.13667297
1493784117692	3.448532	-15.226318	-3.652481
1493784117712	3.0016327	-12.371735	-0.8684387
1493784117729	0.311203	-10.130798	0.16723633
1493784117750	-3.1705627	-7.832535	-0.5045166
1493784117768	-3.1700745	-7.828903	-0.12773132
1493784117788	-1.8807373	-8.782471	-0.9682312
1493784117811	-0.5090027	-10.045868	-0.833725
1493784117829	-0.010528564	-9.856735	-0.7960663
1493784117851	0.7526245	-8.600403	0.5823517
1493784117869	0.5604706	-7.5404205	0.83621216
1493784117888	0.19563293	-7.001526	-0.3410797
1493784117912	0.14277649	-7.794174	-0.35168457
1493784117930	0.39840698	-9.06189	0.60569763
1493784117949	1.0269318	-10.173325	-0.1878357
1493784117972	1.2250977	-10.301498	-0.62184143
1493784117990	0.4306183	-11.079346	-1.2185516
1493784118007	0.6051636	-12.420715	-1.3960114
1493784118031	2.8470306	-12.878906	-0.45892334
1493784118048	3.3240204	-12.712387	-0.19998169
1493784118070	2.4966888	-12.464523	-1.2712097
1493784118091	2.7412262	-12.549011	-2.4166718
1493784118106	3.527954	-12.93132	-2.6167908
1493784118129	3.816803	-13.485779	-2.943283
1493784118147	3.231308	-13.26947	-1.906723
1493784118168	-0.18225098	-12.308624	-1.608551
1493784118186	-4.0524597	-11.3703	0.10531616
1493784118204	-5.2648163	-12.812683	3.5487213
1493784118227	-6.916626	-15.951035	3.6244507
1493784118246	-7.0730896	-17.428787	1.7485657
1493784118263	-4.8738556	-15.98616	-0.19100952
1493784118282	-3.0381775	-13.659042	-1.4026337
1493784118302	-1.5925751	-12.4888	0.33488464
1493784118323	1.3354034	-12.25206	-0.8678436
1493784118344	2.2948303	-11.683304	-1.1671753
1493784118364	2.1726532	-8.559647	0.99282837
1493784118384	1.5049133	-5.3640137	3.496994
1493784118402	0.5248718	-2.8993988	4.283386
1493784118426	-0.020553589	-1.8462372	4.0459747
1493784118445	-0.7656555	-1.6079712	4.3848114
1493784118465	-1.8151855	-1.756958	3.9240723
1493784118484	-2.1336517	-2.1311493	2.9401398
1493784118503	-2.422989	-2.9644012	0.9232483
1493784118524	-2.4915009	-4.129425	-0.28894043
1493784118543	-2.93013	-7.412506	-2.4543457
1493784118563	-4.6083527	-14.68602	-9.593887
1493784118583	-5.66304	-19.296494	-17.748001
1493784118601	-5.9447327	-15.446014	-12.468521
1493784118620	-4.900879	-9.033356	-6.6898346
1493784118657	-3.7993927	-7.895874	-3.3813934
1493784118677	-3.6534882	-6.412918	-3.8539886
1493784118696	-4.194702	-4.689804	-5.437317
1493784118716	-7.4201355	-10.027069	-4.0133667
1493784118736	-6.434204	-15.27739	-1.0502625
1493784118755	-3.3141937	-15.567215	4.0234833
1493784118775	0.099090576	-11.493774	1.3106384
1493784118798	-0.37945557	-6.7423553	5.923004
1493784118819	0.1552124	-5.942108	7.177841
1493784118838	1.8618774	-8.615448	6.97081
1493784118858	1.9250641	-12.467941	4.4806976
1493784118878	2.2523193	-13.758621	-0.23228455
1493784118896	3.7960205	-13.159332	-2.8743286
1493784118923	0.5027313	-10.668182	-1.3214111
1493784118940	-3.2307281	-7.960739	0.03263855
1493784118959	-3.7991486	-7.217743	0.37153625
1493784118981	-1.3727722	-8.652634	0.74072266
1493784118998	1.1955719	-9.951508	0.66300964
1493784119018	0.62120056	-10.211105	-0.63237
1493784119038	0.67378235	-9.424332	-0.15640259
1493784119057	0.41641235	-8.4743805	-0.4132843
1493784119078	0.6341095	-8.54512	-0.12889099
1493784119097	0.5810394	-9.395569	-0.13591003
1493784119114	0.7292633	-9.643875	-0.7997284
1493784119137	0.6324463	-9.580521	-1.1147308
1493784119156	0.93099976	-9.756973	-0.02532959
1493784119177	0.7418823	-10.774292	0.48582458
1493784119194	0.9835663	-11.979874	-0.6061859
1493784119215	2.1993103	-12.058716	-0.57066345
1493784119232	2.4006958	-11.524414	0.3647461
1493784119252	1.7160645	-11.523239	-0.6070404
1493784119271	2.3958282	-12.3233185	-1.8821716
1493784119291	3.1260834	-13.170578	-2.0794525
1493784119314	3.3836365	-13.286423	-2.6073608
1493784119334	1.7263184	-12.630325	-2.9846954
1493784119354	-1.3835297	-11.71196	-2.8079681
1493784119375	-3.1590424	-10.632172	-0.050231934
1493784119394	-3.9789886	-12.460968	3.0256348
1493784119412	-7.028183	-16.551437	3.3689575
1493784119434	-7.7225494	-18.390701	1.8469849
1493784119453	-5.475418	-16.166061	-0.21209717
1493784119474	-3.6024475	-13.303192	-1.4122314
1493784119493	-1.2901154	-12.067612	0.3970337
1493784119513	3.2192688	-11.863937	-0.585022
1493784119533	2.190857	-11.795731	-1.2630005
1493784119552	1.3638458	-8.457962	0.3798828
1493784119573	0.45916748	-5.1533356	4.0677643
1493784119592	-0.11802673	-3.0701294	3.6759338
1493784119609	-0.37475586	-2.3433228	3.882309
1493784119627	-1.2113647	-2.0047913	4.1015167
1493784119647	-2.0614624	-1.9789581	4.2124176
1493784119667	-2.447052	-2.5173798	2.6358795
1493784119686	-2.0633545	-3.0345764	1.2254028
1493784119730	-2.3777618	-4.052902	-0.29067993
1493784119746	-2.3635864	-6.8897095	-1.7291107
1493784119766	-3.9093018	-13.760391	-10.382675
1493784119786	-6.249481	-19.19719	-16.559433
1493784119805	-5.3791504	-16.667648	-14.870804
1493784119825	-4.147293	-11.240952	-7.4980164
1493784119846	-3.019165	-8.232468	-4.573349
1493784119867	-4.3739777	-5.9516296	-5.820816
1493784119887	-6.507263	-6.7415924	-4.639969
1493784119905	-7.6040955	-12.588348	-3.4440155
1493784119928	-4.759918	-13.498703	0.57896423
1493784119948	-1.9396667	-11.830185	2.7080383
1493784119968	0.10221863	-8.251343	6.532959
1493784119986	-1.6086121	-7.808426	4.8382263
1493784120005	0.20622253	-9.323151	6.057602
1493784120025	3.4325104	-11.422104	6.244095
1493784120044	2.5614777	-13.518311	1.8617096
1493784120065	1.9604034	-13.760056	-1.4450684
1493784120081	2.443222	-12.30098	-0.51148987
1493784120101	0.054244995	-10.457611	0.43914795
1493784120120	-2.524765	-8.021942	0.26119995
1493784120140	-3.5598755	-7.314728	-0.57025146
1493784120159	-2.173767	-8.348068	-0.6672058
1493784120179	-0.29963684	-9.638336	-0.13671875
1493784120201	0.5786896	-9.591019	-0.14820862
1493784120220	0.89746094	-9.04335	-0.44177246
1493784120239	0.86273193	-8.496735	-0.46173096
1493784120258	0.9653778	-8.345718	-0.21897888
1493784120278	0.28878784	-9.154739	-0.10055542
1493784120298	-0.0018310547	-9.79686	-0.13986206
1493784120318	0.9736481	-9.912888	-0.5415802
1493784120342	1.86409	-10.162476	-0.54837036
1493784120361	0.89553833	-11.191391	-0.9338684
1493784120382	0.1802826	-11.825684	-1.7188721
1493784120401	1.2310638	-11.921356	-1.4886017
1493784120418	2.7976837	-11.641388	0.47789
1493784120441	2.290802	-11.284348	0.5009308
1493784120460	1.8495636	-11.79306	-1.119278
1493784120481	2.8527374	-12.707718	-1.2537842
1493784120500	3.8455963	-13.310455	-2.1201172
1493784120518	2.3901825	-12.82724	-2.9173126
1493784120542	-0.72436523	-12.037949	-2.1895752
1493784120561	-3.4641113	-10.849487	-0.8846588
1493784120580	-4.5867615	-11.533264	2.1736908
1493784120601	-5.5976105	-14.160019	3.5096283
1493784120619	-7.2338867	-16.89891	2.6721344
1493784120642	-5.6006317	-16.15831	0.76438904
1493784120658	-3.6219177	-13.933624	-0.72447205
1493784120681	-1.7621765	-12.357697	-0.5966644
1493784120698	0.69703674	-11.991821	1.3593903
1493784120717	1.6806641	-11.9505005	-0.41644287
1493784120738	0.2121582	-10.95282	-0.93925476
1493784120755	-0.047439575	-7.3593903	0.84776306
1493784120775	-0.81715393	-6.0919952	2.2117767
1493784120794	-0.14091492	-4.286087	2.5093842
1493784120813	-0.9438782	-2.5700989	3.0167542
1493784120856	-0.8756561	-1.9899902	3.1750946
1493784120876	-1.1228485	-1.7986755	3.2170258
1493784120896	-1.3061218	-1.9685211	2.2491302
1493784120914	-1.5801544	-2.542984	0.9148102
1493784120942	-1.6471558	-4.13739	-0.22607422
1493784120956	-2.514679	-8.938858	-4.1003113
1493784120976	-3.475113	-16.688416	-13.53894
1493784120997	-4.3027496	-18.734238	-17.577286
1493784121016	-4.8981934	-12.841324	-11.3372345
1493784121036	-4.8184967	-8.088684	-5.139801
1493784121056	-4.4384003	-7.3125305	-2.641861
1493784121075	-4.526245	-6.2950134	-3.8571777
1493784121095	-4.1111603	-5.4226074	-4.793869
1493784121115	-6.619049	-9.336945	-4.4500885
1493784121136	-7.4541016	-15.401703	-2.033432
1493784121154	-3.5040436	-15.546204	2.1571503
1493784121174	-1.582016	-12.165741	0.87161255
1493784121194	-0.10308838	-7.0344696	4.9251556
1493784121211	-1.1181183	-5.352371	6.3312836
1493784121231	0.7968292	-7.912445	6.88385
1493784121250	2.6240845	-12.038895	5.2770233
1493784121268	3.2689514	-13.505478	1.537323
1493784121289	3.4782257	-12.630569	-1.4691925
1493784121309	1.6588287	-11.018585	-1.7194366
1493784121329	-2.3896942	-9.11734	-0.8534241
1493784121352	-3.9492645	-7.666382	-0.34632874
1493784121371	-3.336502	-8.191788	0.25300598
1493784121392	-0.85006714	-9.403473	0.71606445
1493784121411	1.3531494	-10.233215	0.6942444
1493784121428	1.7314911	-10.3164215	-0.052963257
1493784121452	1.5773163	-9.460205	-0.3153839
1493784121470	0.9987793	-8.87175	-0.012390137
1493784121493	0.7342529	-8.842117	0.12161255
1493784121510	0.34272766	-9.236404	0.12991333
1493784121529	0.5484772	-9.5998535	-0.1374054
1493784121549	0.76776123	-9.542145	-0.2658081
1493784121568	0.47634888	-9.613403	-0.46209717
1493784121591	-0.012542725	-10.607437	-0.60614014
1493784121611	0.19099426	-11.575668	-0.7928314
1493784121627	0.9508972	-11.666763	-0.3854828
1493784121654	1.9412842	-11.692963	1.2277374
1493784121664	1.2865906	-11.448822	0.6626587
1493784121687	0.6412964	-11.608887	-0.41278076
1493784121705	1.4976501	-12.334549	-0.35986328
1493784121722	3.2546234	-13.4748535	-1.5627441
1493784121742	3.8398895	-13.680939	-2.907196
1493784121762	1.728836	-13.093689	-2.5391083
1493784121782	-2.1614227	-11.521881	-1.7417145
1493784121802	-4.030716	-10.763687	0.2519226
1493784121821	-5.3769836	-12.407166	3.0796661
1493784121842	-6.8384857	-14.69957	2.8977509
1493784121864	-7.4224243	-16.529648	1.6570435
1493784121884	-4.6679993	-14.823685	-0.99349976
1493784121904	-3.6890564	-12.643555	-2.4152374
1493784121925	1.3401489	-11.6707	0.6138153
1493784121962	3.653839	-11.222336	-1.4782715
1493784121985	1.7438049	-10.707687	-0.8786011
1493784122005	1.3183441	-9.002563	1.2266846
1493784122023	1.1302795	-6.3484344	3.0209045
1493784122044	-0.64741516	-4.8525696	3.1171112
1493784122063	-0.8795471	-3.1241913	3.0636597
1493784122083	-1.9498749	-2.4929352	3.229721
1493784122103	-2.2934418	-2.256958	2.9278412
1493784122123	-2.0661316	-2.205185	2.4647675
1493784122143	-2.2386017	-3.350418	0.21603394
1493784122162	-2.552887	-4.2683105	-0.89260864
1493784122182	-2.9818878	-6.7900696	-3.0480804
1493784122202	-4.2776184	-11.944916	-8.503662
1493784122223	-5.2961884	-16.746094	-13.75386
1493784122240	-4.8008575	-16.806152	-14.72464
1493784122258	-3.398941	-12.545151	-8.735886
1493784122278	-2.807251	-9.34259	-4.6122437
1493784122298	-4.250046	-6.060028	-4.3238525
1493784122317	-5.6727753	-4.9503326	-3.7971191
1493784122337	-7.2799683	-8.124115	-2.639328
1493784122359	-7.537079	-13.328049	-1.6612701
1493784122377	-5.261154	-15.332855	-0.5382843
1493784122399	-1.2828064	-12.266617	2.9582672
1493784122418	0.2624359	-8.46225	6.4692535
1493784122437	-1.0518646	-6.9366913	6.078415
1493784122460	0.14553833	-7.710663	6.31868
1493784122478	1.9332733	-10.3120575	5.1491547
1493784122500	2.706787	-12.351639	2.3395996
1493784122519	3.492218	-12.708832	0.30937195
1493784122536	3.700592	-12.4761505	-0.3277893
1493784122559	0.31306458	-10.489349	-0.043411255
1493784122576	-3.233078	-8.057251	-0.8240509
1493784122602	-4.2560883	-7.819046	-0.9520416
1493784122618	-2.0373077	-8.993088	0.23945618
1493784122638	0.7557068	-10.411911	1.1028137
1493784122658	1.6896973	-10.098587	0.9796295
1493784122677	1.6494293	-8.928543	0.1348877
1493784122698	1.5713043	-8.603867	-1.0496063
1493784122722	1.4742432	-9.652847	-1.6777344
1493784122732	1.9054871	-10.552338	-0.42211914
1493784122754	1.7678375	-9.888412	0.40428162
1493784122773	0.65278625	-9.614853	-0.5401764
1493784122792	-0.94854736	-10.087296	-0.616333
1493784122812	-0.77890015	-11.0216675	-0.5986328
1493784122831	0.6405182	-11.409012	-0.54785156
1493784122853	2.1914825	-11.42926	0.27035522
1493784122874	2.255661	-11.628799	0.52767944
1493784122893	1.9125214	-11.473022	0.4484558
1493784122913	1.026825	-11.7487335	-0.91638184
1493784122933	2.0514526	-13.310196	-0.76651
1493784122955	2.9713745	-14.128784	-2.6590881
1493784122974	3.281433	-13.349716	-3.136612
1493784122994	0.591568	-11.478119	-2.1872253
1493784123014	-2.6427765	-10.304062	-2.3901367
1493784123054	-3.635666	-10.67691	2.638977
1493784123054	-5.267563	-13.287491	3.7698364
1493784123093	-7.7776794	-15.929459	3.0133667
1493784123113	-6.413971	-15.933304	0.5933533
1493784123131	-4.1420135	-13.861404	-1.3383942
1493784123153	-1.4826813	-12.124054	0.11109924
1493784123172	4.088974	-11.354492	1.1865692
1493784123192	2.848877	-12.398941	-1.11409
1493784123212	2.917572	-9.504868	0.4399109
1493784123228	1.5900879	-7.389496	2.7229462
1493784123247	-0.12333679	-5.459381	2.8041382
1493784123267	-0.7625885	-3.6136932	3.2795563
1493784123287	-2.0359344	-2.8839417	4.041733
1493784123306	-2.7902527	-2.236847	3.5800476
1493784123326	-2.8610535	-1.9994507	2.6488342
1493784123347	-2.425232	-2.2008514	1.3942261
1493784123370	-2.4878082	-3.7346191	-0.16339111
1493784123388	-2.795166	-6.960968	-3.0416107
1493784123410	-3.5032043	-13.605499	-9.615753
1493784123429	-3.9148865	-17.91092	-13.736374
1493784123448	-5.3150024	-14.503357	-12.591354
1493784123469	-5.2651825	-8.666748	-7.75
1493784123490	-4.5541687	-7.217621	-4.5907135
1493784123511	-4.049698	-7.2140045	-3.6611938
1493784123528	-5.116913	-7.147217	-5.178192
1493784123544	-8.144516	-11.910461	-6.170746
1493784123567	-7.342682	-17.363235	-3.6382446
1493784123590	-3.4029999	-15.515091	0.448761
1493784123607	-0.25283813	-8.780701	4.7826385
1493784123627	-0.0077056885	-5.2450256	7.784439
1493784123644	-0.078201294	-6.8847046	7.4776764
1493784123667	2.4723663	-10.061325	7.6115723
1493784123685	2.774704	-12.953171	4.1313934
1493784123706	2.8515472	-13.684418	-1.0834961
1493784123724	3.9073486	-12.817795	-2.146698
1493784123745	1.5066223	-11.479492	-0.59643555
1493784123767	-1.8239899	-8.860031	0.049468994
1493784123784	-3.6795044	-7.244705	-0.513031
1493784123801	-3.3945313	-7.8744965	-0.8075104
1493784123821	-0.7568817	-9.589355	0.45014954
1493784123839	0.7579956	-10.156097	-0.09762573
1493784123862	1.7231598	-9.464935	0.9636841
1493784123883	0.8520813	-8.1716	0.19961548
1493784123902	0.7191162	-8.68663	-1.8063202
1493784123921	1.0252533	-10.305725	-1.0886078
1493784123943	1.5082855	-10.7378235	-0.70072937
1493784123964	1.4040527	-9.969666	-1.0115051
1493784123983	0.83187866	-9.838058	-0.3099823
1493784124003	-0.68659973	-10.534561	0.03239441
1493784124022	-1.3798981	-11.506638	-0.09173584
1493784124042	0.72224426	-12.018188	-0.005722046
1493784124062	3.3359985	-12.036743	1.1968842
1493784124081	2.692627	-11.637299	0.5215912
1493784124102	0.80410767	-11.556992	-1.4255371
1493784124123	1.4282532	-11.403458	-2.3177185
1493784124161	2.5418549	-11.912491	-2.4761505
1493784124182	3.5399323	-12.920242	-3.5385895
1493784124200	2.1237488	-11.676605	-1.1716919
1493784124219	-1.3461304	-11.138168	-2.1266022
1493784124247	-4.934189	-11.20369	0.5604553
1493784124258	-5.928314	-12.950775	3.6190643
1493784124276	-7.6681366	-15.7534485	2.9309235
1493784124295	-7.364502	-16.289871	0.98983765
1493784124315	-4.669342	-14.358566	-0.6478424
1493784124335	-2.9486237	-12.9835205	-1.3137207
1493784124357	1.2889557	-11.579758	-0.30117798
1493784124376	3.621399	-11.237579	-0.9557648
1493784124397	2.1474304	-10.4917145	-0.5227051
1493784124416	1.392807	-8.042038	1.6494751
1493784124435	-0.31488037	-6.219162	2.9083405
1493784124457	-1.0764313	-4.2776337	2.921997
1493784124477	-0.85775757	-3.3112335	3.8516235
1493784124496	-1.779953	-2.6255188	3.637207
1493784124517	-2.240921	-2.470581	2.9206238
1493784124536	-2.4979553	-2.8666382	1.6538849
1493784124556	-2.8736572	-3.7844238	0.26298523
1493784124575	-3.4709015	-5.987488	-1.7782288
1493784124597	-4.53685	-10.366333	-5.8596954
1493784124616	-5.491791	-15.005844	-11.05658
1493784124635	-5.863968	-14.688171	-12.11058
1493784124654	-5.7474823	-10.269684	-8.721832
1493784124675	-4.7985077	-9.12886	-6.0398254
1493784124692	-4.1198425	-9.189423	-4.595581
1493784124711	-5.158676	-7.7244263	-5.3880463
1493784124733	-7.419464	-7.576538	-5.4987183
1493784124751	-7.921463	-11.702148	-4.3648224
1493784124771	-5.936371	-14.714584	-1.8325958
1493784124793	-2.5441284	-12.987106	1.7201996
1493784124810	-0.32815552	-8.305023	6.817795
1493784124829	-0.38212585	-6.4908752	6.930008
1493784124850	0.6313629	-7.834091	6.005249
1493784124872	2.1208496	-10.295029	6.2353516
1493784124890	2.8118134	-12.386932	3.209732
1493784124911	2.974533	-13.320572	-0.85217285
1493784124930	3.27388	-12.475388	-1.1505585
1493784124948	2.2347107	-10.890289	0.92041016
1493784124971	-1.0611877	-8.52887	0.15278625
1493784124990	-2.5063324	-7.5181885	-0.6981964
1493784125008	-2.631012	-8.33313	-0.006713867
1493784125032	0.09312439	-9.740387	-0.17756653
1493784125051	0.9200287	-10.267654	0.071899414
1493784125071	0.42962646	-9.233368	0.6225891
1493784125090	0.45809937	-9.002258	-0.1232605
1493784125112	0.717453	-8.921326	-0.14620972
1493784125130	0.7671051	-8.697678	-0.7070923
1493784125150	0.86990356	-10.116104	-0.5066376
1493784125172	1.154007	-10.450562	-0.31217957
1493784125189	1.4860535	-10.183823	-0.3277893
1493784125209	0.24092102	-10.794495	-0.68281555
1493784125228	-0.54537964	-11.712433	-1.1632385
1493784125267	1.3365479	-11.53125	-0.39367676
1493784125286	2.1029053	-11.920258	0.47229004
1493784125304	1.9564514	-11.75705	0.5101776
1493784125324	0.8260956	-11.595108	-0.012863159
1493784125344	-0.8674469	-11.51593	-1.9721069
1493784125365	0.20941162	-11.723785	-3.1044617
1493784125386	3.2746887	-12.476028	-3.7449036
1493784125405	3.9567413	-11.871246	-1.904129
1493784125425	2.2548065	-11.77005	-0.25224304
1493784125444	-1.5993042	-12.102478	-0.22904968
1493784125466	-4.4205017	-12.965851	3.6216736
1493784125486	-6.5081635	-15.088852	4.083542
1493784125506	-7.531601	-16.404099	2.823944
1493784125526	-5.592926	-15.2556305	0.36210632
1493784125545	-3.4211578	-13.499817	-1.2478027
1493784125563	0.06260681	-12.0177	-0.921875
1493784125586	4.8245087	-11.798386	-0.016937256
1493784125604	2.9557648	-12.060928	-1.5477295
1493784125625	1.1565552	-8.349289	1.583374
1493784125644	-0.06994629	-6.2941437	3.2165222
1493784125664	-1.0269165	-4.1804047	3.4979706
1493784125684	-1.5471497	-3.1114044	3.8679962
1493784125705	-1.7592926	-2.655304	3.7868958
1493784125724	-2.410141	-2.7896118	3.3713074
1493784125746	-2.6215973	-3.2085266	2.385498
1493784125772	-2.5262756	-3.7513733	0.8316498
1493784125781	-2.6079254	-4.5442657	-0.55752563
1493784125800	-3.276947	-6.8913116	-3.5133057
1493784125819	-4.455429	-11.419022	-8.112946
1493784125838	-5.3886414	-16.32138	-12.558716
1493784125858	-5.524231	-15.7895355	-12.479538
1493784125880	-4.54599	-12.130203	-8.562668
1493784125901	-3.5830536	-9.516907	-4.9433136
1493784125922	-3.3338318	-6.4446106	-4.6679688
1493784125943	-4.381256	-4.671753	-5.6811523
1493784125961	-7.0879517	-9.019348	-5.410141
1493784125981	-6.1823273	-14.228012	-2.1411438
1493784126002	-3.8621368	-15.862671	2.417984
1493784126021	-0.63864136	-12.316071	3.820221
1493784126040	-0.42051697	-8.308334	5.0729523
1493784126058	-0.15977478	-6.4786835	7.006653
1493784126080	0.68614197	-8.504364	6.775635
1493784126099	1.8920135	-11.205612	4.2653503
1493784126121	2.577652	-12.640533	1.1192017
1493784126139	3.666504	-13.017731	-1.8264313
1493784126157	1.5562744	-11.44635	-2.2835083
1493784126179	-1.9328308	-8.877808	-0.8927307
1493784126198	-4.1244507	-7.9400635	-0.71325684
1493784126218	-3.2846375	-7.950119	0.3046875
1493784126236	-0.8904724	-9.617355	1.1234283
1493784126253	-0.04437256	-10.048508	0.7091675
1493784126275	0.84866333	-9.688843	1.3005219
1493784126294	1.7279968	-8.5767975	0.10812378
1493784126313	0.9189453	-8.9700165	-1.1342773
1493784126352	0.70458984	-10.42186	-1.309845
1493784126374	0.35038757	-10.571564	-0.08892822
1493784126394	0.560379	-10.31572	-0.20629883
1493784126414	0.8890991	-10.802078	0.33058167
1493784126434	0.19284058	-11.047287	-0.16287231
1493784126453	-0.70040894	-10.489365	-0.89871216
1493784126472	1.475769	-10.317413	-0.78326416
1493784126495	3.4320984	-10.571793	0.55345154
1493784126515	1.8929138	-11.382156	0.5966034
1493784126535	0.43359375	-11.760544	-1.1311493
1493784126554	1.7174072	-11.543991	-2.4219513
1493784126573	3.1095276	-11.670578	-2.7762756
1493784126594	3.646225	-12.107254	-3.8297577
1493784126614	3.3813171	-11.853973	-2.694397
1493784126634	0.6295471	-11.793396	-0.58821106
1493784126653	-3.4640808	-11.890121	0.37219238
1493784126673	-5.8363495	-13.501953	3.1600342
1493784126693	-7.3988037	-16.194778	3.4439545
1493784126712	-7.035843	-16.188889	1.5039063
1493784126732	-4.691574	-14.555145	-0.30693054
1493784126753	-2.4666748	-13.222244	-1.4221649
1493784126775	0.9717102	-12.052078	0.87509155
1493784126788	4.2740936	-12.015762	0.80415344
1493784126808	1.9909058	-11.508911	-0.80781555
1493784126827	0.6509552	-8.515533	1.2824707
1493784126847	-0.99568176	-5.7651367	3.1354523
1493784126869	-1.6984558	-3.7462463	2.9420319
1493784126888	-1.137558	-2.7288818	3.175354
1493784126906	-1.2023315	-2.5596924	3.7409363
1493784126929	-1.8413391	-2.8759155	3.3260193
1493784126948	-2.3626556	-3.2972412	2.1403046
1493784126969	-2.8423157	-3.9769135	0.8153839
1493784126990	-3.238617	-5.200592	-0.27734375
1493784127005	-3.8332062	-8.348404	-3.1723938
1493784127028	-4.5484467	-13.623749	-8.655197
1493784127049	-5.1426544	-17.819733	-14.198578
1493784127069	-5.1725464	-16.21251	-13.466141
1493784127091	-4.1907654	-11.948822	-7.830124
1493784127108	-3.2881165	-8.588516	-4.4370728
1493784127128	-3.0650024	-5.032257	-3.5780334
1493784127148	-3.8079376	-3.8548584	-3.711731
1493784127165	-7.2066345	-8.31398	-2.7950287
1493784127188	-6.7833557	-14.070114	-0.13597107
1493784127207	-3.515854	-16.477371	-0.1030426
1493784127227	0.20281982	-13.692413	1.1301117
1493784127245	-0.274292	-8.098755	5.3605347
1493784127270	1.1077881	-5.8515015	7.538666
1493784127282	1.8179779	-8.560745	6.646347
1493784127302	1.4532776	-12.2018585	4.854248
1493784127322	2.4119415	-13.139053	0.40052795
1493784127341	4.2375946	-12.592545	-1.6679382
1493784127363	1.4496613	-10.626923	-0.8213959
1493784127386	-2.746109	-9.023254	-0.10568237
1493784127402	-5.2421417	-7.908478	0.16607666
1493784127423	-3.530365	-8.203766	1.1457214
1493784127462	-0.007598877	-9.489532	2.096878
1493784127483	1.2146454	-10.101273	0.7729645
1493784127504	2.1449432	-9.647491	0.47306824
1493784127523	1.5942993	-9.110504	-1.0543518
1493784127544	1.33284	-8.916565	-0.46296692
1493784127563	0.75909424	-9.214432	-0.62913513
1493784127582	0.99757385	-9.706741	-0.026535034
1493784127603	1.0892029	-10.029694	-0.26107788
1493784127622	0.610672	-10.381943	-0.75772095
1493784127643	-0.34925842	-10.643768	-0.6925354
1493784127661	-0.6323242	-11.318375	-0.8140106
1493784127679	0.5591278	-11.66153	-0.63171387
1493784127699	3.2263489	-11.647766	0.44863892
1493784127721	3.8422852	-11.914139	0.986557
1493784127739	1.178009	-11.824417	-0.9247894
1493784127758	0.40071106	-11.668457	-2.0076141
1493784127780	1.4631042	-11.858826	-2.0466614
1493784127801	2.98349	-12.358475	-3.4044952
1493784127814	3.5939636	-12.215469	-2.8947754
1493784127834	1.3731995	-11.669037	-1.251709
1493784127854	-2.5261078	-10.821732	-0.18302917
1493784127874	-5.6675415	-11.246506	2.204483
1493784127894	-7.0919952	-14.090103	3.6784058
1493784127913	-7.3602295	-15.88681	2.507141
1493784127934	-5.230545	-14.771851	0.20573425
1493784127956	-3.785324	-12.958969	-1.3658447
1493784127976	-0.5305939	-11.939453	-0.010772705
1493784127996	3.1957092	-11.9795685	0.3638916
1493784128015	3.015915	-11.7574005	-1.0982361
1493784128036	1.5982819	-9.725693	-0.1277008
1493784128055	0.45043945	-7.199356	2.1183624
1493784128073	-0.07157898	-4.799713	2.6874084
1493784128095	-0.63542175	-3.3374176	2.772873
1493784128115	-1.4809113	-2.8770905	3.2597046
1493784128135	-2.1936493	-2.88768	3.0726776
1493784128152	-2.3469238	-3.20932	2.010254
1493784128176	-2.5237122	-3.804535	0.65844727
1493784128196	-2.7099304	-4.6114197	-0.4329071
1493784128215	-2.9472656	-6.765045	-2.255478
1493784128235	-3.9339142	-11.150406	-6.3089294
1493784128257	-5.047394	-15.853928	-11.930664
1493784128277	-5.619812	-14.763092	-12.148468
1493784128294	-5.0468445	-11.411346	-8.477783
1493784128311	-4.2017517	-10.175766	-5.0774536
1493784128331	-3.9594574	-8.340836	-4.11911
1493784128352	-4.272217	-5.598709	-4.2155
1493784128369	-6.3004303	-8.186951	-4.84758
1493784128392	-7.0693665	-13.518356	-4.7606354
1493784128411	-3.8773956	-15.769028	1.9678192
1493784128432	-2.6808624	-13.41893	0.6330261
1493784128451	1.0975952	-7.543518	6.5365295
1493784128473	-0.37522888	-5.7013855	7.031723
1493784128494	0.9261017	-6.24646	7.8087006
1493784128512	1.8327637	-9.850418	5.3095245
1493784128532	1.5036316	-13.098953	2.4433289
1493784128553	2.811142	-12.982468	-1.5587616
1493784128593	2.656952	-11.816147	-1.8592682
1493784128593	-1.0119324	-9.462982	-0.04208374
1493784128631	-3.350418	-7.8608093	0.29286194
1493784128652	-3.2148285	-8.367218	0.67619324
1493784128670	-1.9896698	-9.68985	0.80662537
1493784128693	0.7751312	-10.291153	0.9088135
1493784128710	1.8930969	-10.248611	0.42326355
1493784128730	1.8710938	-9.8923645	-0.20097351
1493784128751	1.2832489	-9.724548	0.17214966
1493784128773	1.5395508	-9.492065	-0.6407013
1493784128786	2.1546783	-9.525635	-0.1312561
1493784128805	1.9160309	-9.673172	-0.24980164
1493784128825	0.8892517	-9.510269	-0.15074158
1493784128845	-1.4931946	-9.8767395	-1.2748871
1493784128865	-3.0999298	-10.527695	-1.5791626
1493784128886	-0.9651947	-10.925934	-0.5897827
1493784128906	1.9574738	-11.127762	0.6548462
1493784128926	3.2651062	-10.604431	1.0680237
1493784128946	2.645935	-10.34079	1.3612976
1493784128965	0.47206116	-10.576614	0.6955719
1493784128987	-0.79533386	-11.306824	-1.0027924
1493784129007	0.50328064	-12.399796	-1.8052521
1493784129031	2.8271484	-12.984375	-2.4588623
1493784129047	3.9558716	-12.61142	-2.1197205
1493784129066	1.4771118	-11.488953	-1.2191162
1493784129083	-2.4968262	-10.677841	-1.0190277
1493784129107	-4.604126	-12.1736145	1.1430664
1493784129124	-6.1438293	-14.4109955	3.2775574
1493784129146	-6.7030945	-15.3016205	2.615097
1493784129165	-5.394867	-14.597626	1.0789337
1493784129184	-3.6660614	-13.14743	-0.9815216
1493784129206	-0.6479187	-11.734512	-0.7236328
1493784129224	2.4109802	-11.400162	-0.55662537
1493784129243	3.8174286	-11.586044	-0.99357605
1493784129262	2.3281097	-10.0230255	0.39163208
1493784129280	0.5103302	-7.3656006	1.9780731
1493784129303	-0.6646881	-5.28891	2.578537
1493784129319	-1.3204803	-4.0218353	2.8313599
1493784129338	-1.6368408	-3.6788177	3.1174316
1493784129357	-2.2432556	-3.7006073	2.9660034
1493784129376	-2.5358124	-3.802887	2.0607758
1493784129397	-2.7873993	-4.1691284	0.68003845
1493784129417	-3.1144257	-4.788681	-0.36177063
1493784129436	-3.0477753	-6.557892	-1.6287842
1493784129456	-3.501297	-10.39502	-5.19487
1493784129475	-3.8879852	-14.758438	-10.668976
1493784129496	-4.7550354	-15.383163	-12.872864
1493784129516	-4.588135	-11.404266	-9.728363
1493784129535	-3.6493988	-9.513199	-6.111603
1493784129555	-3.2145386	-9.29306	-3.8655548
1493784129574	-3.5871887	-7.4797363	-4.359268
1493784129595	-5.530426	-9.657059	-5.2635956
1493784129615	-6.5138702	-12.877014	-5.197281
1493784129635	-4.6753235	-12.959747	0.29592896
1493784129673	-2.1158295	-9.741028	3.2313995
1493784129694	-0.663147	-7.3137817	5.144058
1493784129713	0.17111206	-7.288147	5.0375366
1493784129733	0.25914	-9.036392	5.583725
1493784129753	2.471344	-11.080032	4.333435
1493784129776	2.6864471	-12.453247	1.4348602
1493784129793	2.9356232	-12.848068	-0.81684875
1493784129813	2.3130035	-12.181534	-0.3314209
1493784129833	-0.0137786865	-10.239746	0.6795349
1493784129852	-2.39534	-8.256729	0.9272766
1493784129877	-3.7633362	-8.067368	0.35499573
1493784129898	-3.8401184	-9.115387	-0.0051574707
1493784129917	-1.9053192	-9.855957	0.5343628
1493784129937	0.7441101	-9.833893	0.6667175
1493784129957	1.3112488	-9.772064	-0.29156494
1493784129976	1.4458008	-9.459412	-0.39675903
1493784129996	1.032898	-9.292374	0.38768005
1493784130016	1.3435822	-9.291763	-0.2521057
1493784130035	1.1978455	-9.622528	-0.3361969
1493784130056	1.3345184	-10.25441	-0.8096924
1493784130075	1.0303497	-10.708252	-0.9442749
1493784130095	-0.2541046	-10.718735	-0.9055786
1493784130115	-1.1828766	-11.05603	-0.7782898
1493784130136	-0.30560303	-11.2764435	-0.87106323
1493784130155	1.5400085	-11.021286	-0.73779297
1493784130174	3.0336304	-10.789658	0.87571716
1493784130193	2.3720398	-10.662445	1.84198
1493784130214	0.045791626	-10.549423	-0.2644348
1493784130233	-0.1995697	-10.720413	-2.014145
1493784130252	1.2868652	-11.507553	-2.3406525
1493784130270	2.6818237	-11.944992	-2.9125214
1493784130290	3.9114075	-12.057632	-1.2336731
1493784130309	1.1021271	-11.651367	-0.5315552
1493784130328	-4.0711365	-11.098389	-0.9198456
1493784130349	-6.4396973	-11.73378	0.8383484
1493784130368	-6.9122314	-13.610611	2.6456451
1493784130391	-5.8281555	-14.834885	2.7496643
1493784130412	-3.9568024	-14.424469	0.60757446
1493784130433	-2.4711304	-12.970566	-1.3381195
1493784130452	-0.6442261	-11.448959	-0.34916687
1493784130471	2.3498383	-11.186111	-0.34628296
1493784130489	1.7080688	-11.512604	0.338974
1493784130511	-0.16882324	-9.679962	0.29135132
1493784130530	-1.1664429	-7.3235474	1.4511414
1493784130552	-1.2843323	-5.5660706	1.7952881
1493784130568	-1.204071	-4.465317	2.1332092
1493784130588	-1.6397095	-4.402008	2.3296967
1493784130612	-1.9992218	-4.390091	2.1845093
1493784130629	-2.0180511	-4.4363556	1.5081787
1493784130649	-2.3970947	-4.7733917	0.32418823
1493784130667	-3.0634766	-5.1355133	-0.36131287
1493784130689	-3.1414185	-6.669403	-1.4723053
1493784130709	-3.318283	-9.913864	-3.5804138
1493784130728	-3.6290588	-13.783478	-8.144989
1493784130748	-4.980255	-16.037323	-13.737442
1493784130786	-5.0851593	-13.190445	-10.588562
1493784130804	-3.0130768	-10.648575	-6.0275726
1493784130824	-2.302765	-9.206436	-3.4954376
1493784130841	-2.5961304	-6.4398346	-3.7068024
1493784130861	-2.4347534	-4.279663	-3.29776
1493784130881	-4.763321	-5.4679413	-1.0936279
1493784130902	-5.9848633	-12.006348	-0.35838318
1493784130924	-5.8155212	-17.942764	-1.6236877
1493784130944	-2.3857727	-16.61847	-4.457535
1493784130964	1.7168579	-8.336258	3.7146606
1493784130983	-0.20274353	-5.652542	6.55661
1493784131003	-1.5199127	-6.1677246	5.676819
1493784131023	-0.07110596	-8.938385	4.5492096
1493784131039	2.8176575	-11.850174	2.8211823
1493784131061	4.739517	-13.122101	0.14083862
1493784131081	3.6508179	-12.309113	-2.0489502
1493784131102	-1.0260162	-10.315781	-1.6768036
1493784131122	-3.4149323	-8.559036	-0.37216187
1493784131142	-3.930069	-8.409348	0.3920288
1493784131162	-3.4553986	-8.776199	0.76652527
1493784131181	-1.7098389	-9.469513	0.44952393
1493784131202	0.7104187	-9.826279	0.43193054
1493784131223	1.3681488	-9.996201	-0.18785095
1493784131243	0.84765625	-9.724731	-1.2465515
1493784131261	0.48265076	-9.679977	-1.558548
1493784131307	0.5129242	-9.961731	-1.3587646
1493784131307	0.6991272	-9.85878	-0.8032532
1493784131318	0.70962524	-9.612762	-0.42980957
1493784131335	0.4658661	-9.745544	-0.4389038
1493784131355	0.023605347	-10.029175	-0.024551392
1493784131375	-0.03552246	-10.387512	0.14433289
1493784131395	0.43476868	-10.705612	-0.3111267
1493784131420	0.9785919	-10.677887	-0.4611206
1493784131440	1.0756531	-10.32518	0.21315002
1493784131460	0.8242035	-10.258759	0.9393921
1493784131479	0.7939911	-11.232361	0.32318115
1493784131499	1.1743164	-12.949142	-1.4273987
1493784131519	2.0629272	-13.803024	-2.5828705
1493784131535	2.267868	-13.353058	-2.6576538
1493784131560	0.6173401	-11.346588	-1.8409119
1493784131577	-1.9508057	-9.125641	-1.2480774
1493784131597	-4.657654	-8.403992	-0.78302
1493784131619	-3.8723907	-9.436157	0.046203613
1493784131638	-1.6545258	-11.943008	1.4685211
1493784131658	-0.34848022	-13.807144	2.869217
1493784131678	-0.25746155	-13.530106	2.108307
1493784131696	-0.747345	-11.979965	1.5207367
1493784131718	-1.032959	-11.800156	0.6123352
1493784131737	-0.32540894	-11.325912	0.7211151
1493784131757	0.18205261	-10.666626	1.4650269
1493784131775	-0.30447388	-9.856781	0.2979889
1493784131801	-0.7486267	-8.618561	-0.15873718
1493784131812	-0.8159332	-7.5560303	0.36180115
1493784131832	-0.8895111	-6.943207	1.287674
1493784131872	-0.61102295	-6.332199	1.5723724
1493784131891	-0.28302002	-5.368576	1.7563171
1493784131917	-0.38182068	-5.488968	1.9028015
1493784131917	-0.761734	-6.0029755	1.482666
1493784131953	-0.48013306	-7.6194916	0.54852295
1493784131971	-0.7998657	-9.702286	-0.26911926
1493784131994	-0.5856323	-10.820633	-0.17170715
1493784132015	-4.5311584	-14.816467	-5.1132965
1493784132034	-4.725174	-12.519211	-2.6050568
1493784132054	-7.559433	-11.416412	0.7024536
1493784132074	-9.173447	-10.430756	0.20219421
1493784132093	-9.3289795	-7.519867	5.4475403
1493784132113	-6.34906	-7.312866	0.5530853
1493784132133	-0.77233887	-12.210648	-0.97702026
1493784132153	6.1368103	-17.83342	-0.72413635
1493784132173	4.4900665	-15.042038	0.89131165
1493784132192	1.5452423	-9.518784	2.1014404
1493784132211	1.3270264	-6.834549	-0.060638428
1493784132232	1.3546448	-7.340454	0.88601685
1493784132253	0.7503357	-9.152603	1.8832092
1493784132270	-1.0957642	-10.3090515	1.4679718
1493784132290	-2.5707397	-9.98555	0.83821106
1493784132323	-2.1276703	-9.732605	-0.5755615
1493784132328	-0.82141113	-9.467529	-0.6870575
1493784132346	-0.16697693	-9.524261	-0.583786
1493784132367	-0.616745	-9.75145	-1.1087494
1493784132386	-1.3795776	-10.109253	-1.2580719
1493784132405	-1.8038025	-10.537064	-0.9011688
1493784132430	-1.6227264	-10.485107	5.645752E-4
1493784132448	-0.9330292	-10.054916	0.7772217
1493784132470	-0.39491272	-9.92189	0.8308258
1493784132489	-0.3219452	-10.022903	0.51516724
1493784132505	-0.23599243	-9.77478	0.3765869
1493784132531	0.11242676	-9.528107	0.4653473
1493784132548	0.6874695	-9.627655	0.55688477
1493784132568	1.5504608	-9.803619	0.7630768
1493784132587	2.231491	-9.980408	1.0783997
1493784132608	2.2084808	-10.201263	1.1902161
1493784132628	1.7455139	-10.359543	1.0453949
1493784132647	1.3776245	-10.590836	0.7571869
1493784132667	1.0743713	-10.634201	0.3751831
1493784132687	0.8199005	-10.648041	0.3684845
1493784132705	0.9751129	-10.804382	0.59950256
1493784132725	1.1240234	-11.075806	0.66981506
1493784132803	0.9756012	-11.378799	0.51820374
1493784132803	-0.8383026	-12.209183	-0.38293457
1493784132803	-1.4143372	-11.803604	-1.4998474
1493784132803	-1.0596771	-10.878952	-2.540619
1493784132820	-0.90063477	-9.876282	-2.5096893
1493784132842	-1.4385376	-9.580765	-1.5460205
1493784132859	-2.4571075	-10.302246	-1.6588135
1493784132879	-2.2016907	-13.185715	-0.54997253
1493784132898	-0.10525513	-13.406647	1.904892
1493784132919	0.8153229	-11.910263	0.61268616
1493784132938	1.0888367	-11.512619	-0.7002716
1493784132978	2.0944824	-12.124359	1.7276917
1493784132997	1.5278168	-12.138733	3.9938507
1493784133017	-1.1408844	-11.714478	2.5230713
1493784133037	-2.3730469	-10.939972	-0.08547974
1493784133057	-2.6013794	-9.945084	0.7162323
1493784133077	-2.2610626	-8.237717	1.7746277
1493784133096	-2.6603546	-7.2485046	2.1625214
1493784133116	-3.022461	-6.760193	1.8243561
1493784133136	-3.1053925	-6.086487	1.8338318
1493784133156	-2.9668732	-6.2931976	1.2622528
1493784133176	-2.8974915	-6.2720337	0.7618561
1493784133195	-3.202774	-5.866165	0.25242615
1493784133215	-3.7673492	-5.5029144	-0.6311798
1493784133236	-4.445511	-5.6460876	-1.7083893
1493784133256	-4.8002625	-7.18956	-3.667801
1493784133276	-4.6087036	-9.636734	-5.9160614
1493784133295	-4.625885	-11.520309	-7.260391
1493784133315	-4.707138	-11.512451	-7.0195313
1493784133337	-4.204422	-10.521454	-6.6292267
1493784133355	-3.630722	-9.353516	-5.372223
1493784133374	-4.015259	-7.8321075	-4.5433044
1493784133393	-5.48674	-7.524292	-4.596985
1493784133413	-7.9551697	-10.485916	-4.1184387
1493784133434	-8.475922	-15.1609955	-2.674759
1493784133452	-5.2434235	-14.737854	-0.8128662
1493784133473	-0.9627991	-9.406372	3.0924377
1493784133495	0.62519836	-5.9187164	6.1349945
1493784133513	0.21083069	-6.623703	6.245117
1493784133535	1.1612549	-8.6814575	5.5874023
1493784133554	2.4637299	-10.906479	3.9246979
1493784133573	2.343811	-13.0568695	1.1090546
1493784133594	2.250824	-12.6515045	-1.0781403
1493784133612	1.5643463	-11.129684	-0.8308258
1493784133632	-0.5548706	-9.47818	0.0023498535
1493784133651	-2.1651764	-8.187363	0.82118225
1493784133681	-3.061615	-8.85083	0.64024353
1493784133695	-2.1520386	-10.035278	0.24580383
1493784133711	-0.64907837	-10.321747	0.42018127
1493784133733	0.28746033	-9.796387	0.6011963
1493784133749	0.8673706	-9.563217	1.0240936
1493784133769	1.262085	-9.304779	0.33461
1493784133789	0.36657715	-8.8424835	0.21759033
1493784133807	0.018066406	-8.897644	0.31721497
1493784175300	-0.21784973	-8.912521	0.5059509
1493784175300	-0.16374207	-8.604477	0.6949158
1493784175300	-0.4243164	-8.573456	0.44081116
1493784175300	-1.4165192	-9.3684845	0.37924194
1493784175300	-2.455429	-10.805527	0.14659119
1493784175300	-1.4441833	-11.6601715	-0.74490356
1493784175300	0.8669739	-11.773499	-1.0454559
1493784175300	2.9760132	-11.797363	-0.5982971
1493784175300	5.2131042	-11.94014	1.1416779
1493784175300	2.6354523	-12.578735	0.22944641
1493784175300	-0.1492157	-12.580154	-3.545807
1493784175300	2.5023193	-12.955688	-2.1941528
1493784175300	4.419098	-12.887253	-2.7873688
1493784175300	4.5357513	-12.466049	-4.499359
1493784175300	1.8735352	-11.997833	-5.495804
1493784175300	-0.14430237	-10.96991	-1.3538818
1493784175300	-1.773056	-10.01503	0.5913696
1493784175300	-2.942398	-13.094528	4.558365
1493784175300	-7.377762	-17.505524	6.012268
1493784175300	-8.855087	-18.220001	1.9215546
1493784175300	-5.5257416	-14.132034	-0.73236084
1493784175300	-2.5482635	-12.895737	-1.7425995
1493784175300	2.0789948	-12.033066	0.6909027
1493784175301	2.3203888	-12.541397	-2.5586395
1493784175301	1.6980591	-10.359695	0.38957214
1493784175301	-0.93556213	-7.66951	1.1775818
1493784175301	-0.8969574	-5.6824036	3.2363892
1493784175301	-1.3031921	-4.414459	3.0999603
1493784175301	-1.914978	-3.214508	3.579132
1493784175301	-1.8522034	-2.7044678	3.653122
1493784175301	-2.2805634	-2.6237946	3.2657013
1493784175301	-2.1105194	-2.7727966	2.0806122
1493784175301	-2.019699	-3.3351288	0.773407
1493784175301	-1.9862213	-4.5167236	-0.5593567
1493784175301	-2.2341614	-7.885559	-3.7403564
1493784175301	-3.4984741	-13.611908	-9.462051
1493784175301	-4.8953857	-18.078949	-14.476517
1493784175301	-4.735901	-16.812836	-13.540298
1493784175301	-3.2181702	-11.779556	-6.6187286
1493784175301	-3.4799652	-7.7927856	-3.5682068
1493784175301	-4.7153625	-4.8956146	-4.3902435
1493784175301	-5.0776978	-5.7058563	-5.777008
1493784175301	-5.9092712	-11.340195	-6.7092133
1493784175301	-4.7878876	-15.696136	-2.892929
1493784175301	-2.375183	-13.782059	0.60687256
1493784175301	-0.4809265	-8.964447	5.034729
1493784175301	-1.04599	-6.3690643	6.712845
1493784175301	-1.3478241	-6.974121	6.2344055
1493784175301	1.5254669	-10.334106	7.056473
1493784175302	3.1351624	-13.513733	3.7378845
1493784175302	3.21167	-14.101639	0.20776367
1493784175302	3.278885	-12.594971	-1.0756531
1493784175302	-0.81204224	-10.217545	-0.45332336
1493784175302	-3.7088623	-7.738968	0.58947754
1493784175302	-5.3677673	-7.755371	-0.47032166
1493784175302	-3.1810913	-9.141846	0.51057434
1493784175302	-1.3868713	-10.305176	-0.13764954
1493784175302	1.575943	-9.734222	1.0503387
1493784175302	2.5002747	-8.869537	-0.036193848
1493784175302	1.6082458	-8.27327	-1.9096222
1493784175302	0.929657	-9.467819	-2.0339966
1493784175302	1.6643066	-9.850189	0.37297058
1493784175302	1.6957397	-9.687637	1.3888245
1493784175302	0.63809204	-9.547836	0.70666504
1493784175302	-0.1724701	-9.31485	0.60424805
1493784175302	-1.652771	-10.286804	-0.22647095
1493784175302	-2.1315613	-10.888336	-1.2009125
1493784175302	-1.5220642	-11.128952	-1.3317871
1493784175302	0.5891266	-10.8124695	-0.036590576
1493784175302	2.4396057	-11.148285	0.84817505
1493784175302	2.9122772	-11.053436	1.2906342
1493784175302	-0.32247925	-10.753159	-0.62384033
1493784175302	-1.602951	-10.955261	-2.2312775
1493784175302	1.3824768	-11.526749	-2.1271057
1493784175302	4.4356995	-12.269272	-3.4165192
1493784175303	4.741638	-11.791183	-3.1956024
1493784175303	2.0946045	-11.30661	-0.7329407
1493784175303	-2.4982605	-11.452362	-1.0071869
1493784175303	-5.333832	-12.152176	1.9488068
1493784175303	-6.699524	-15.978455	3.5116577
1493784175303	-7.6417694	-18.742477	2.7303772
1493784175303	-5.847168	-17.711319	1.0453796
1493784175303	-3.2924652	-14.841995	-0.82743835
1493784175303	0.44325256	-12.78009	-1.0111084
1493784175303	5.7352905	-12.760498	0.9115753
1493784175303	4.1714325	-13.019684	-1.2218933
1493784175303	1.96315	-10.044235	0.16329956
1493784175303	1.3383636	-6.8993073	2.835617
1493784175303	0.79577637	-4.2508087	3.9498596
1493784175303	-0.77137756	-1.7558594	4.3903046
1493784175303	-1.7002258	-0.5386963	4.454605
1493784175303	-2.5509949	-0.8027191	4.134659
1493784175306	-2.670639	-1.4790497	3.2580261
1493784175306	-2.3737946	-2.4356232	1.9928894
1493784175307	-2.3748016	-3.8626556	0.53627014
1493784175307	-2.986435	-6.5318756	-2.1007843
1493784175307	-3.6790771	-11.592957	-7.3249054
1493784175307	-3.996933	-17.176437	-11.817032
1493784175307	-4.7281494	-15.400894	-11.779572
1493784175307	-5.310684	-10.517914	-9.772812
1493784175307	-4.4624023	-9.79068	-7.3389587
1493784175307	-3.4937134	-9.817856	-5.803055
1493784175307	-3.26445	-8.472641	-6.0128784
1493784175308	-5.0675507	-7.283554	-5.70607
1493784175308	-8.167465	-10.259659	-4.6076813
1493784175308	-7.34729	-14.967438	-3.6719666
1493784175308	-5.1269073	-13.985474	-1.6358948
1493784175308	-1.6119232	-8.424698	3.1631012
1493784175308	-0.24064636	-5.723648	8.010132
1493784175308	-0.8858032	-7.0112457	6.6067047
1493784175308	2.2748108	-9.418594	6.1826324
1493784175308	3.467926	-12.842621	5.2945404
1493784175308	2.9766235	-13.858246	0.39544678
1493784175308	2.7722473	-12.480408	-1.583786
1493784175308	1.8067627	-11.160858	-0.622345
1493784175308	-1.7344818	-10.014694	-0.54930115
1493784175308	-3.6884918	-7.851837	-0.39904785
1493784175308	-4.096634	-7.44162	0.50575256
1493784175308	-3.3274841	-9.297913	0.21011353
1493784175308	-0.09313965	-10.434525	1.0064545
1493784175308	1.2909546	-10.229416	0.014770508
1493784175308	2.3353424	-9.525665	-0.33032227
1493784175308	1.7157288	-9.056839	0.08105469
1493784175308	2.0976105	-8.886978	-0.61413574
1493784175308	1.3513641	-9.099319	0.07461548
1493784175308	1.0762787	-9.451645	-1.452774
1493784175308	0.35342407	-9.68512	-1.5522461
1493784175308	-0.08602905	-9.729233	-1.029953
1493784175309	-0.3408661	-10.231812	-0.4136505
1493784175309	0.0113220215	-11.255341	0.3290558
1493784175309	1.1637115	-12.063187	-0.25505066
1493784175309	3.2653656	-11.327744	0.7418823
1493784175309	3.0973816	-10.938644	2.6366425
1493784175309	0.69281006	-11.343079	-0.32650757
1493784175309	0.7115326	-11.980713	-2.29805
1493784175309	2.4651337	-12.619598	-2.2418976
1493784175309	3.25	-13.002579	-3.3766937
1493784175309	3.3924866	-12.262817	-3.6034698
1493784175309	0.9842682	-10.903305	-2.3509521
1493784175309	-2.0176392	-10.106094	-1.7933807
1493784175309	-3.7634888	-10.768539	0.7850952
1493784175309	-5.1226044	-13.362106	3.2053375
1493784175309	-7.005966	-15.897034	2.5797424
1493784175309	-6.2302094	-16.174225	0.89956665
1493784175309	-4.1469116	-14.785751	-1.1027374
1493784175309	-2.014328	-13.684662	-1.5486755
1493784175309	1.6448822	-12.407562	-0.0072021484
1493784175309	2.6550293	-11.909027	-0.27062988
1493784175309	1.6267548	-10.762482	-0.31800842
1493784175309	0.63946533	-8.319031	1.1628876
1493784175309	-1.0954132	-5.8519287	1.882782
1493784175309	-0.9441681	-3.6448212	2.5489197
1493784175309	-0.5582428	-2.3458405	3.7652435
1493784175309	-1.3751526	-1.8340302	3.9343414
1493784175309	-1.9640198	-1.714386	3.2082977
1493784175310	-2.3003082	-2.019928	1.7843018
1493784175310	-2.8805084	-2.8143463	0.32920837
1493784175310	-3.2237244	-4.7531433	-1.3291931
1493784175310	-4.029587	-9.511963	-4.9856415
1493784175310	-5.1161957	-16.759659	-11.265366
1493784175310	-6.130371	-18.713028	-14.994308
1493784175310	-5.4542236	-14.3689575	-12.137573
1493784175310	-4.2164307	-10.763016	-6.3107147
1493784175310	-4.5591736	-8.542648	-4.1957703
1493784175310	-6.169098	-6.403305	-4.8919983
1493784175310	-6.703903	-9.3767395	-6.8380127
1493784175310	-5.350586	-13.674545	-6.5850525
1493784175310	-3.0951996	-11.474426	0.9143219
1493784175310	-1.2861633	-7.3213043	6.498398
1493784175310	-1.1770477	-6.8927307	6.403
1493784175310	-0.6240692	-8.516052	4.6981964
1493784175310	1.4341278	-10.293198	5.6143036
1493784175310	3.1126404	-12.103806	4.83786
1493784175310	2.5721436	-13.030624	0.33883667
1493784175310	1.9059753	-12.315842	-0.8854675
1493784175310	1.591095	-11.303314	1.5189209
1493784175310	0.81614685	-10.316177	1.102005
1493784175310	-1.5519714	-8.085205	-0.5175934
1493784175310	-2.3243103	-8.283737	-0.57754517
1493784175310	-3.0048828	-9.565781	-0.11090088
1493784175310	-0.5500641	-9.669083	0.42462158
1493784175311	0.11672974	-9.987305	-0.394516
1493784175311	0.27659607	-9.552887	0.09075928
1493784175311	1.030304	-9.109909	0.24186707
1493784175311	1.6214905	-8.692688	-0.43832397
1493784175311	1.2863464	-8.739288	-0.40600586
1493784175311	1.102005	-9.078659	0.13694763
1493784175311	0.6049957	-9.422684	-0.6363373
1493784175311	0.21606445	-9.659882	-0.806015
1493784175311	0.09744263	-10.291992	-0.6811218
1493784175311	0.037261963	-11.544907	-1.0655365
1493784175311	1.5670929	-12.240189	-0.29614258
1493784175311	3.845871	-12.441452	0.6813507
1493784175311	3.8051758	-11.996445	-0.22319031
1493784175311	2.3719482	-11.847031	-1.1747437
1493784175311	2.3843384	-12.568497	-1.4319305
1493784175311	2.540329	-13.20961	-1.8230133
1493784175312	2.1590576	-13.332977	-3.1086426
1493784175312	0.14785767	-12.375977	-3.9253387
1493784175312	-1.8906555	-10.549927	-2.678772
1493784175312	-2.5220032	-10.156784	-0.669693
1493784175312	-2.8204346	-12.024445	2.8690796
1493784175312	-4.951767	-14.778595	3.7734833
1493784175312	-6.5379944	-16.494629	1.7342987
1493784175312	-5.328766	-15.785843	-0.22166443
1493784175312	-3.5113373	-13.584412	-0.98513794
1493784175312	-0.89219666	-12.1119995	0.95921326
1493784175312	2.3608093	-11.867218	0.1031189
1493784175313	2.4068756	-11.137268	-0.944458
1493784175315	1.4021301	-8.754562	0.55766296
1493784175315	0.62431335	-6.466919	2.1182098
1493784175315	-0.56225586	-4.7696533	2.8243866
1493784175315	-0.95155334	-3.178833	3.5556946
1493784175315	-1.2768555	-2.2680664	3.8962402
1493784175316	-1.8987122	-2.1564178	3.4153137
1493784175316	-2.4517517	-2.345932	2.435379
1493784175317	-2.9883118	-2.7322693	0.96255493
1493784175317	-3.4023438	-3.8158875	-0.33987427
1493784175317	-3.7462463	-6.6793823	-2.3193207
1493784175317	-4.4161224	-12.600037	-8.040298
1493784175317	-6.101227	-18.26622	-15.282776
1493784175317	-5.6391754	-17.45996	-14.696106
1493784175317	-3.9206085	-12.327545	-8.299713
1493784175317	-4.0631714	-7.42778	-4.5538177
1493784175317	-5.11026	-4.220291	-4.3207703
1493784175317	-7.0005646	-5.9882965	-4.485565
1493784175317	-8.881546	-13.895721	-4.6423035
1493784175317	-4.732147	-14.472122	1.3085938
1493784175317	-1.8314667	-10.976624	2.9305725
1493784175317	0.9935303	-7.8939667	6.4952087
1493784175317	-0.28286743	-7.537552	6.9108124
1493784175317	-0.1947174	-8.396133	6.263382
1493784175317	0.9248047	-10.932053	4.9922028
1493784175317	2.0457153	-13.501129	0.70822144
1493784175329	1.9525452	-13.78273	-1.6102448
1493784175329	2.5356598	-11.971115	1.5458679
1493784175329	2.307434	-10.858017	0.43145752
1493784175329	-0.5041504	-8.948395	0.113861084
1493784175329	-1.2970276	-8.469879	-0.42919922
1493784175329	-0.86901855	-8.801514	-0.29734802
1493784175329	-0.5126648	-10.337128	-1.3227997
1493784175329	0.13279724	-10.196167	-0.38923645
1493784175329	-0.49957275	-9.012619	-0.5828247
1493784175329	0.7111206	-7.998062	0.014678955
1493784175329	0.9107208	-7.6952515	0.16566467
1493784175329	1.0404663	-8.737167	-0.41703796
1493784175329	1.3899536	-9.139633	0.52220154
1493784175329	1.2631836	-10.211258	-0.91397095
1493784175329	1.15065	-10.868179	-1.1222839
1493784175329	0.553833	-10.510422	-0.8808136
1493784175329	-0.54667664	-10.850052	-1.695221
1493784175329	1.0685425	-11.727081	-0.6105194
1493784175329	3.0837402	-12.178268	0.9688568
1493784175329	1.8270264	-12.092804	0.26353455
1493784175329	0.7905731	-11.994156	-1.392456
1493784175329	1.767273	-11.998505	-2.0700378
1493784175329	2.5484009	-12.494217	-2.3925629
1493784175329	2.7864227	-13.537308	-2.6587067
1493784175329	2.0970917	-13.32724	-2.3985138
1493784175329	-0.6131592	-12.090759	-2.015808
1493784175329	-3.0997467	-11.10141	0.5869293
1493784175329	-4.220169	-12.161285	3.2809753
1493784175329	-6.144821	-14.834244	3.709015
1493784175329	-6.844742	-16.367218	1.5728912
1493784175329	-4.6391296	-14.900757	-0.9395447
1493784175329	-1.4690094	-12.963623	-1.1473083
1493784175329	2.507553	-12.070114	0.75027466
1493784175329	3.577057	-12.129868	0.03778076
1493784175329	1.9484558	-10.933441	-0.503479
1493784175329	0.3818512	-8.388977	1.3527527
1493784175329	-0.3422699	-6.0002747	2.3282776
1493784175329	-0.9576874	-4.263275	2.9242554
1493784175329	-1.0843506	-2.8128815	3.3926544
1493784175329	-1.9660797	-1.9332275	3.7164764
1493784175330	-2.5259552	-2.1179047	3.3767853
1493784175330	-2.5901184	-2.6165009	2.2012482
1493784175330	-2.7365265	-3.2018738	1.0280914
1493784175330	-3.1374817	-4.575424	-0.13694763
1493784175330	-3.692398	-8.056061	-2.9131165
1493784175330	-3.7615967	-14.001938	-9.236221
1493784175330	-4.7408905	-18.88089	-14.183548
1493784175330	-5.2655334	-15.12764	-13.3927765
1493784175330	-3.6433563	-11.244232	-7.4585114
1493784175330	-2.0560608	-8.481552	-3.913391
1493784175330	-2.888565	-6.4487	-4.5681305
1493784175330	-4.150223	-5.584732	-5.27536
1493784175330	-8.437225	-12.55629	-5.62973
1493784175330	-6.532013	-17.101593	-2.5343323
1493784175330	-4.1256256	-12.484604	0.50737
1493784175330	-2.8244934	-7.950699	4.807205
1493784175330	-2.2229004	-6.6302185	5.7249756
1493784175330	-2.1096344	-7.8497314	4.8032074
1493784175330	1.5080109	-9.349197	6.9252777
1493784175330	3.3112946	-12.285019	5.348175
1493784175330	3.5186462	-13.4048	0.034347534
1493784175330	2.5936127	-12.467209	-1.7528076
1493784175330	1.7125549	-11.151566	-0.533905
1493784175330	-1.0828705	-9.741074	-0.4799347
1493784175330	-2.6232605	-7.9579163	-0.02758789
1493784175330	-1.4983063	-8.494049	0.24819946
1493784175330	-0.42485046	-9.504776	-0.04248047
1493784175330	0.31124878	-10.559906	-1.2925568
1493784175330	0.5776367	-9.913345	-1.4127502
1493784175330	1.0415192	-9.07341	0.10838318
1493784175330	1.6604156	-8.454193	-0.016113281
1493784175330	1.7716827	-8.571533	-0.6457977
1493784175330	1.246933	-8.952637	0.29682922
1493784175330	0.70848083	-9.484955	0.16221619
1493784175330	0.17434692	-9.830414	-0.19467163
1493784175330	-0.57650757	-10.222153	-1.1692352
1493784175330	-0.4002533	-10.8342285	-1.4472656
1493784175330	0.36479187	-10.990173	-0.5391388
1493784175330	1.4107208	-10.918503	0.07823181
1493784175330	2.3503113	-11.331482	0.54219055
1493784175330	2.3350372	-11.552048	1.0211029
1493784175331	1.1206207	-11.755585	-0.3242035
1493784175331	0.6194	-12.235367	-2.1024017
1493784175331	1.8473663	-13.087631	-2.6579437
1493784175331	3.5600739	-13.472656	-2.9490814
1493784175331	3.5248108	-12.7495575	-1.9531708
1493784175331	0.29014587	-11.296402	-1.5744171
1493784175331	-2.8848267	-10.283096	-0.12823486
1493784175331	-4.4902344	-12.457199	2.8927612
1493784175331	-6.471054	-15.831436	3.6531677
1493784175331	-7.217209	-17.081757	1.7962341
1493784175331	-5.4456024	-15.692978	0.48510742
1493784175331	-4.132248	-13.758423	-1.8756409
1493784175331	0.6437378	-12.021744	1.6457214
1493784175331	3.9130402	-12.456223	-0.50782776
1493784175331	2.689972	-12.123962	-1.616806
1493784175331	2.432953	-8.4077	0.58192444
1493784175331	1.4923096	-6.2252045	3.1431427
1493784175331	0.31617737	-4.640991	3.4897308
1493784175331	-0.42097473	-3.1228027	3.596695
1493784175331	-1.4828339	-2.4809265	3.811203
1493784175331	-2.167099	-2.5657501	3.5084229
1493784175331	-2.6341858	-2.7219696	2.515625
1493784175331	-2.8670044	-3.0917664	0.9372406
1493784175331	-3.1948853	-3.7787933	-0.3387909
1493784175331	-3.3528137	-5.5345154	-2.0497437
1493784175331	-4.234497	-9.900818	-6.8643036
1493784175331	-5.5154724	-15.531311	-11.544785
1493784175331	-5.4830627	-18.458054	-13.770828
1493784175331	-4.4213867	-13.498322	-9.77977
1493784175331	-3.617035	-10.623917	-5.786087
1493784175331	-4.7026825	-7.0917816	-4.2542725
1493784175331	-6.0012054	-4.3434296	-4.4571075
1493784175331	-7.3551025	-7.210083	-4.7582397
1493784175331	-7.360794	-14.421127	-4.874634
1493784175331	-3.7600403	-14.792831	-0.058776855
1493784175331	-1.5420837	-11.04187	2.2246094
1493784175331	0.3891449	-7.6425934	8.012863
1493784175331	-1.6096191	-7.567108	6.44989
1493784175331	0.69940186	-8.602509	6.0333405
1493784175331	2.9543304	-10.885132	5.163742
1493784175331	2.6781006	-13.54451	2.024704
1493784175332	2.813095	-13.639938	-1.4714966
1493784175332	2.895172	-11.673416	-0.22221375
1493784175332	-0.54374695	-9.63327	-0.052139282
1493784175332	-3.122757	-7.7522736	-0.31297302
1493784175332	-3.6271057	-7.8284454	-0.4163971
1493784175332	-1.4946136	-9.2573395	0.08938599
1493784175332	1.0537415	-10.472519	0.2250824
1493784175332	1.7317505	-10.011124	-5.493164E-4
1493784175332	1.8471832	-9.072174	0.058151245
1493784175332	1.6855774	-8.545532	-0.6872711
1493784175332	1.3606567	-8.436493	-0.9387512
1493784175332	0.73335266	-9.152145	-0.76142883
1493784175332	0.56733704	-9.708298	-0.41567993
1493784175332	0.67826843	-9.531021	0.19689941
1493784175332	0.57751465	-9.641449	0.17756653
1493784175332	-0.35256958	-10.681473	-0.39711
1493784175332	-0.5650482	-11.525803	-1.360611
1493784175332	1.0937195	-11.518341	-1.1060791
1493784175332	3.1894684	-11.762558	0.83865356
1493784175332	2.9330902	-12.187592	1.3677063
1493784175332	1.4440613	-12.296463	-0.55111694
1493784175332	0.9071655	-12.216095	-1.6785126
1493784175332	1.8302612	-12.721756	-2.0451508
1493784175332	3.6324768	-13.109116	-3.0054169
1493784175332	3.007904	-12.630142	-2.3575287
1493784175332	-0.59303284	-11.743362	-1.9937897
1493784175332	-3.3459015	-11.1562805	-0.17930603
1493784175332	-4.445755	-12.752701	3.5539093
1493784175332	-6.7864227	-15.4366455	3.7544556
1493784175332	-7.337967	-16.714767	1.9741211
1493784175332	-5.110672	-15.137314	-0.05355835
1493784175332	-3.263504	-13.197357	-2.1334686
1493784175332	0.43269348	-11.522537	0.7917633
1493784175332	4.466568	-12.240036	-1.8577576
1493784175332	2.9801636	-11.038864	-0.6022644
1493784175332	2.9400635	-8.512192	0.989624
1493784175332	1.6412354	-6.452713	2.639862
1493784175332	-0.44580078	-4.9976654	2.8322449
1493784175332	-0.7604523	-3.6099548	3.6347961
1493784175332	-1.8474274	-2.3878174	4.131119
1493784175332	-2.536087	-2.128067	3.882965
1493784175332	-2.8206024	-2.503769	2.488388
1493784175333	-2.5623016	-3.1577148	1.0055084
1493784175333	-3.072342	-4.1759186	-0.32780457
1493784175333	-3.3791962	-6.19693	-2.1988983
1493784175333	-5.088379	-10.773315	-7.0805817
1493784175333	-6.481613	-16.15718	-12.129944
1493784175333	-6.418808	-18.022339	-13.893036
1493784175333	-5.1678314	-13.0298	-9.425034
1493784175333	-3.9976807	-9.865173	-5.033066
1493784175333	-5.2197876	-7.1437836	-3.8833313
1493784175333	-6.968918	-6.409378	-4.265503
1493784175333	-8.445023	-10.824509	-5.096756
1493784175333	-6.3515778	-14.240372	-3.6525116
1493784175333	-2.967804	-12.230072	0.83631897
1493784175333	-0.7072449	-8.58165	5.955261
1493784175333	-0.7163849	-6.9558105	7.163681
1493784175333	-0.21678162	-8.07135	5.426651
1493784175333	2.380005	-10.175781	5.757187
1493784175333	3.885025	-12.597366	3.4092712
1493784175333	3.6094818	-13.355301	-0.6137543
1493784175333	3.0155487	-12.497055	-0.68455505
1493784175333	0.80589294	-11.128372	0.021774292
1493784175333	-2.4601288	-9.168152	-0.69288635
1493784175333	-3.7281036	-7.3107452	-0.54551697
1493784175333	-3.2446442	-8.038895	0.45961
1493784175333	-0.9126129	-9.93811	0.07762146
1493784175333	1.1248169	-10.434174	-1.0677185
1493784175333	1.6665802	-9.733429	-0.54045105
1493784175333	1.7751465	-8.642288	0.71836853
1493784175333	1.3939514	-8.27092	0.2645111
1493784175333	1.2172241	-8.410553	-0.16548157
1493784175333	0.899704	-8.916565	-0.60827637
1493784175333	0.95384216	-9.693573	-0.9654999
1493784175333	1.0105286	-9.942047	-1.3192139
1493784175333	0.2097168	-10.064316	-1.2142639
1493784175333	-0.4360962	-10.744888	-1.0211945
1493784175333	0.068481445	-11.615509	-0.36180115
1493784175333	1.4021301	-12.135742	0.09881592
1493784175333	2.3637238	-12.337585	0.10366821
1493784175333	1.3892517	-11.797119	0.7126312
1493784175333	-0.10836792	-11.520279	-1.8191833
1493784175333	1.5776367	-11.749298	-2.0644226
1493784175333	3.8505096	-12.519974	-2.9536285
1493784175334	4.494278	-12.406067	-2.9820557
1493784175334	2.925537	-12.238968	-1.0831909
1493784175334	-1.6128082	-11.46376	-1.4891357
1493784175334	-4.2021484	-11.732651	1.3440094
1493784175334	-5.963745	-14.13797	4.288391
1493784175334	-8.290085	-16.917343	3.0800629
1493784175334	-6.952774	-17.059921	0.79281616
1493784175334	-3.912735	-14.808563	-0.9606323
1493784175334	-2.051834	-13.066711	-0.8983307
1493784175334	5.8286896	-11.361862	-1.0658417
1493784175334	4.131958	-12.785538	-1.5433502
1493784175334	2.4786072	-9.88324	-0.41496277
1493784175334	1.8993988	-7.5454407	2.92276
1493784175334	0.40931702	-5.0266876	2.8367004
1493784175334	-0.101638794	-3.680359	3.6020813
1493784175334	-1.3168945	-2.5342255	4.22229
1493784175334	-2.2313843	-2.1997986	4.1053314
1493784175334	-2.524109	-2.370636	3.3114624
1493784175334	-2.4712524	-2.624527	1.7424011
1493784175334	-2.4216614	-3.1116333	0.27919006
1493784175334	-2.7133636	-4.51651	-1.004837
1493784175334	-3.4208527	-7.8507996	-4.0069885
1493784175334	-4.3525543	-14.079437	-10.768219
1493784175334	-4.4375763	-18.588776	-14.96962
1493784175334	-4.806534	-14.747208	-11.793564
1493784175334	-4.5747833	-10.37262	-7.0348053
1493784175334	-4.837143	-8.8190155	-4.863785
1493784175334	-6.6592255	-9.112061	-5.083084
1493784175334	-8.243835	-14.495956	-6.59375
1493784175334	-5.892578	-15.86795	-3.5337677
1493784175334	-1.0855865	-8.286621	5.2470703
1493784175334	-0.51545715	-4.365799	7.6010895
1493784175334	-1.2067871	-5.698456	7.873184
1493784175334	-0.31407166	-8.63353	6.32843
1493784175334	2.8013763	-11.994751	5.5842285
1493784175334	3.7554321	-14.765945	1.9086304
1493784175334	2.6560822	-14.090546	-1.8757172
1493784175334	1.6281128	-11.43808	-1.4854279
1493784175334	-0.2619934	-9.972687	-0.13609314
1493784175334	-2.3545227	-8.847809	0.1350708
1493784175334	-2.8357697	-8.255646	0.13334656
1493784175335	-1.7362213	-9.1236725	0.086380005
1493784175335	0.4868927	-10.137741	0.17152405
1493784175335	1.046402	-10.181259	-0.46687317
1493784175335	0.66726685	-9.414581	0.14381409
1493784175335	0.54663086	-8.717758	0.85736084
1493784175335	0.5919647	-8.454758	0.16992188
1493784175335	0.11911011	-8.901703	-0.032684326
1493784175335	0.13601685	-9.482193	-0.6598053
1493784175335	0.52311707	-10.156982	-1.2783813
1493784175335	0.6181488	-10.234909	-0.8745117
1493784175335	0.35964966	-10.052628	-0.78811646
1493784175335	0.036102295	-10.924088	-1.1780853
1493784175335	0.95285034	-11.321732	-1.3096008
1493784175335	3.518814	-11.359528	0.02255249
1493784175335	3.4701538	-11.415482	1.4220123
1493784175335	1.3353271	-11.556564	-0.87449646
1493784175335	1.7472382	-12.24086	-2.1947784
1493784175335	2.7595673	-12.911697	-1.62117
1493784175335	2.9564667	-13.140396	-2.984192
1493784175335	1.2350922	-13.136139	-3.1809692
1493784175335	-3.153244	-11.567184	-2.5991669
1493784175335	-5.0397186	-10.701553	-0.034713745
1493784175335	-5.6986084	-13.601273	3.7605743
1493784175335	-8.589554	-17.542786	4.4795837
1493784175335	-7.562561	-17.61325	0.9002533
1493784175335	-4.041031	-14.244293	-0.9220581
1493784175335	-2.3902435	-11.742386	-2.5223846
1493784175335	3.3891754	-11.319962	0.06085205
1493784175335	3.2350311	-11.765503	-0.33403015
1493784175335	1.7913208	-9.772568	0.55451965
1493784175335	1.333313	-8.310074	1.2209625
1493784175335	0.35668945	-5.97435	1.9785309
1493784175335	-0.6875	-4.478882	2.467041
1493784175335	-1.0531006	-2.9106445	3.3593903
1493784175335	-2.059143	-1.9247437	3.6028442
1493784175335	-2.3022003	-1.7642822	3.2755585
1493784175335	-2.0640717	-2.2931366	1.8769684
1493784175335	-2.1738892	-3.2291107	0.38116455
1493784175335	-2.7681122	-4.9035187	-1.3644257
1493784175335	-4.1269073	-8.84787	-5.2712097
1493784175335	-5.9751434	-14.711945	-10.970734
1493784175336	-6.7165985	-17.848923	-14.270477
1493784175336	-6.1179504	-14.022049	-10.644211
1493784175336	-5.085251	-9.833008	-5.8807373
1493784175336	-4.9044952	-7.6717834	-4.4218597
1493784175336	-6.4830933	-7.4974823	-5.1529236
1493784175336	-7.3683624	-11.43544	-4.472748
1493784175336	-5.983185	-13.296509	-2.0061493
1493784175336	-3.3223724	-10.503738	2.6071777
1493784175336	-0.3652649	-7.5537567	6.426758
1493784175336	-0.71939087	-7.389969	6.5779877
1493784175336	0.65838623	-9.4800415	5.5490875
1493784175336	3.3366852	-11.573441	5.4887543
1493784175336	3.4811249	-13.10556	2.834671
1493784175336	2.4736176	-13.329483	-0.32496643
1493784175336	1.6101837	-12.369308	-0.34199524
1493784175336	0.027374268	-10.516525	0.36390686
1493784175336	-2.3059692	-8.751358	0.46749878
1493784175336	-3.2544708	-7.7987213	-0.19120789
1493784175336	-2.8950043	-8.308121	-0.45388794
1493784175336	-0.08280945	-9.7495575	0.19787598
1493784175336	2.122284	-10.157471	0.18902588
1493784175336	1.7571869	-9.449524	0.4579773
1493784175336	1.261322	-8.686783	0.3134308
1493784175336	1.3523254	-8.510178	-0.21470642
1493784175336	0.98153687	-8.912415	-0.7348938
1493784175336	0.46180725	-9.508743	-1.6159973
1493784175336	-0.10195923	-10.471924	-0.39608765
1493784175336	0.330719	-10.092056	-0.7307434
1493784175336	-0.4429779	-10.208206	-0.9882965
1493784175336	-0.31007385	-11.144058	-0.6528778
1493784175336	1.2306519	-11.706772	-0.24865723
1493784175336	2.7126312	-12.328552	-0.18693542
1493784175336	2.4730225	-12.172531	0.8957062
1493784175336	0.83135986	-11.905197	0.08244324
1493784175336	0.09718323	-11.976212	-2.4099274
1493784175336	2.0011444	-12.2074585	-2.0132446
1493784175336	3.525406	-13.256668	-2.9711456
1493784175336	3.7553558	-13.200943	-2.7760925
1493784175336	1.2912292	-12.088043	-0.9112091
1493784175336	-3.465744	-10.3524475	-2.374115
1493784175337	-4.42511	-11.80304	1.9296722
1493784175337	-5.558548	-14.368607	3.7742767
1493784175337	-6.82341	-15.762283	2.7142334
1493784175337	-5.4058228	-15.111359	0.5218811
1493784175337	-3.3741455	-13.655243	-1.1431122
1493784175337	-1.0788269	-12.017319	-0.72328186
1493784175337	4.199875	-11.268646	1.3218994
1493784175337	2.5023346	-11.818893	-0.35379028
1493784175337	2.1089783	-8.86734	1.0697327
1493784175337	0.76472473	-7.2590485	2.1317596
1493784175337	-0.90856934	-4.8295746	2.032074
1493784175337	-0.7531433	-3.6574402	3.129013
1493784175337	-1.6277313	-2.9745026	3.5428467
1493784175337	-2.4312286	-2.5879211	3.2290955
1493784175337	-2.4549255	-2.7808685	2.181549
1493784175337	-2.490387	-3.1294403	0.7957611
1493784175337	-2.706543	-3.9086761	-0.34428406
1493784175337	-3.0019226	-5.822754	-1.6346436
1493784175337	-3.954239	-10.336975	-5.4550934
1493784175337	-5.389099	-16.397552	-13.221497
1493784175337	-5.6936035	-17.790146	-15.826813
1493784175337	-4.8230133	-13.227493	-10.153793
1493784175337	-4.058029	-8.908249	-5.1305237
1493784175337	-4.258972	-5.881668	-3.908783
1493784175337	-5.8828125	-5.0762787	-3.1631012
1493784175337	-7.2620544	-9.595276	-2.0677795
1493784175337	-6.120987	-14.479752	-1.0002747
1493784175337	-3.4026184	-14.317871	0.2775879
1493784175337	0.055130005	-10.543015	4.2711334
1493784175337	0.37953186	-7.5903473	7.1471252
1493784175337	-0.04284668	-7.5578003	6.594757
1493784175337	0.8053131	-9.573853	5.72876
1493784175337	1.1364288	-11.589264	3.5992584
1493784175337	2.2142487	-13.02565	-0.07067871
1493784175337	3.8628845	-12.693085	-1.5323792
1493784175337	1.5755768	-10.715439	-1.0735321
1493784175337	-1.4095764	-8.649368	-0.98620605
1493784175337	-2.8056488	-7.4874725	-0.5823517
1493784175338	-2.1631622	-7.947159	-0.30934143
1493784175338	-0.50738525	-9.59584	-0.20838928
1493784175338	1.3342133	-9.840637	0.7861328
1493784175338	1.4064789	-9.622314	0.27378845
1493784175338	1.4934235	-8.898499	-0.61216736
1493784175338	0.80570984	-8.886002	-1.3479156
1493784175338	0.34321594	-9.371933	-1.3747864
1493784175338	0.17637634	-9.524704	-0.43536377
1493784175338	0.30459595	-9.514374	0.30290222
1493784175338	0.3009491	-9.529816	1.0672913
1493784175338	-0.12939453	-10.397934	0.63682556
1493784175338	-0.14753723	-11.436844	-0.71725464
1493784175338	1.5359802	-11.830536	-1.4985962
1493784175338	3.3256073	-12.219849	-0.6561737
1493784175338	2.9934082	-12.510666	0.70225525
1493784175338	1.0545502	-12.48288	-0.26889038
1493784175338	0.46018982	-12.212875	-2.022766
1493784175338	1.6704407	-12.212616	-0.791275
1493784175338	2.4076538	-13.029907	-2.247467
1493784175338	3.0049744	-13.024826	-3.007187
1493784175338	0.22375488	-11.828506	-2.1326141
1493784175338	-3.2719269	-10.148483	-1.6696777
1493784175338	-3.9501648	-10.04631	1.819519
1493784175338	-5.2884216	-13.531982	3.5888367
1493784175338	-6.8566284	-16.350433	2.5331879
1493784175338	-5.298691	-15.94278	1.056076
1493784175338	-2.1036987	-13.062302	-0.047805786
1493784175338	-1.4674988	-11.842499	-0.9359741
1493784175338	1.7086334	-11.811417	1.4421997
1493784175338	1.3495941	-11.987946	-0.6283722
1493784175338	1.5784912	-9.8615265	0.8003082
1493784175338	1.197464	-7.609421	2.0221405
1493784175338	-0.12098694	-5.803711	2.9268951
1493784175338	-0.8121948	-4.0590515	2.7698517
1493784175338	-1.2515717	-3.062027	3.646164
1493784175338	-2.0292969	-2.8318634	3.699936
1493784175338	-2.4732056	-2.841919	2.9159393
1493784175338	-2.6222992	-3.254364	1.4095459
1493784175338	-2.8545074	-4.095642	-0.29515076
1493784175338	-3.2988434	-6.0715027	-2.4564362
1493784175338	-4.111313	-10.1844635	-6.1449127
1493784175338	-5.006958	-14.929962	-11.053848
1493784175339	-5.7565002	-16.03067	-12.91507
1493784175339	-5.706375	-12.98732	-9.45311
1493784175339	-4.8633423	-9.927155	-5.1102448
1493784175339	-3.9949646	-7.2072296	-3.526291
1493784175339	-4.523178	-5.010971	-4.198105
1493784175339	-7.1795807	-7.954651	-4.6505127
1493784175339	-6.6675262	-13.95607	-3.199051
1493784175339	-3.6072693	-16.855927	0.691391
1493784175339	1.0975952	-13.19928	2.1364136
1493784175339	1.3148804	-7.870468	4.8924713
1493784175339	-0.55158997	-5.614319	7.2679443
1493784175339	0.23986816	-7.1574097	6.8157654
1493784175339	0.8995514	-11.155731	4.919815
1493784175339	1.417633	-12.873215	1.0865479
1493784175339	3.346695	-12.36705	-1.2166595
1493784175339	2.530655	-11.356552	-1.1066742
1493784175339	-1.0562592	-9.661209	-0.72125244
1493784175339	-2.492569	-8.335114	-0.45555115
1493784175339	-2.6940155	-8.634323	0.16371155
1493784175339	-0.18179321	-9.542007	0.91999817
1493784175339	0.5034485	-10.3563385	-0.55059814
1493784175339	0.7592468	-9.627121	-0.60025024
1493784175339	1.1694336	-9.113022	0.0066070557
1493784175339	1.1083374	-8.568192	0.13285828
1493784175339	0.43307495	-8.422348	0.38238525
1493784175339	-0.3555298	-9.831329	0.0028533936
1493784175339	-0.5793915	-10.762939	-0.5572052
1493784175339	0.012313843	-10.148407	-1.1884155
1493784175339	-0.111343384	-9.969391	-1.3084106
1493784175339	-0.46955872	-10.581192	-0.93466187
1493784175339	1.0134277	-11.353561	-0.3544922
1493784175339	3.5052338	-11.464508	0.57751465
1493784175339	3.3512268	-11.161484	1.8712158
1493784175339	0.5573425	-11.06517	0.6014557
1493784175339	-0.00680542	-11.638031	-1.7002563
1493784175339	2.0151367	-12.316605	-1.4462128
1493784175339	2.4738312	-13.243439	-2.2196503
1493784175339	3.4627533	-13.040817	-3.4647064
1493784175339	1.6160889	-12.184341	-2.9237366
1493784175339	-2.453354	-10.744217	-1.7466888
1493784175339	-4.2823334	-10.569611	0.85061646
1493784175340	-5.1828156	-13.129089	3.2401428
1493784175340	-7.2459106	-16.419617	3.185501
1493784175340	-6.70813	-17.07631	1.0591583
1493784175340	-4.117752	-14.56839	-0.8016815
1493784175340	-2.2241669	-12.206757	-2.1884766
1493784175340	1.2952881	-11.314529	-0.108047485
1493784175340	2.199936	-11.091843	-0.3609314
1493784175340	1.2892151	-10.27533	0.4221344
1493784175340	0.41938782	-8.275482	1.1726379
1493784175340	-0.23487854	-6.2228394	2.2053528
1493784175340	-0.16571045	-4.0074463	2.836853
1493784175340	-1.3813171	-2.8757172	3.147171
1493784175340	-2.3150635	-2.3751678	3.356781
1493784175340	-2.6515808	-2.2904205	2.881775
1493784175340	-2.6371307	-2.6836853	1.6887054
1493784175340	-2.751831	-3.6265564	0.21002197
1493784175340	-3.1506958	-5.412781	-1.5488586
1493784175340	-4.195877	-9.79837	-6.2894287
1493784175340	-4.7476807	-15.55455	-12.138367
1493784175340	-4.8055267	-16.95227	-13.450638
1493784175340	-4.81723	-12.651276	-10.039932
1493784175340	-4.79393	-8.139816	-5.6475677
1493784175340	-4.7023773	-7.069229	-4.7423553
1493784175340	-5.6575317	-7.6607513	-4.5064697
1493784175340	-7.953415	-11.560577	-4.217743
1493784175340	-7.832733	-15.649002	-3.0563202
1493784175340	-3.9859467	-13.794281	1.2794495
1493784175340	0.36750793	-7.914551	5.147354
1493784175340	0.4761963	-6.05954	6.15152
1493784175340	0.9298248	-7.33902	6.5593567
1493784175340	2.3615112	-10.074066	6.309738
1493784175340	2.616562	-12.302612	3.049652
1493784175340	2.221527	-12.550446	-0.36691284
1493784175340	2.3610687	-12.371841	-2.406952
1493784175340	0.34405518	-11.1041565	-0.69540405
1493784175340	-2.923462	-8.740738	0.07803345
1493784175340	-3.9063568	-8.145981	0.53982544
1493784175340	-3.0146332	-8.59285	0.17718506
1493784175340	-0.032730103	-9.595612	1.0979614
1493784175340	0.8739624	-10.101578	0.89923096
1493784175340	1.4561157	-9.677521	0.07086182
1493784175340	0.90719604	-8.983627	-0.46652222
1493784175341	1.268753	-8.879242	0.0047302246
1493784175341	0.8672638	-8.45491	0.62779236
1493784175341	0.42819214	-8.835037	-0.670578
1493784175341	-0.07980347	-9.466034	-0.6845856
1493784175341	0.18553162	-10.291	-0.567749
1493784175341	-0.1915741	-11.227753	-0.5683899
1493784175341	-0.7694397	-10.874207	-0.7366028
1493784175341	-0.0977478	-11.059097	-0.7984314
1493784175341	1.0500183	-11.234024	-0.05278015
1493784175341	2.248352	-11.308838	0.25836182
1493784175341	2.766861	-11.653015	0.7718353
1493784175341	1.4343109	-11.491074	0.37927246
1493784175341	0.36488342	-11.565994	-1.6577301
1493784175341	1.5664215	-12.326294	-1.5457153
1493784175341	2.69133	-12.885056	-2.3472137
1493784175341	3.1071014	-12.321762	-2.986023
1493784175341	1.322586	-11.361618	-2.0715942
1493784175341	-1.7565002	-10.531754	-1.1151428
1493784175341	-4.36821	-11.33638	0.8619232
1493784175341	-5.653137	-13.869904	3.5492249
1493784175341	-7.489258	-15.823349	3.588089
1493784175341	-6.6663666	-15.847733	1.4916077
1493784175341	-4.6974792	-13.935623	-0.80519104
1493784175341	-2.8764343	-12.37529	-1.8570557
1493784175341	1.2619781	-11.650787	-1.2717285
1493784175341	4.00354	-11.658279	-0.9727783
1493784175341	3.0483093	-10.720535	0.18609619
1493784175341	1.9245148	-8.630539	1.2830963
1493784175341	0.46977234	-6.4296265	3.002716
1493784175341	-0.7202759	-4.004654	3.2026062
1493784175341	-1.5749512	-2.77536	3.3213959
1493784175341	-2.505066	-2.1909943	3.2259674
1493784175341	-2.8686981	-2.145752	2.5642395
1493784175341	-2.8647308	-2.6019897	1.46875
1493784175341	-2.9075775	-3.5463715	0.3338623
1493784175341	-2.811432	-5.5309296	-0.8592224
1493784175341	-3.4371643	-9.55304	-4.551956
1493784175341	-4.350937	-15.135132	-10.444931
1493784175341	-5.127701	-16.860657	-13.05751
1493784175341	-5.1118317	-12.945007	-10.321243
1493784175341	-4.3148956	-9.801163	-6.419052
1493784175342	-3.7237396	-8.607208	-4.2128143
1493784175342	-3.5611725	-6.893448	-4.0216827
