accelerometer_timestamp	accelerometer_x_data	accelerometer_y_data	accelerometer_z_data
1493568458158	-3.1829834	4.0265656	6.3082123
1493568458177	-2.318573	4.7647247	8.146179
1493568458196	-2.717804	3.8975677	8.958328
1493568458216	-2.8551788	3.5910797	8.319275
1493568458236	-2.6483154	4.4214783	8.49118
1493568458255	-2.1598358	4.355728	8.006607
1493568458275	-1.577713	4.605011	8.405594
1493568458295	-1.648407	4.5230713	8.957031
1493568458315	-2.611023	4.19191	8.76442
1493568458335	-2.8356628	4.0737457	8.507217
1493568458354	-2.3227386	4.4210052	7.905075
1493568458374	-1.9473419	4.688324	7.417557
1493568458394	-2.246582	4.3536224	7.5341034
1493568458414	-2.5402985	4.0171356	9.041412
1493568458434	-2.197281	4.1802826	9.604477
1493568458453	-1.5912628	4.700638	8.44545
1493568458473	-1.6564941	4.7839355	7.430954
1493568458493	-2.6049042	4.385956	8.248978
1493568458513	-2.3844452	3.868866	9.308212
1493568458533	-2.0182343	4.19664	10.530197
1493568458552	-1.9317017	5.028702	9.629791
1493568458572	-1.8097229	4.72583	7.8967285
1493568458592	-1.6502228	2.856247	8.088074
1493568458613	-0.2733307	1.9108887	7.1588745
1493568458632	-1.2286072	3.3441925	8.614838
1493568458651	-2.205368	2.843277	9.880875
1493568458671	-1.2063904	2.0365143	9.771317
1493568458691	-0.506958	2.561386	11.070145
1493568458711	0.5765381	2.0015106	10.799515
1493568458731	1.192276	2.221695	9.89061
1493568458750	2.8708954	2.8621674	7.2768555
1493568458770	-2.5049438	1.8353577	8.232529
1493568458790	-0.5559845	3.7342834	8.666122
1493568458810	1.6834106	4.2094727	8.612656
1493568458830	0.41737366	3.221634	8.828476
1493568458850	0.75671387	2.9986267	9.78801
1493568458869	0.88098145	3.2361755	9.580688
1493568458890	0.7757721	3.3118744	9.798904
1493568458909	1.2632904	3.7019958	9.706604
1493568458929	0.5893707	3.4766388	9.296371
1493568458948	0.113983154	2.4922028	10.048782
1493568458968	-0.5689697	2.6300354	10.637863
1493568458988	-0.41304016	2.742035	10.642441
1493568459008	0.008102417	2.9592438	8.641113
1493568459027	-0.22053528	4.2039337	6.9641876
1493568459047	-0.3087921	3.6331177	6.94899
1493568459067	-0.882782	2.9356384	7.9028015
1493568459087	-0.4976654	2.7163696	8.863174
1493568459107	0.25730896	3.8802032	9.707291
1493568459126	0.8115082	4.1053467	9.50322
1493568459146	0.23350525	3.6563416	9.040009
1493568459166	-0.47937012	3.0702667	8.388031
1493568459206	-0.34043884	3.2348633	9.027878
1493568459225	-0.31025696	3.3481293	10.6532135
1493568459245	-0.32106018	2.984146	10.350967
1493568459265	-0.110687256	3.2634888	9.696976
1493568459285	-0.50001526	2.4139862	10.51413
1493568459305	-0.869339	2.6551666	10.401108
1493568459325	-0.82818604	3.4988556	9.187485
1493568459344	-0.39527893	3.814865	7.673584
1493568459364	0.013015747	3.5644226	8.808334
1493568459384	-1.1616058	3.5137024	8.910965
1493568459403	-1.7157898	3.9438171	7.986664
1493568459423	-1.1716919	3.714859	9.248688
1493568459443	-1.0390778	3.6757355	8.811996
1493568459463	-0.9346924	4.2635956	7.4783936
1493568459483	-1.3725586	4.285446	7.5739136
1493568459503	-1.9935455	4.045288	7.2390594
1493568459522	-1.6154785	4.0216675	6.7524414
1493568459543	-0.6937256	4.0953064	5.760544
1493568459562	-0.39378357	2.3284302	4.7586517
1493568459583	-2.746109	-1.7427063	6.0834045
1493568459602	-6.4574585	-3.8935394	5.5763397
1493568459622	-2.2137146	-4.1364746	4.2272644
1493568459641	6.027115	-0.6495514	4.7895966
1493568459661	5.3405914	0.1166687	5.0692596
1493568459681	2.0171356	-1.4316101	2.42865
1493568459701	-3.4820862	-4.0513153	7.144394
1493568459720	-3.844635	-8.325378	9.628815
1493568459741	2.5316772	-8.683777	6.04393
1493568459760	8.602127	-8.881638	1.8395996
1493568459780	15.68837	-8.485092	-3.64357
1493568459800	14.405701	-10.520523	-7.402008
1493568459820	14.55983	-11.521606	-7.360962
1493568459839	18.419098	-9.103897	-5.539734
1493568459859	19.32109	-7.8798523	-4.544464
1493568459879	14.45462	-9.815796	-4.6951294
1493568459899	10.074875	-11.114304	-4.006485
1493568459918	8.894669	-11.361496	-5.3133698
1493568459938	9.6228485	-10.431961	-5.8847046
1493568459958	16.348373	-6.3394775	-3.1003876
1493568459978	16.99173	-5.272827	-2.6948853
1493568459998	9.372696	-8.631027	-0.031951904
1493568460017	4.3666687	-9.35376	3.7402496
1493568460037	1.1184998	-9.358292	4.203491
1493568460057	1.8197174	-8.911667	3.340088
1493568460077	5.0794373	-6.1007233	3.7663727
1493568460096	7.7789	-3.7414093	9.419037
1493568460118	7.411804	-4.990448	10.778397
1493568460136	14.20163	-5.720886	4.3630524
1493568460156	18.854233	-3.5296326	-0.9303894
1493568460176	16.525452	-5.0450745	4.1097565
1493568460196	13.456543	-6.9389954	-2.1113129
1493568460215	6.8450165	-10.094543	1.1065369
1493568460235	10.496948	-7.0655975	4.304962
1493568460255	15.920792	-1.4315948	-4.878784
1493568460275	16.338882	-2.5028381	-7.1065216
1493568460295	11.522858	-5.9517517	0.41766357
1493568460314	10.470581	-5.933304	0.48312378
1493568460335	10.461288	-5.6526337	0.74053955
1493568460374	12.694672	-5.646103	3.136673
1493568460395	13.752411	-3.1966705	1.3539124
1493568460414	6.2571716	-5.225586	0.71162415
1493568460433	-2.8443756	-8.903992	-1.4357758
1493568460453	6.6187744	-3.809021	-3.2755432
1493568460474	10.112244	-3.7664642	0.7242279
1493568460493	4.969345	-6.2811737	2.5947418
1493568460513	5.6969147	-7.6262817	4.262787
1493568460532	7.8356934	-5.8836823	3.8993835
1493568460552	8.81839	-3.3707275	2.7013092
1493568460572	8.600128	-3.0575562	0.53134155
1493568460592	6.218155	-2.964325	-1.0062714
1493568460612	4.8436127	-5.6203766	-1.2449646
1493568460631	3.4853668	-4.8177032	-0.653244
1493568460652	3.5475159	-5.398926	-0.30732727
1493568460671	11.039337	-4.685272	3.2341309
1493568460691	13.684204	-2.5367737	-1.5259094
1493568460711	11.110504	-5.3457184	0.87298584
1493568460730	5.534607	-11.2161255	4.527603
1493568460750	4.7084045	-12.701935	0.55563354
1493568460770	8.506805	-12.849213	-0.4943695
1493568460790	12.752609	-7.9282684	-0.3212738
1493568460810	13.56604	-4.3491364	-0.14102173
1493568460829	8.919769	-6.381836	-0.83483887
1493568460849	7.3334045	-8.840744	-0.30638123
1493568460869	7.8212585	-9.165619	0.043548584
1493568460889	8.163467	-7.0326385	0.33111572
1493568460909	10.439133	-4.574951	0.13098145
1493568460928	12.532242	-4.6905518	0.29315186
1493568460948	9.302841	-6.4697723	-2.4128876
1493568460968	7.180496	-8.213486	-0.92051697
1493568460988	7.9296875	-8.848267	0.78315735
1493568461008	8.14801	-8.818344	-2.0191193
1493568461027	6.845749	-9.35817	-1.7558441
1493568461047	6.5268707	-8.264328	-0.66085815
1493568461067	7.2378845	-8.280533	2.446991
1493568461087	7.113159	-9.527237	2.6805878
1493568461107	5.743149	-10.264725	-3.0399475
1493568461126	7.9728546	-11.490341	-5.1286163
1493568461146	7.3009644	-12.104141	-2.5759277
1493568461166	4.015091	-10.6263275	-0.059509277
1493568461186	3.528656	-7.885498	-0.44818115
1493568461206	3.2989197	-6.3964233	-0.81655884
1493568461225	3.7794952	-5.50235	-1.7237701
1493568461245	4.211624	-3.855606	-2.457138
1493568461265	3.7204895	-3.2506256	-1.6717529
1493568461285	2.9620361	-3.1120758	-0.48023987
1493568461305	2.7427063	-3.1890564	-0.48991394
1493568461324	1.1282959	-2.603241	-1.7565918
1493568461344	1.2235107	-3.0559082	-2.2334595
1493568461364	3.2014923	-2.9928436	-3.2970123
1493568461384	7.167053	-4.168228	-4.1854706
1493568463292	11.750534	-6.4425507	-4.959717
1493568463292	15.795197	-6.9198914	-7.051178
1493568463292	15.929764	-7.4013824	-7.662857
1493568463292	12.603577	-5.7132416	-6.5433655
1493568463292	8.117447	-2.3983917	-4.3661194
1493568463292	3.2251282	-4.0302124	-5.5462036
1493568463292	8.461304	-10.629974	-4.5740967
1493568463292	7.011505	-9.466049	4.5564423
1493568463292	8.260544	-2.0390167	-2.3190613
1493568463292	1.0841522	-1.041626	-1.176239
1493568463292	0.50743103	-4.50943	3.7784882
1493568463292	2.1206512	-5.335434	5.8415527
1493568463292	2.8561249	-7.8690186	7.136383
1493568463292	4.722946	-8.94339	8.585144
1493568463292	4.4190674	-13.29808	1.2162781
1493568463292	3.4764862	-17.700073	2.4960022
1493568463292	1.2209473	-14.258469	7.875641
1493568463293	2.930603	-13.31134	-3.1480103
1493568463293	4.0940094	-10.8880005	-0.84072876
1493568463293	4.669739	-8.775925	-0.4546814
1493568463293	3.2408142	-8.679413	0.4163971
1493568463293	3.0792084	-13.2295685	1.7118835
1493568463293	4.5002747	-14.750687	2.4459534
1493568463293	2.0418549	-10.205902	1.8857727
1493568463293	1.8381348	-9.098907	1.8490143
1493568463293	1.4895325	-9.238113	0.6145325
1493568463293	2.486023	-9.2539215	-0.53015137
1493568463293	4.5121613	-9.128769	-0.83251953
1493568463293	5.055832	-10.931213	-1.8695068
1493568463293	4.7612	-11.909576	-2.0753021
1493568463293	5.710556	-10.828033	-1.2138824
1493568463293	5.499161	-10.384766	-0.4819336
1493568463293	2.7098236	-10.867065	-1.6142731
1493568463293	3.553894	-12.207077	-2.5435028
1493568463293	6.097763	-13.602814	-1.1120453
1493568463293	5.293518	-13.553848	-0.86006165
1493568463293	2.87323	-12.75444	-0.8455963
1493568463293	0.81295776	-12.427475	2.197754
1493568463293	-1.5168457	-13.657486	4.662857
1493568463293	-3.3568573	-15.949692	4.8359375
1493568463293	-2.3712006	-17.241302	2.5163574
1493568463293	0.95199585	-15.826202	-0.46107483
1493568463294	4.3006287	-11.478256	0.20332336
1493568463294	5.099991	-9.283371	0.6541748
1493568463294	3.7396545	-8.189163	1.8715057
1493568463294	2.4811707	-7.4421234	2.859726
1493568463294	0.63316345	-7.173538	2.7744904
1493568463294	-0.6463928	-6.1818542	2.7521667
1493568463294	-1.3821716	-5.3961334	2.1358337
1493568463294	-1.294754	-4.6941223	1.9551392
1493568463294	-1.3120728	-3.7419586	2.2525177
1493568463294	-1.535965	-2.785141	2.868805
1493568463294	-1.3786774	-2.6478882	2.4161072
1493568463294	-0.9675598	-2.9761047	1.2782288
1493568463294	0.8279724	-5.087082	-1.453949
1493568463294	2.8396454	-10.865295	-8.015991
1493568463294	6.871292	-18.11699	-17.81752
1493568463294	15.015396	-19.474823	-16.4599
1493568463294	8.389511	-13.490952	-5.782547
1493568463294	1.5475464	-4.738083	-1.3148193
1493568463294	-2.285904	1.2124786	-2.1480865
1493568463294	-4.5459137	-2.7856903	-3.6752167
1493568463294	-2.8254547	-14.708832	1.9749146
1493568463294	7.944992	-19.23201	-1.730423
1493568463294	5.7250977	-18.846008	-6.773941
1493568463294	0.24005127	-5.493149	10.072586
1493568463294	-7.9439087	-2.6383362	8.101486
1493568463294	-4.0726776	-5.3131104	6.490219
1493568463294	-7.171631E-4	-12.140045	5.4079285
1493568463294	6.6850586	-14.123123	4.651718
1493568463295	8.133667	-14.225754	4.4517517
1493568463295	6.5202026	-12.388657	3.7184143
1493568463295	2.3505707	-10.183945	0.4200287
1493568463295	-1.6933441	-8.3076935	-2.4105988
1493568463295	-2.4805298	-7.768524	-0.20727539
1493568463295	0.18560791	-8.286728	0.1131897
1493568463295	2.7309875	-8.087616	0.36515808
1493568463295	3.1902008	-7.859253	1.3834229
1493568463295	2.7795563	-7.952606	1.7733917
1493568463295	2.2491913	-8.504227	0.54693604
1493568463295	2.7935028	-8.940582	0.1098938
1493568463295	3.4993591	-8.966995	0.053527832
1493568463295	3.6619568	-8.807678	0.01889038
1493568463295	3.937439	-9.424683	-0.8943176
1493568463295	4.0901184	-11.1610565	-1.087326
1493568463295	4.138611	-12.449631	-1.311966
1493568463295	4.7637634	-11.973602	-1.7438507
1493568463295	4.5822296	-11.525848	-1.0396118
1493568463295	3.0385437	-12.06662	-2.7118683
1493568463295	3.845932	-12.751007	-4.1977234
1493568463295	6.8493195	-13.326767	-2.9143982
1493568463295	7.057831	-14.049454	-2.4563904
1493568463295	4.6310883	-13.390976	-1.3037262
1493568463295	1.2271118	-11.895248	2.3726654
1493568463305	-1.2210541	-12.501968	5.1850586
1493568463325	-3.0809937	-15.045624	4.174759
1493568463344	-2.7172394	-16.66632	0.8071594
1493568463363	-0.92630005	-16.973831	-0.32913208
1493568463384	4.1574097	-14.09729	3.310608
1493568463404	6.7102814	-12.054092	2.3751068
1493568463424	3.4499512	-10.3229065	1.8337708
1493568463443	1.1658478	-7.0829163	2.3354034
1493568463463	-0.13696289	-5.366379	2.348297
1493568463483	-1.0773773	-4.4449615	3.5470734
1493568463503	-2.433731	-3.4272919	3.5723724
1493568463523	-2.9236755	-2.8266907	3.6648865
1493568467298	-1.9948883	-2.548462	3.799408
1493568467298	-1.4757385	-1.8928986	3.701538
1493568467298	-2.2053375	-1.5044403	2.883667
1493568467298	-1.881134	-2.380539	0.99884033
1493568467298	-1.0307617	-6.2788086	-3.762848
1493568467298	0.43728638	-15.668457	-15.533707
1493568467298	9.261581	-19.207794	-19.495178
1493568467298	8.708542	-19.474823	-10.43692
1493568467298	2.2353058	-10.486801	-3.9413757
1493568467298	-2.420639	0.4459839	-0.2606659
1493568467298	-5.5364532	-0.013504028	-3.9088287
1493568467298	-4.472702	-12.635208	0.077560425
1493568467298	6.910095	-18.901367	3.6898193
1493568467298	7.539444	-18.623016	-6.6698
1493568467298	-0.5388794	-5.7569885	7.154297
1493568467298	-6.636154	-2.653656	6.9199066
1493568467298	-6.0577393	-4.6141205	5.672531
1493568467298	-2.1078796	-9.451248	6.7183075
1493568467298	2.7755432	-12.426559	5.6000824
1493568467298	5.5179443	-13.850586	3.3552856
1493568467298	7.818207	-14.020767	-0.51605225
1493568467298	3.9328003	-10.5781555	0.6776428
1493568467299	-1.5422821	-8.340103	2.8060608
1493568467299	-5.329254	-8.5359955	-0.7757263
1493568467299	-1.7054138	-8.453644	0.12942505
1493568467299	2.7070618	-8.3004	0.013809204
1493568467299	3.3370056	-8.069717	0.9152832
1493568467299	2.6281586	-7.993561	1.1972046
1493568467299	2.130722	-8.818726	1.3027191
1493568467299	1.8781433	-9.446426	1.5323944
1493568467299	1.83815	-9.552856	0.35095215
1493568467299	1.9417877	-9.444977	-1.0617065
1493568467299	2.0715332	-10.362137	-2.029663
1493568467299	1.9778137	-11.435715	-2.3052216
1493568467299	2.899643	-11.621857	-1.8754425
1493568467299	5.2125244	-11.2161255	-1.2152252
1493568467299	4.3190613	-11.316299	-1.7319946
1493568467299	1.9360809	-12.400513	-4.429245
1493568467299	3.477188	-13.829987	-4.417206
1493568467299	5.2459106	-15.319244	-2.8348389
1493568467299	4.404129	-14.598358	-1.6186981
1493568467299	1.0682526	-12.511978	0.9254608
1493568467299	-2.4032135	-13.22348	3.9998322
1493568467299	-5.0312195	-15.091507	6.693939
1493568467299	-5.8570557	-16.59401	3.9381256
1493568467299	-2.605667	-16.741562	-0.6445465
1493568467299	1.2513275	-14.968109	-0.92962646
1493568467299	5.4618073	-12.321503	0.5552368
1493568467299	5.0533447	-10.520523	2.0940857
1493568467300	1.0130463	-8.812561	2.9918213
1493568467300	-0.32032776	-7.105774	2.751358
1493568467300	-0.84072876	-5.5559845	3.0142822
1493568467300	-1.7832031	-3.8647614	3.4270782
1493568467300	-2.6643677	-2.806717	3.401245
1493568467300	-2.8430786	-2.6327515	2.7459106
1493568467300	-2.2702332	-1.6785583	3.084671
1493568467300	-2.242096	-1.2248077	3.121338
1493568467300	-2.1305237	-2.1392365	2.2846222
1493568467300	-0.7691498	-4.9817963	-0.67396545
1493568467300	-0.13916016	-11.369339	-7.6927185
1493568467300	3.1145782	-17.828812	-17.038239
1493568467300	8.352783	-19.474823	-15.723846
1493568467300	4.6822968	-13.5849	-6.4700165
1493568467300	0.2722168	-4.2471466	-0.009597778
1493568467300	-3.1523895	1.4398956	-0.94247437
1493568467300	-7.712555	-8.212845	-3.5466766
1493568467300	-0.7993469	-17.932297	2.1562347
1493568467300	4.877823	-19.474823	-2.3364563
1493568467300	0.39389038	-10.118805	3.8582
1493568467300	-3.7606354	-2.2935333	9.9388275
1493568467300	-5.618561	-3.2864532	7.5504456
1493568467300	-3.961609	-9.566055	6.2808228
1493568467300	1.3552094	-12.995453	6.8390503
1493568467300	6.001236	-13.585556	4.863846
1493568467300	7.226654	-14.7907715	2.1985626
1493568467301	3.6657715	-11.961319	-3.0601807
1493568467301	0.85562134	-9.648514	0.4845276
1493568467301	-3.159317	-8.435883	1.2131195
1493568467301	-4.243469	-7.6827087	-0.91181946
1493568467301	-0.23417664	-7.9170074	-0.105895996
1493568467301	2.3259583	-7.770767	-0.3959961
1493568467301	2.7704773	-7.8038635	0.8180237
1493568467301	2.183792	-8.610413	0.85020447
1493568467301	1.426117	-9.463409	1.0099945
1493568467301	1.7383728	-9.184662	0.5189514
1493568467301	2.2641754	-8.748764	-0.3762207
1493568467301	2.4440918	-8.985992	-0.63282776
1493568467301	1.8540497	-10.643936	-0.78604126
1493568467301	0.83799744	-11.956299	-1.4069977
1493568467301	1.7260895	-12.001221	-1.6411743
1493568467301	4.3243103	-12.122787	-0.95243835
1493568467301	2.7429504	-12.519806	-1.9129028
1493568467301	1.2827911	-13.433777	-4.843506
1493568467301	3.858551	-14.089066	-3.858551
1493568467301	4.4437103	-14.7057495	-3.1903381
1493568467301	3.058014	-14.375244	-2.516449
1493568467301	-0.19021606	-12.310608	1.4631195
1493568467301	-2.3448334	-11.990952	4.622299
1493568467301	-4.5117035	-14.050278	5.2541504
1493568467301	-6.2214813	-16.220795	1.8693542
1493568467301	-4.6973114	-16.760208	-0.39570618
1493568467301	-1.8637848	-14.795456	-1.0529633
1493568467302	3.562149	-11.526154	2.3467102
1493568467302	5.420105	-10.075943	3.6159515
1493568467302	1.2127533	-9.036957	1.0684662
1493568467302	-0.45681763	-7.031769	1.6664886
1493568467302	-1.2031708	-5.6757965	3.1624756
1493568467302	-2.493332	-4.258362	4.0545197
1493568467302	-2.9360657	-2.8624268	3.8568115
1493568467302	-2.5046997	-1.973938	3.9759674
1493568467302	-2.1259766	-1.0503082	4.0122986
1493568467302	-1.762085	-0.53230286	3.0650635
1493568467302	-1.0576172	-1.4638977	1.7722168
1493568467302	-0.014663696	-5.420044	-2.3415985
1493568467302	-1.5439758	-14.650558	-14.018295
1493568467302	-2.6613617	-19.174088	-19.51175
1493568467302	-0.058135986	-19.474823	-13.059769
1493568467302	0.6893616	-12.844376	-6.226776
1493568467302	-1.3116608	-3.2549286	-0.6670685
1493568467302	-6.259781	-2.3618927	-1.1969452
1493568467302	-7.187027	-12.155823	0.078552246
1493568467302	-1.2980804	-16.899002	6.080658
1493568467302	1.4022522	-14.356125	-2.8577118
1493568467302	-0.14677429	-5.774826	3.9311523
1493568467302	-2.9553833	-2.606247	7.209793
1493568467302	-3.1018372	-6.808136	8.660492
1493568467302	-0.35661316	-12.468246	5.493103
1493568467302	3.0430603	-14.090988	2.9075928
1493568467302	4.994629	-14.374115	2.2049103
1493568467303	5.1974945	-12.930283	0.118255615
1493568467303	1.2076721	-10.072861	0.14459229
1493568467303	-1.6778107	-8.635498	1.0913239
1493568467303	-6.361084	-7.2831116	-1.184555
1493568467303	-4.1983795	-7.674011	-0.08946228
1493568467303	0.049484253	-8.777634	0.42797852
1493568467303	2.047699	-8.32251	0.90592957
1493568467303	2.1441498	-8.565201	1.55896
1493568467303	0.94062805	-9.569031	1.0116425
1493568467303	1.0309296	-10.281509	0.7674866
1493568467303	1.5385132	-10.285721	-0.24621582
1493568467303	1.7105408	-10.091431	-2.161209
1493568467303	1.8088531	-11.215469	-3.0071259
1493568467303	1.0831146	-12.186447	-2.2387085
1493568467303	0.97698975	-12.098587	-2.6182861
1493568467303	3.0195007	-11.684235	-2.0758057
1493568467304	2.2594147	-11.772217	-2.0346375
1493568467304	0.46713257	-12.73996	-5.218582
1493568467304	2.6970062	-14.137833	-4.155426
1493568467304	3.5565948	-15.442581	-2.4181976
1493568467304	2.301712	-14.109116	-0.23320007
1493568467304	0.48773193	-12.053207	3.3105774
1493568467304	-2.79776	-12.982056	5.6540833
1493568467304	-6.595871	-15.910706	4.1399994
1493568467304	-7.5292816	-17.26117	1.9537964
1493568467304	-5.471237	-16.659576	0.41127014
1493568467304	-0.50717163	-13.837021	2.1235504
1493568467304	3.4786377	-10.507706	3.3792877
1493568467304	1.7208099	-9.911026	0.46289063
1493568467304	0.9234009	-8.338669	2.5508118
1493568467304	-0.16081238	-5.72847	3.863388
1493568467304	-1.6381531	-3.750595	4.465271
1493568467304	-2.9704437	-2.1899261	4.282669
1493568467304	-3.3394165	-1.205658	4.1656036
1493568467304	-2.8909454	-0.89346313	4.003937
1493568467304	-2.2095947	-0.77853394	3.5073242
1493568467304	-1.800293	-1.4810638	2.8083801
1493568467304	-1.3492279	-4.0455017	0.31375122
1493568467304	-2.226181	-9.725418	-5.389038
1493568467304	-4.463333	-16.822601	-15.26593
1493568467304	-0.66145325	-19.474823	-18.896225
1493568467304	1.5582275	-15.9657135	-9.626297
1493568467304	0.6835022	-6.1436615	-0.6201782
1493568467304	-1.5307922	1.8784332	-0.37924194
1493568467305	-7.2598114	-5.3061066	-1.541626
1493568467317	-6.3425293	-16.510529	2.232605
1493568467336	-1.9119415	-19.474823	-0.5974121
1493568467356	-1.394989	-12.526642	-0.09967041
1493568467376	-2.974533	-2.785675	9.839523
1493568467396	-5.2414856	-1.7180634	10.89505
1493568467416	-3.2548828	-7.9363556	6.3605194
1493568467435	1.216217	-12.454285	3.7559662
1493568467455	3.6682587	-14.307037	4.68692
1493568467475	5.5049133	-16.255127	0.79444885
1493568467495	2.6644135	-12.874741	-2.9228973
1493568467515	-1.6561279	-9.730301	1.2594452
1493568467534	-3.9308167	-7.7410583	2.8520813
1493568467554	-5.8019104	-6.918396	-0.54255676
1493568467574	-2.589508	-7.3065033	0.6645508
1493568467594	0.13645935	-7.922119	0.34350586
1493568467614	0.78819275	-8.378906	1.0636597
1493568467633	0.42082214	-9.090149	1.0860138
1493568467673	0.14160156	-10.154907	0.9568634
1493568467693	0.4486847	-9.983124	0.74113464
1493568467712	0.322052	-9.715805	-1.0169525
1493568467732	0.79496765	-9.799652	-1.922821
1493568467752	-0.10951233	-11.092178	-1.8810883
1493568467774	-1.6924591	-11.841904	-2.2738495
1493568467795	-0.058654785	-11.661301	-1.8182373
1493568467815	2.3778687	-11.898193	-0.9167175
1493568467835	1.0501404	-12.677963	-2.8932648
1493568467854	0.87098694	-14.500122	-4.0832214
1493568467871	2.8963165	-16.141449	-1.9373322
1493568467891	1.0953522	-15.487732	-2.0517883
1493568467914	-2.4327545	-13.035233	-1.170578
1493568467936	-4.0311737	-11.86058	2.7417603
1493568467955	-5.119995	-12.533463	7.0329437
1493568467975	-8.199905	-14.152649	3.3161316
1493568467995	-7.7349396	-15.603668	0.6090088
1493568468015	-5.668625	-14.779602	-0.56547546
1493568468035	-0.7817383	-12.317505	2.0426483
1493568468055	3.6190033	-10.404221	5.3208313
1493568468073	1.4006348	-10.059692	0.816803
1493568468090	0.200943	-8.299103	2.2933655
1493568468114	-1.1138153	-6.3486176	3.6266327
1493568468134	-2.5411377	-4.2655487	4.272522
1493568468153	-2.9110107	-2.8325653	4.0872345
1493568468173	-2.5806274	-2.2165375	4.040497
1493568468193	-2.11232	-1.8287354	3.5878906
1493568468213	-2.0382996	-1.198883	2.8265686
1493568468232	-1.7410126	-0.93344116	1.9369354
1493568468253	-1.5540161	-3.0139465	-0.32104492
1493568468273	-2.9498138	-8.535919	-5.9632416
1493568468293	-4.726532	-15.458099	-14.098755
1493568468312	-3.186142	-19.474823	-18.964813
1493568468332	-0.066345215	-15.335999	-10.632675
1493568468352	-0.12683105	-5.319275	-1.8078918
1493568468370	-2.5131378	1.8377075	-1.4069366
1493568468391	-7.8489227	-5.0186005	-0.24954224
1493568468411	-5.0576324	-16.101273	3.8496857
1493568468431	-2.0292358	-19.400757	-0.8636322
1493568468451	-2.4796143	-12.18692	2.0663452
1493568468469	-2.2339783	-2.5341797	11.111267
1493568468491	-4.522354	-2.4374237	11.344894
1493568468510	-2.972351	-8.722107	6.6810303
1493568468526	0.39668274	-13.056046	3.6226044
1493568468551	3.0657349	-14.042297	5.7343445
1493568468570	3.4273682	-15.565002	2.3017883
1493568468592	1.09198	-12.714737	-2.3766937
1493568468609	-1.6914978	-8.99855	2.821045
1493568468629	-4.284439	-7.941284	1.3446503
1493568468651	-4.946869	-7.2486267	-1.1667175
1493568468669	-0.4441681	-7.6795654	-0.3443756
1493568468688	1.0357208	-8.276291	-0.10218811
1493568468710	1.0017548	-8.869415	0.65075684
1493568468727	0.094940186	-9.606842	1.1587677
1493568468749	-0.2675476	-9.673248	1.4493103
1493568468767	-0.69021606	-9.311371	-0.025802612
1493568468787	-0.120666504	-9.381348	-2.1376343
1493568468807	0.94487	-10.241486	-2.1555023
1493568468828	-0.22514343	-11.647385	-1.7745514
1493568468847	-1.043808	-12.12291	-2.2560425
1493568468883	0.94525146	-11.83786	-1.6398621
1493568468907	0.9502106	-11.680252	-1.2660065
1493568468926	-1.5736389	-12.982346	-4.3591614
1493568468946	1.0262756	-15.146378	-2.91922
1493568468965	2.400177	-16.879257	-1.2001495
1493568468983	-2.2006226	-13.930878	-2.9328918
1493568469006	-4.0517883	-11.429901	1.988617
1493568469024	-5.7205963	-11.723297	5.8794556
1493568469045	-8.139587	-13.823441	4.612091
1493568469064	-8.333481	-15.781723	2.4840546
1493568469085	-6.6628723	-15.349762	0.12199402
1493568469105	-2.8064728	-12.857468	0.14750671
1493568469124	1.401947	-10.480698	2.473465
1493568469144	2.0658875	-11.13147	-0.81443787
1493568469163	1.1884003	-8.938858	1.7400665
1493568469182	-0.82196045	-6.787735	3.284851
1493568469204	-2.6396942	-4.959442	3.597824
1493568469223	-3.0134888	-3.4711914	3.8863373
1493568469243	-2.7925568	-2.2599945	3.6556702
1493568469263	-2.2670898	-1.8455048	3.3254395
1493568469283	-1.6960907	-1.5585938	3.0183563
1493568469303	-1.5881958	-1.2150879	2.4743347
1493568469322	-1.5246735	-2.1538696	1.0879822
1493568469342	-1.5839386	-5.810547	-2.749878
1493568469362	-3.8152924	-13.432571	-11.982391
1493568469381	-3.7542572	-19.474823	-19.722397
1493568469402	-1.0606079	-18.29309	-12.913101
1493568469421	-1.0180206	-10.611496	-3.5794678
1493568469441	-2.2335815	0.56721497	-1.4087677
1493568469461	-7.666931	-1.4570465	0.26506042
1493568469482	-8.238403	-13.565598	0.5611725
1493568469501	-4.637726	-18.038666	-0.48249817
1493568469520	-2.8187408	-11.085266	4.3208466
1493568469542	-1.7573547	-2.672104	10.343033
1493568469560	-2.2005615	-3.6060638	11.139542
1493568469578	-1.2346649	-11.120453	7.8569946
1493568469601	0.635025	-14.271561	3.7136993
1493568469617	2.8696442	-14.384598	1.727066
1493568469639	2.1083832	-14.777039	-0.16210938
1493568469661	0.54081726	-12.13649	-0.9165497
1493568469678	-1.880539	-9.527878	-0.09138489
1493568469699	-3.5769958	-7.92247	2.5625458
1493568469720	-4.7403564	-7.3084717	1.0219116
1493568469738	-3.1859589	-7.580124	0.35301208
1493568469758	-0.028213501	-8.805298	0.29234314
1493568469777	1.3218842	-9.151764	0.32920837
1493568469797	0.90119934	-9.224243	0.7579498
1493568469817	0.2975464	-9.25267	0.7235565
1493568469837	0.066085815	-9.497787	0.6513977
1493568469854	0.019332886	-9.812088	-0.16749573
1493568469876	0.0017242432	-10.072174	-1.2874756
1493568469896	0.037139893	-10.779205	-2.8012695
1493568469916	-0.40628052	-12.029724	-2.7908478
1493568469935	-0.9727478	-12.36319	-2.3633118
1493568469956	0.5852814	-12.082184	-2.4215698
1493568469975	1.0405273	-11.752579	-1.4996033
1493568470015	-1.8881531	-13.260223	-4.971756
1493568470034	-0.21386719	-15.680939	-3.4069824
1493568470055	1.1468353	-17.008926	-2.291809
1493568470074	-0.44789124	-13.7248535	-1.3188782
1493568470093	-2.224289	-11.31514	3.1585846
1493568470114	-3.9526367	-12.640579	7.10054
1493568470132	-7.7013245	-13.80397	3.5804443
1493568470154	-7.717575	-15.564636	2.1801147
1493568470173	-6.561432	-15.106491	-0.3480835
1493568470192	-2.2525177	-12.638916	0.5588684
1493568470213	5.6801453	-10.113663	5.913513
1493568470232	1.3614197	-9.907242	1.0451355
1493568470253	-0.33972168	-8.111328	1.5573578
1493568470272	-0.8450928	-6.3379974	3.129654
1493568470292	-2.4843445	-3.8157043	4.2058105
1493568470312	-3.5302124	-2.2188873	4.3619537
1493568470331	-3.4668732	-1.9862823	3.9111938
1493568470352	-2.6874542	-1.5003052	3.8600922
1493568470371	-1.9616089	-0.81211853	3.4776306
1493568470389	-2.0251465	-0.7482605	2.7730103
1493568470411	-1.6396942	-3.164917	0.43325806
1493568470430	-1.9363556	-9.042679	-5.5512238
1493568470452	-5.122177	-16.834183	-15.080582
1493568470470	-6.2645416	-19.474823	-17.951187
1493568470489	-1.6587524	-14.297577	-9.5664215
1493568470512	0.83135986	-1.8789978	-0.3605194
1493568470525	-2.5532837	4.8141174	0.81069946
1493568470545	-7.8496094	-2.3857727	2.7265778
1493568470565	-6.8522797	-14.561966	4.270691
1493568470584	-3.355835	-19.474823	-4.2021484
1493568475312	-1.4194031	-14.416885	-0.75302124
1493568475312	-0.27786255	-3.6144867	9.952286
1493568475312	-2.5940857	-1.2075653	9.764542
1493568475312	-3.2741852	-6.903656	5.8140106
1493568475312	-1.1528015	-11.950317	1.9196777
1493568475313	1.7362518	-14.345505	3.722458
1493568475313	3.7731323	-15.985977	2.7146454
1493568475313	1.9700165	-13.529709	-1.5377808
1493568475313	-1.4059601	-9.686401	0.21737671
1493568475313	-4.478256	-7.7665405	0.92370605
1493568475313	-6.1354218	-6.4774017	-0.69903564
1493568475313	-3.400879	-7.226532	0.008331299
1493568475314	0.0037994385	-8.321793	0.512146
1493568475314	0.8752136	-8.670517	0.5270691
1493568475314	1.1201019	-9.017456	1.4359436
1493568475314	0.36257935	-9.435577	1.1691742
1493568475314	0.27096558	-9.929749	0.26586914
1493568475315	0.7546234	-9.865906	-0.31907654
1493568475315	0.37849426	-10.164322	-1.844574
1493568475315	0.105270386	-11.0312805	-2.8136597
1493568475315	-0.7381134	-11.663422	-2.263855
1493568475315	-1.1282501	-11.866409	-1.4681702
1493568475315	-0.5413208	-12.029083	-1.4078217
1493568475315	-1.3960266	-12.013718	-2.630844
1493568475316	-2.4179382	-13.136536	-6.221344
1493568475316	0.35281372	-14.835617	-3.6384888
1493568475316	0.95732117	-16.975494	-3.3156433
1493568475316	1.0921326	-13.883652	-1.3569794
1493568475316	-0.19389343	-11.673126	1.5830078
1493568475316	-3.0337982	-13.185867	6.981018
1493568475316	-7.6147766	-14.578339	4.2442017
1493568475317	-8.361816	-15.891205	1.89357
1493568475317	-6.7004547	-15.466507	0.46725464
1493568475317	-2.3962555	-13.22403	-1.4767609
1493568475317	5.1597443	-10.678665	4.7551117
1493568475317	2.5059814	-10.718292	1.4800568
1493568475317	-0.27137756	-8.021103	2.46669
1493568475318	-1.7139282	-6.0558777	2.896469
1493568475318	-2.0712585	-4.6858826	4.2843475
1493568475318	-2.9226532	-3.1556244	4.7268066
1493568475318	-3.246643	-2.1364594	4.3362885
1493568475318	-3.1650238	-1.3468323	4.5832977
1493568475318	-3.009262	-0.63012695	3.8738403
1493568475319	-2.7763214	-0.6214142	3.2479095
1493568475319	-2.5695343	-2.6217651	1.4922028
1493568475319	-3.1203156	-7.964325	-4.271103
1493568475319	-5.570862	-15.550247	-13.759003
1493568475319	-5.6790314	-19.474823	-18.783585
1493568475319	-1.8619232	-16.178543	-11.933472
1493568475319	-0.47428894	-5.9431458	-1.7366486
1493568475320	-3.2004547	1.6811066	-0.46105957
1493568475320	-8.311111	-3.2572632	-0.80999756
1493568475320	-7.408371	-14.991058	0.4549408
1493568475320	-1.1247406	-18.6698	-1.094696
1493568475320	0.856308	-12.475891	2.1448517
1493568475320	-0.8979187	-3.3896942	8.490143
1493568475321	-4.129486	-2.8070679	8.088364
1493568475321	-4.358444	-8.818573	5.3654327
1493568475332	-0.9550171	-13.045715	2.62117
1493568475332	2.1065369	-14.321625	2.9589386
1493568475332	3.9325256	-14.73848	2.2338104
1493568475333	1.1275482	-12.724899	-0.9536896
1493568475333	-1.1029663	-9.589752	0.31845093
1493568475333	-4.1725006	-7.8822784	0.0382843
1493568475334	-6.955719	-6.8679047	-1.2655487
1493568475334	-3.9270935	-7.313095	0.096069336
1493568475334	-0.22068787	-8.183975	0.62657166
1493568475334	0.49542236	-8.580948	0.6267395
1493568475334	0.73191833	-9.096741	0.83021545
1493568475334	0.5393677	-9.36116	1.3920135
1493568475335	0.46148682	-9.65625	0.6689453
1493568475335	0.91659546	-9.481995	-0.20036316
1493568475335	0.72621155	-9.061554	-0.49761963
1493568475335	-0.45089722	-9.983719	-1.1637573
1493568475335	-2.3026886	-11.279327	-0.99098206
1493568475335	-1.9084167	-12.283722	-1.1599274
1493568475336	0.027572632	-12.72319	-1.259079
1493568475336	-0.17947388	-12.903336	-2.2624512
1493568475336	-1.2635651	-13.767181	-5.0352936
1493568475336	1.60495	-15.150131	-3.649643
1493568475336	2.768097	-15.992432	-3.3007813
1493568475336	0.98690796	-14.9861145	-3.7294006
1493568475336	-0.9113922	-11.747772	0.05218506
1493568475337	-3.1868439	-11.355972	4.5470276
1493568475337	-5.202423	-13.284607	7.876892
1493568475337	-8.174973	-14.500214	2.9136505
1493568475337	-6.825638	-15.194107	1.3902893
1493568475337	-5.680191	-14.861969	-2.3017578
1493568475337	0.90431213	-11.207443	0.29075623
1493568475338	7.7555695	-10.581543	3.9815674
1493568475338	1.3407745	-10.095779	2.5124664
1493568475338	-0.6457672	-7.388336	2.0901642
1493568475338	-1.0949249	-6.451248	3.3256989
1493568475338	-2.8056335	-4.620102	4.0111084
1493568475338	-3.473816	-2.7776337	4.5258484
1493568475338	-3.2347565	-2.4298706	4.3932495
1493568475339	-2.7262726	-1.5451508	4.582657
1493568475339	-2.7361298	-0.80877686	3.4974213
1493568475339	-2.5516815	-1.4331512	2.5892487
1493568475339	-2.4766083	-4.069687	0.4177246
1493568475339	-3.5247345	-10.668716	-7.3580475
1493568475339	-6.029953	-18.469772	-18.512375
1493568475340	-4.423935	-19.474823	-16.248962
1493568475340	-0.5786133	-15.212372	-6.202835
1493568475340	-0.6708832	-3.091629	-0.69021606
1493568475340	-3.172943	1.4980774	-0.99165344
1493568475340	-7.75058	-5.7118835	-1.3669128
1493568475340	-7.4225464	-16.134842	1.8811035
1493568475341	-3.6588287	-18.6875	-2.3905792
1493568475341	-1.3578491	-11.072617	2.921692
1493568475343	-2.3209991	-2.407898	13.136612
1493568475343	-3.956543	-4.747101	8.808228
1493568475343	-0.9431915	-10.882538	5.215103
1493568475343	3.2798767	-14.345123	3.592743
1493568475343	5.238312	-15.455246	3.8602142
1493568475344	2.8804016	-14.220123	2.2033386
1493568475344	-2.0919952	-11.17009	-0.097579956
1493568475344	-4.9029236	-8.78653	0.5338135
1493568475344	-7.5332336	-7.3075104	-0.05253601
1493568475345	-6.484146	-7.244705	-0.3722992
1493568475345	-1.890091	-8.4040985	1.010376
1493568475345	0.8305054	-8.8341675	1.043335
1493568475345	1.1667938	-8.600632	1.059433
1493568475345	0.72987366	-9.074402	1.3838959
1493568475346	-0.09776306	-9.827621	0.41210938
1493568475346	0.3959198	-10.108475	0.14537048
1493568475346	1.0133667	-9.661926	-0.1643982
1493568475346	0.41114807	-9.628464	-1.9206085
1493568475346	-0.46012878	-11.092911	-2.51268
1493568475346	-1.7552795	-12.25827	-2.2950592
1493568475346	-0.5313263	-12.519165	-1.7351532
1493568475346	0.9208832	-12.5972595	-0.64775085
1493568475346	-0.735672	-12.660934	-1.2159882
1493568475346	-1.7508698	-13.514191	-2.9001465
1493568475346	0.74609375	-14.65506	-1.8799286
1493568475346	0.9961548	-15.062607	-1.5388031
1493568475346	-0.92189026	-13.82106	-3.0249176
1493568475346	-3.322174	-11.703674	-0.19833374
1493568475346	-5.472809	-10.814346	2.7651978
1493568475346	-6.5983734	-11.82431	7.1597595
1493568475346	-8.405685	-13.419922	5.3793793
1493568475346	-6.0838013	-14.479324	1.7115479
1493568475346	-3.596466	-13.462067	-2.5840302
1493568475346	0.40148926	-11.15181	-0.77911377
1493568475346	3.0610352	-12.266678	0.23971558
1493568475346	0.6473694	-10.03157	2.5934143
1493568475346	-0.49783325	-7.921097	3.283615
1493568475346	-1.4538879	-6.982315	4.0987854
1493568475346	-3.1173859	-4.981186	4.8563843
1493568475346	-3.9146729	-3.931488	4.0108643
1493568475346	-3.637558	-2.8743286	3.0861664
1493568475347	-2.4704437	-2.0576477	2.786026
1493568475347	-2.172409	-1.3699493	2.964981
1493568475347	-2.247406	-1.4595337	2.570221
1493568475347	-2.3841858	-2.9204407	1.2570038
1493568475347	-2.9138794	-7.5714417	-3.2525024
1493568475347	-4.7179413	-14.958664	-12.096283
1493568475347	-4.7101746	-19.474823	-18.830322
1493568475347	-2.339157	-16.726486	-13.009369
1493568475347	-0.7268524	-5.9008026	-2.5496063
1493568475347	-2.2402954	3.2090912	1.0610046
1493568475347	-6.4471283	0.14855957	1.233429
1493568475347	-7.823929	-12.688675	2.9081726
1493568475347	-4.4235535	-19.474823	-1.6300659
1493568475347	-1.5415802	-16.057281	-1.6915588
1493568475347	-0.6752777	-6.26091	7.7387543
1493568475347	-2.7302551	-0.9009247	11.7682495
1493568475347	-3.927353	-5.351059	7.245987
1493568475347	-1.3164978	-10.916885	3.7728882
1493568475347	1.5464935	-13.288712	2.6935883
1493568475347	3.661499	-14.711578	3.6222687
1493568475347	3.4051666	-14.547165	0.7237091
1493568475347	0.62361145	-11.18222	-0.88609314
1493568475347	-2.3828735	-8.190918	1.3627625
1493568475347	-5.8459625	-7.016449	-0.12910461
1493568475347	-5.7702484	-6.8494873	-0.5899048
1493568475347	-1.9402313	-7.7467194	0.81314087
1493568475347	0.2774353	-8.704025	1.1337433
1493568475347	0.82832336	-9.559387	0.7902374
1493568475347	0.6508484	-10.049484	0.55604553
1493568475347	0.15170288	-9.920944	0.111968994
1493568475347	0.25135803	-9.843521	-0.668396
1493568475347	0.6815796	-9.738052	-1.1879272
1493568475347	0.23983765	-10.630905	-1.0852814
1493568475347	-1.1972809	-11.693466	-1.0656891
1493568475347	-1.9896088	-11.776733	-1.5305939
1493568475347	-0.5308838	-11.958267	-1.5959625
1493568475347	0.23904419	-11.96434	-0.57347107
1493568475347	-1.6400604	-12.882263	-2.7637634
1493568475347	-0.35205078	-14.67392	-3.3331451
1493568475347	1.9710693	-14.902679	-2.194931
1493568475348	0.6213989	-14.302628	-3.092865
1493568475348	-2.3538818	-11.826462	-0.35488892
1493568475348	-4.359375	-10.591156	1.8733215
1493568475348	-5.0920105	-11.777588	5.848816
1493568475348	-7.5483246	-13.452469	4.380356
1493568475348	-7.4828796	-14.510376	2.568283
1493568475348	-7.2038574	-14.81842	-0.9438782
1493568475349	-1.5996552	-11.914017	-0.7993164
1493568475349	4.0992584	-9.36232	5.903366
1493568475349	1.0286865	-11.246063	1.3193665
1493568475349	-0.74806213	-8.771957	1.0424194
1493568475349	-1.4526367	-7.1766357	2.946991
1493568475349	-2.3334503	-5.924576	3.5832825
1493568475349	-3.228775	-4.139984	3.617569
1493568475349	-3.5311737	-2.9849243	3.532486
1493568475349	-2.5134583	-2.2937317	3.148285
1493568475349	-1.7643433	-1.3434296	3.1493225
1493568475349	-2.1104126	-1.2752991	2.706543
1493568475349	-2.1257324	-2.4490662	1.2954559
1493568475349	-2.3055115	-6.1636963	-2.0329132
1493568475349	-4.480057	-12.951263	-9.106613
1493568475349	-5.440262	-19.474823	-19.722397
1493568475349	-0.75827026	-18.253754	-16.312775
1493568475349	-0.8910675	-10.748062	-3.6952515
1493568475349	-1.1981506	1.1379242	0.5993805
1493568475349	-4.1400604	2.845459	1.3509674
1493568475349	-7.539734	-8.911652	3.9243927
1493568475349	-5.897064	-18.757187	2.808014
1493568475349	-2.9692993	-17.935852	-6.432495
1493568475349	-1.3939972	-10.081924	1.6230469
1493568475349	-1.778717	-2.0063019	14.848785
1493568475349	-3.5340424	-4.3418274	10.412933
1493568475349	-3.1256104	-9.627121	3.0530396
1493568475349	-0.31652832	-11.966309	1.2908936
1493568475349	2.482956	-13.596878	3.0331726
1493568475349	2.9884338	-14.258392	0.15481567
1493568475349	0.6263733	-11.602478	-1.7570648
1493568475350	-2.4731293	-8.812515	1.8950806
1493568475350	-5.4675293	-7.6798553	0.37454224
1493568475350	-4.699768	-7.404007	-0.98561096
1493568475350	-1.0532684	-7.7873077	0.02949524
1493568475350	0.14402771	-8.279251	0.90115356
1493568475350	0.059158325	-8.924515	1.5753784
1493568475350	-0.124801636	-9.598999	1.5776062
1493568475350	0.048675537	-9.66684	1.3374939
1493568475350	0.06967163	-9.246429	0.93774414
1493568475375	-0.5121002	-8.9478	-0.7134552
1493568475395	-1.4256134	-9.614029	-1.9328003
1493568475412	-2.8996277	-10.685928	-1.1863861
1493568475432	-3.041504	-11.37114	-1.5061951
1493568475449	-0.91922	-12.206726	-1.665329
1493568475472	0.4601593	-12.880188	-2.4071808
1493568475491	0.92100525	-14.297195	-3.8493652
1493568475511	3.4874115	-16.155914	-3.0415802
1493568475532	3.336319	-16.275864	-2.026184
1493568475550	-0.55592346	-14.44725	-3.3471832
1493568475570	-4.3350983	-11.353577	-1.2659454
1493568475589	-5.967392	-10.678268	2.3456268
1493568475609	-6.4391937	-12.18512	6.492569
1493568475630	-7.263504	-13.088715	4.661087
1493568475651	-5.143585	-14.543137	1.7440033
1493568475670	-4.4963684	-13.603226	-2.2326813
1493568475691	-1.902008	-11.370789	0.43727112
1493568475710	2.6463776	-10.046173	5.3922424
1493568475730	0.009338379	-11.419296	-0.85824585
1493568475750	-0.9530182	-8.8893585	2.1924438
1493568475790	-1.8764191	-7.491684	2.5088043
1493568475809	-3.1961212	-5.883896	2.9434052
1493568475827	-3.2945251	-4.4275055	3.5636597
1493568475847	-2.7172089	-3.0181274	3.0508575
1493568475870	-1.9805298	-2.7607727	3.3363647
1493568475890	-2.1048737	-1.8812408	3.3193512
1493568475910	-2.7781677	-0.6482849	3.24971
1493568475927	-2.7506714	-1.3415222	1.7700348
1493568475950	-2.539093	-5.201233	-0.6685486
1493568475968	-3.036377	-12.598724	-7.0422516
1493568475989	-4.063797	-19.474823	-19.722397
1493568476008	-1.2032318	-18.456482	-17.505768
1493568476029	-0.65901184	-10.8414	-5.0496674
1493568476049	-1.0811157	0.46955872	0.36904907
1493568476068	-4.3560333	1.8926697	2.0593262
1493568476087	-7.534317	-9.430725	4.8856354
1493568476107	-4.7059784	-18.497635	3.4539795
1493568476123	-3.9992828	-17.651566	-7.2733917
1493568476148	-2.6724548	-8.973511	1.6807556
1493568476167	-2.8302612	-0.8414154	13.751404
1493568476187	-3.6276855	-3.893814	10.360016
1493568476207	-2.4882202	-10.288528	3.4156647
1493568476225	0.93003845	-13.457397	2.312561
1493568476247	3.9340973	-15.085098	4.384613
1493568476266	3.879715	-15.247574	0.13658142
1493568476286	0.42263794	-11.308182	-2.0414429
1493568476306	-3.664032	-8.15535	1.6931
1493568476331	-5.952133	-7.2105865	0.8164673
1493568476342	-4.8115234	-7.4509583	-0.521225
1493568476364	-1.2606659	-8.330841	0.027694702
1493568476379	0.3625946	-8.452744	0.64126587
1493568476402	0.19392395	-8.458023	1.2743073
1493568476418	-0.14187622	-8.956223	1.576889
1493568476443	-0.1131897	-9.393875	1.4413147
1493568476462	0.40808105	-9.44017	0.38619995
1493568476482	0.69992065	-9.510666	-0.8127899
1493568476502	-0.068237305	-10.516083	-1.4667358
1493568476521	-1.9890594	-11.919449	-1.1832123
1493568476542	-2.4407043	-12.405106	-1.5677032
1493568476561	-0.20783997	-12.496017	-1.5679169
1493568476587	0.841568	-12.57872	-1.6455994
1493568476602	-0.3990326	-12.938065	-3.809723
1493568476620	0.432724	-13.606049	-4.5237885
1493568476645	2.227356	-14.403824	-3.2641754
1493568476662	1.1199799	-15.133926	-2.9003754
1493568476682	-1.4490814	-13.894211	-1.6934052
1493568476702	-3.0015564	-11.505905	1.1925964
1493568476721	-3.6129456	-12.373062	6.7904205
1493568476742	-6.936432	-12.985077	6.23143
1493568476761	-7.747101	-14.456085	2.6836853
1493568476781	-7.0707703	-15.088074	0.18826294
1493568476803	-2.935669	-12.957748	-0.7935791
1493568476820	6.6925354	-11.742813	3.4166412
1493568476840	2.1684265	-11.154434	1.8631439
1493568476860	-0.6303253	-8.133591	1.5110321
1493568476879	-1.2071533	-6.572174	3.3447418
1493568476900	-2.2888184	-4.810669	3.8077393
1493568476919	-2.825714	-3.0571747	4.0276947
1493568476959	-3.135376	-2.4534302	4.0058136
1493568476960	-2.9717255	-2.3248444	3.923996
1493568476999	-2.6499481	-1.483551	3.8506012
1493568477018	-2.8589325	-0.7411804	3.468933
1493568477035	-2.7618408	-1.5978088	2.0633392
1493568477058	-1.8530121	-5.287842	-0.974411
1493568477077	-2.7884521	-13.321747	-8.092438
1493568477096	-5.4523315	-19.474823	-19.722397
1493568477117	-1.6282501	-19.163467	-18.72316
1493568477134	-1.1217499	-12.994583	-3.9458466
1493568477157	-0.91903687	-0.75465393	0.76734924
1493568477176	-2.5223541	3.6740875	0.26011658
1493568477197	-6.540207	-4.737488	0.65000916
1493568477216	-6.5092316	-14.8745575	5.90744
1493568477236	-4.017517	-18.981308	-2.045761
1493568477256	-1.9429169	-14.566147	-5.163864
1493568477276	-2.067215	-5.99115	7.165558
1493568477296	-3.1679077	-2.4850311	9.757462
1493568477315	-2.4678345	-5.9212036	8.563736
1493568477335	-0.5775604	-11.075699	1.8595123
1493568477355	1.9507751	-13.875381	2.8496094
1493568477375	3.969162	-15.685852	2.748108
1493568477395	2.5929565	-13.519669	-1.967453
1493568477414	-1.5111237	-8.8650055	2.2145386
1493568477435	-5.7979126	-6.9429016	1.2155914
1493568477454	-6.8443604	-6.7288055	-0.49049377
1493568477474	-2.9394836	-7.7332764	0.28468323
1493568477495	-0.13815308	-8.753647	0.6542816
1493568477514	0.31626892	-8.986053	0.75486755
1493568477533	0.19900513	-9.211838	1.7206879
1493568477555	-0.06529236	-9.737976	1.5025177
1493568477573	-0.12528992	-10.074387	0.7256775
1493568477593	-0.079818726	-9.732941	-0.49017334
1493568477615	-0.1817627	-10.058441	-1.666626
1493568477631	-1.2837524	-11.425507	-1.9891663
1493568477651	-2.557022	-12.158325	-2.2531738
1493568477673	-0.7000885	-12.3342285	-1.9884491
1493568477692	1.4061127	-12.417664	-0.9851532
1493568477712	-0.064437866	-13.08934	-2.2118225
1493568477730	0.12236023	-14.338058	-3.1779938
1493568477752	1.6632385	-14.656647	-2.574646
1493568477770	0.75737	-14.239624	-2.67865
1493568477791	-1.9837036	-12.368164	-1.1781921
1493568477811	-4.705612	-10.826523	0.44380188
1493568477830	-5.717209	-11.444672	5.2098694
1493568477850	-7.3715363	-13.3172	6.5000916
1493568477870	-7.7744904	-14.620697	3.286911
1493568477890	-6.688019	-14.535065	-0.9611969
1493568477910	-3.598526	-12.481308	-1.472641
1493568477929	1.1731415	-10.074188	4.8861237
1493568477950	2.2840729	-11.716217	0.84039307
1493568477969	0.5947418	-9.915482	0.7458801
1493568477989	-1.4892426	-7.5669403	2.6082458
1493568478009	-2.3862457	-5.655548	3.836853
1493568478028	-3.240219	-3.5480194	3.834732
1493568478048	-3.8879242	-2.0095215	3.5250702
1493568478068	-3.032959	-1.6092529	2.9347992
1493568478087	-1.9253235	-1.3724518	3.2137756
1493568478108	-2.0758057	-0.57606506	3.1276398
1493568478127	-1.6736755	-1.591095	1.7622375
1493568478167	-1.0216064	-5.4561462	-0.7198181
1493568478186	-2.2582245	-13.295822	-9.548599
1493568478207	-4.945511	-19.474823	-19.68254
1493568478226	-5.740082	-19.001907	-18.155655
1493568478245	-2.9815369	-11.9133	-7.0128326
1493568478266	-2.7060852	-3.7144775	-0.47987366
1493568478284	-3.0784607	-0.20413208	0.22328186
1493568478306	-6.795578	-7.226303	-1.1158295
1493568478325	-6.733368	-15.923843	1.6624146
1493568478344	-3.1927032	-16.889008	2.495758
1493568478365	-2.243103	-11.7771	-1.6924744
1493568478384	-1.3962555	-4.522064	7.6216736
1493568478405	-2.794983	-3.291687	8.624863
1493568478424	-2.955429	-8.158554	6.035141
1493568478444	-0.23622131	-12.292526	2.3748474
1493568478464	2.5179596	-13.758148	2.1892395
1493568478483	4.301758	-14.390366	2.2457275
1493568478504	1.5997009	-12.844574	-1.0324707
1493568478525	-1.7537079	-9.5616	0.55223083
1493568478541	-4.783539	-7.765335	1.0810547
1493568478563	-6.204605	-7.7364044	-0.61331177
1493568478584	-3.7761688	-8.198425	-0.39822388
1493568478603	-0.9700165	-8.260422	0.72831726
1493568478622	-0.33898926	-8.389542	0.9516907
1493568478643	-0.07788086	-9.019104	1.7722778
1493568478662	0.35079956	-9.644409	1.9675903
1493568478681	0.8929596	-9.443771	1.6328278
1493568478701	1.0815887	-9.000153	0.08558655
1493568478721	0.83843994	-9.556747	-1.2844543
1493568478740	0.013198853	-11.089966	-1.4389343
1493568478763	-1.7802124	-11.909225	-1.3797607
1493568478780	-2.1958923	-12.06041	-1.7466278
1493568478800	-0.7719269	-12.14476	-1.1898956
1493568478820	-1.6945496	-12.382629	-2.811142
1493568478839	-1.7453766	-13.483948	-4.908066
1493568478860	1.0928497	-15.037201	-3.617447
1493568478879	2.2204895	-15.829529	-2.7151337
1493568478899	0.5144348	-14.269928	-2.701294
1493568478919	-1.561966	-12.075729	-0.74668884
1493568478939	-3.471695	-11.626312	3.7372894
1493568478959	-5.5826416	-12.713608	6.1446533
1493568478978	-7.385147	-13.694931	4.3217163
1493568478998	-6.460724	-14.331619	0.9487915
1493568479014	-5.2274323	-14.041092	-2.2900848
1493568479034	-0.44015503	-11.00238	0.51860046
1493568479056	4.937393	-10.610565	3.9604645
1493568479073	1.3274536	-10.25087	1.5282135
1493568479091	-0.70539856	-8.161209	1.4391785
1493568524305	-1.1531372	-6.9780884	3.2000427
1493568524305	-3.082962	-4.7421265	3.4952393
1493568524305	-3.730301	-2.9849854	3.4380646
1493568524305	-3.0873108	-2.385086	3.1190796
1493568524306	-2.1456146	-2.3692627	3.2129364
1493568524306	-2.2144775	-1.656189	3.1468964
1493568524306	-2.63945	-1.2774506	2.8695526
1493568524306	-2.6516266	-2.818512	1.0925751
1493568524306	-2.8703308	-7.2002716	-2.6797943
1493568524306	-5.3942413	-16.608047	-13.478027
1493568524307	-5.3124695	-19.474823	-19.36911
1493568524307	-2.1493378	-18.380981	-13.676895
1493568524307	0.091796875	-4.6660767	-2.4088135
1493568524307	-0.69781494	5.287155	3.2420502
1493568524307	-5.8883057	-1.5796967	1.1238403
1493568524307	-8.020645	-16.271591	3.1147614
1493568524308	-3.1834717	-18.914215	-0.51504517
1493568524308	-1.272644	-13.876892	-4.61528
1493568524308	-1.9178772	-3.7695923	12.097427
1493568524308	-5.4004364	-2.3267212	10.316284
1493568524308	-6.516342	-8.121506	4.741394
1493568524308	-1.1692657	-12.295395	2.3026733
1493568524308	3.3247223	-13.645004	3.3541107
1493568524309	5.290222	-14.953415	3.1405334
1493568524309	1.9426727	-14.35498	-2.2656403
1493568524309	-1.9187927	-10.136734	0.5511322
1493568524309	-4.31604	-7.5322876	2.1219177
1493568524309	-6.533676	-6.5474396	-0.40296936
1493568524309	-4.3249207	-7.147049	-0.11265564
1493568524309	-0.0060577393	-8.330826	0.7259369
1493568524310	0.55830383	-8.627502	0.8145752
1493568524310	-0.016952515	-8.578751	1.8760376
1493568524310	-0.06512451	-8.959702	2.0445251
1493568524310	0.18708801	-9.558212	1.2727051
1493568524310	0.39901733	-9.8663025	-0.08859253
1493568524310	-0.016799927	-9.842804	-1.8056488
1493568524311	-0.50393677	-10.527542	-2.3384705
1493568524311	-1.1676025	-11.802689	-2.0148926
1493568524311	-1.0702362	-12.694656	-1.9904175
1493568524311	0.562912	-12.742279	-1.7250824
1493568524311	0.42337036	-12.342163	-2.3179932
1493568524311	-0.7233734	-13.244095	-3.8180084
1493568524312	0.41020203	-15.132767	-3.367279
1493568524312	1.1148224	-15.994064	-2.495224
1493568524312	-0.73257446	-14.420334	-3.3215485
1493568524312	-3.302597	-12.223907	-1.5732727
1493568524312	-4.4723053	-11.449219	4.451706
1493568524312	-6.3420563	-12.787933	7.261307
1493568524313	-8.7331085	-14.283081	4.262787
1493568524313	-8.072754	-14.856186	0.92111206
1493568524313	-5.655258	-14.241058	-1.435257
1493568524313	-0.92744446	-11.758545	0.16885376
1493568524313	2.606018	-11.799194	2.2310028
1493568524313	0.71461487	-9.971024	1.3666992
1493568524314	-0.45030212	-7.3503876	1.7633667
1493568524314	-1.2290955	-6.012268	3.596405
1493568524314	-2.749298	-4.164093	3.6444855
1493568524314	-3.1786041	-2.7043304	3.5347748
1493568524314	-3.2901154	-2.0662842	3.9497528
1493568524314	-2.4478912	-0.9999695	4.2254333
1493568524314	-2.0988922	-0.19082642	3.6409454
1493568524315	-2.0648956	-0.47254944	2.6638184
1493568524315	-1.5753326	-2.9871826	1.1719971
1493568524315	-1.4694672	-8.524078	-5.498108
1493568524315	-6.100342	-19.37442	-19.591827
1493568524315	-9.000824	-19.474823	-19.722397
1493568524315	-1.487442	-18.203781	-5.866165
1493568524316	-1.206253	-2.8377533	-1.6263123
1493568524316	-2.5324707	4.7081757	-0.33432007
1493568524316	-8.7122345	-3.414215	1.1620331
1493568524316	-7.7612	-18.053787	1.875885
1493568524316	-4.0699005	-17.503784	2.1401672
1493568524362	-2.1506195	-11.245789	-2.9012146
1493568524362	-1.9144135	-1.6703186	11.229782
1493568524362	-3.8388367	-3.0718231	7.531128
1493568524362	-2.1712036	-10.951553	6.3040466
1493568524362	2.2026672	-15.070663	3.1019135
1493568524362	4.1605377	-15.216629	2.2085114
1493568524362	4.3610992	-15.001724	2.151413
1493568524363	0.4990692	-11.474731	-0.20196533
1493568524363	-2.625473	-8.408966	2.5581818
1493568524363	-5.845215	-7.553299	0.06237793
1493568524363	-7.986374	-7.017166	-1.3580322
1493568524363	-4.0422363	-7.5460205	0.051620483
1493568524363	-0.20185852	-7.7290955	1.4500427
1493568524363	0.29452515	-8.143311	1.5236359
1493568524363	0.15226746	-9.312775	1.442688
1493568524363	-0.15325928	-9.962219	1.3757324
1493568524363	-0.45962524	-10.339737	0.8574829
1493568524363	-0.88153076	-10.5048065	-0.5765991
1493568524363	-0.7206726	-10.906799	-2.3491516
1493568524363	-0.9989624	-11.705612	-3.5776367
1493568524363	-0.6635742	-12.37822	-3.5354462
1493568524363	1.8565063	-12.323425	-1.7050171
1493568524363	1.7066345	-12.007492	-1.0488129
1493568524363	-1.0365295	-12.394165	-3.1070557
1493568524363	-0.69615173	-13.76712	-4.0470734
1493568524363	0.7319641	-15.640091	-3.0190277
1493568524363	0.0660553	-15.300903	-2.062912
1493568524363	-1.4051819	-12.920471	-0.18725586
1493568524363	-3.8543549	-11.410736	3.3047485
1493568524363	-6.712921	-12.541885	5.455841
1493568524363	-8.66864	-14.46817	5.63414
1493568524363	-7.814987	-14.733078	3.3363342
1493568524363	-6.2421722	-13.231247	0.13671875
1493568524363	-2.8279572	-10.959213	-0.7111664
1493568524363	2.1383362	-10.476486	1.8897705
1493568524363	1.2400055	-10.46817	2.4317627
1493568524363	-0.36410522	-8.738754	2.5330048
1493568524363	-1.3721466	-7.448593	3.429062
1493568524363	-2.8768158	-5.461075	3.7419128
1493568524363	-3.6880035	-3.289627	4.0224457
1493568524363	-3.9220276	-2.0132294	3.467865
1493568524363	-2.8581085	-1.0595093	3.331665
1493568524363	-2.0075378	-0.64141846	3.161438
1493568524363	-1.4934387	-1.0248566	2.232788
1493568524363	-1.2085114	-2.7320862	1.2599487
1493568524363	-1.7259674	-6.9341736	-1.9075012
1493568524363	-4.273773	-16.439362	-17.037704
1493568524363	-4.90567	-19.446136	-19.7052
1493568524363	-2.3530426	-19.474823	-10.229813
1493568524364	-0.2427826	-7.3898163	-2.9616241
1493568524364	-1.6270447	3.8875885	0.4979248
1493568524364	-7.0039215	-1.5172882	2.4301758
1493568524364	-7.397278	-14.1757965	8.13623
1493568524364	-6.3763275	-19.345825	-2.2794342
1493568524364	-4.1810455	-15.139801	-8.716583
1493568524364	-2.486786	-2.8088531	15.079651
1493568524364	-2.9413757	-2.2419586	9.472794
1493568524364	-2.460617	-8.29007	5.950821
1493568524364	1.0998993	-12.835236	3.2265167
1493568524364	3.739334	-13.640045	2.1014404
1493568524364	3.9596252	-14.9272	4.3505096
1493568524364	0.57125854	-12.669708	-1.8651276
1493568524364	-2.4153595	-8.528763	2.0842743
1493568524364	-4.923935	-8.156433	2.0101013
1493568524364	-6.2114105	-7.090622	-1.5045471
1493568524364	-3.895874	-7.356949	-0.9013672
1493568524364	-0.039886475	-8.043884	0.7596283
1493568524364	1.346817	-8.542831	1.3028259
1493568524364	1.2129974	-9.166412	2.0460358
1493568524364	-0.3176117	-9.692596	2.3276978
1493568524364	-1.368576	-9.245102	1.2256622
1493568524364	-1.6237946	-9.089462	-0.861084
1493568524364	-1.3334045	-9.787979	-2.2653503
1493568524364	-1.1526642	-11.334702	-2.0416718
1493568524364	-1.4701538	-12.469269	-1.4663391
1493568524364	0.16496277	-12.575806	-1.5593872
1493568524364	1.6923218	-12.558334	-1.5167999
1493568524364	-0.029022217	-12.720139	-2.7895203
1493568524364	-0.815979	-13.450577	-4.2100525
1493568524364	0.9980774	-14.235397	-3.4877014
1493568524364	1.0020447	-15.429489	-2.8985443
1493568524364	-0.25201416	-14.710724	-1.1579285
1493568524364	-1.8534698	-12.311523	1.9604797
1493568524364	-3.7238007	-11.8007965	5.3135834
1493568524364	-5.94928	-12.656067	5.2211304
1493568524364	-7.130356	-13.417053	3.030243
1493568524364	-6.642395	-13.866989	1.4658661
1493568524364	-4.3280945	-13.217285	-0.8195801
1493568524364	0.3746338	-11.606766	2.290207
1493568524364	1.9983673	-11.7803955	2.5586853
1493568524364	0.2398529	-10.23259	2.2173767
1493568524365	-1.558197	-7.821411	2.9249115
1493568524365	-2.0588226	-6.303116	3.990265
1493568524365	-2.9117126	-4.3013	4.2154694
1493568524365	-3.6033783	-2.961258	3.7353363
1493568524365	-2.870407	-2.034256	3.7541046
1493568524365	-1.8985596	-0.93788147	3.5606232
1493568524365	-2.0552216	-0.7046051	3.0714874
1493568524365	-1.8710938	-2.0658264	2.0280304
1493568524365	-2.0732727	-5.7688904	-0.60180664
1493568524365	-5.1466064	-13.182785	-7.7394257
1493568524365	-5.4499817	-18.804733	-18.303879
1493568524365	-0.32861328	-19.474823	-15.669235
1493568524365	-0.82406616	-10.50116	-4.631439
1493568524365	-1.3230591	-0.4834137	1.8703308
1493568524365	-7.2937775	-2.5675201	-1.0656128
1493568524365	-7.991516	-16.332413	1.3412323
1493568524365	-5.4471283	-19.451187	1.8301697
1493568524365	-0.3121338	-11.896027	-1.4493866
1493568524365	-1.6520538	-1.7832489	10.753189
1493568524365	-5.2814484	-1.2605896	9.254913
1493568524365	-3.9729156	-8.460098	9.074463
1493568524365	-0.5253601	-13.494354	3.2575226
1493568524365	1.6189117	-13.673706	2.7174377
1493568524365	3.72258	-14.57048	5.019806
1493568524365	2.465805	-12.992477	-6.903488
1493568524365	-1.2287292	-9.214737	2.4706116
1493568524365	-2.7089996	-7.195938	3.333908
1493568524365	-5.8480377	-7.061157	-0.036697388
1493568524365	-3.5641632	-8.15979	-1.0345917
1493568524365	-0.02017212	-8.958237	-0.27700806
1493568524365	0.119125366	-8.869843	0.34643555
1493568524365	-0.34687805	-9.160202	1.310318
1493568524365	-0.48088074	-9.313538	2.0286407
1493568524365	-0.886322	-9.551834	0.8187256
1493568524365	-0.65660095	-9.598679	-0.8314209
1493568524365	-0.31523132	-9.590317	-1.6414032
1493568524365	-0.9013214	-10.840622	-1.2366638
1493568524365	-1.9718323	-11.743225	-0.93865967
1493568524365	-0.27233887	-11.812347	-1.2141418
1493568524365	1.4655609	-12.166336	-1.1028442
1493568524365	0.27331543	-12.866547	-2.6393433
1493568524365	0.13383484	-14.250153	-3.2146606
1493568524365	0.9213257	-15.166916	-2.39003
1493568524366	-0.9270172	-14.388504	-2.6615906
1493568524366	-3.857376	-12.490372	-1.8918762
1493568524366	-6.0583344	-11.303024	1.3789673
1493568524366	-7.491394	-11.542725	5.315735
1493568524366	-8.552063	-12.638962	5.490692
1493568524366	-7.8598022	-13.621399	1.4227448
1493568524366	-5.406952	-13.020386	-1.460022
1493568524366	-2.695816	-11.078461	-0.83406067
1493568524366	3.042511	-10.821091	1.2037506
1493568524366	3.3119202	-10.744247	1.0605469
1493568524366	-0.03012085	-9.26442	0.35739136
1493568524366	-1.7675934	-7.4620514	1.6115723
1493568524366	-3.0196838	-5.5315704	2.9871979
1493568524366	-3.617096	-3.457016	3.4038696
1493568524366	-3.8002625	-2.4064484	3.096161
1493568524366	-2.8826141	-2.237854	2.5627594
1493568524366	-2.1747131	-2.0935974	2.5174713
1493568524366	-2.0435944	-2.060669	2.4420624
1493568524366	-1.562027	-3.4130554	1.206955
1493568524366	-1.728653	-6.4872284	-1.6583099
1493568524366	-3.0923767	-13.235428	-7.7900085
1493568524366	-6.091751	-18.564484	-17.658615
1493568524366	-6.267044	-19.474823	-17.366058
1493568524366	-2.5951843	-12.512268	-8.067368
1493568524366	0.075653076	-1.8111877	0.6335602
1493568524366	-1.9821472	2.823822	3.3053436
1493568524366	-6.1404266	-5.9490356	6.738693
1493568524366	-5.8593597	-16.339264	6.8997498
1493568524366	-5.0681	-19.42482	-7.6673126
1493568524366	-2.7965546	-16.30722	-10.706802
1493568524366	-1.3590088	-3.0991058	15.323959
1493568524366	-2.922882	-3.176834	11.522827
1493568524366	-2.8975983	-7.4701996	4.537567
1493568524366	-1.2673645	-11.404144	2.606018
1493568524366	3.7794495	-13.498138	3.0405731
1493568524366	3.0889435	-16.549225	2.618576
1493568524366	0.8256378	-13.368469	-2.6544495
1493568524366	-2.7096863	-8.971176	0.97195435
1493568524366	-5.7670593	-6.6834106	1.0968628
1493568524366	-7.8878174	-5.683609	-0.039871216
1493568524367	-2.7145844	-7.5870667	0.9371338
1493568524367	0.66981506	-9.216629	0.88990784
1493568524367	0.72299194	-8.907593	1.4966736
1493568524367	-0.16192627	-8.763596	1.8343048
1493568524367	-0.732666	-9.177002	1.2818604
1493568524367	-0.42092896	-9.948532	0.6944275
1493568524367	0.23590088	-10.126617	-0.26338196
1493568524367	0.429245	-10.3159485	-1.1288452
1493568524367	-0.39668274	-11.510712	-1.7913971
1493568524367	-1.029541	-12.398941	-2.1529083
1493568524367	0.30117798	-12.623856	-1.4113312
1493568524367	0.8513031	-12.375626	-0.5770569
1493568524367	-0.9805298	-12.141312	-1.5917511
1493568524367	-1.8387756	-12.973465	-3.9932404
1493568524367	0.32981873	-13.979004	-3.691574
1493568524367	1.6064758	-14.581589	-2.4958801
1493568524367	0.53131104	-14.381317	-2.52919
1493568524367	-1.53302	-12.651627	-1.5342865
1493568524367	-3.1485443	-11.091003	2.7115173
1493568524367	-5.0073853	-11.481537	5.5851135
1493568524367	-6.9146576	-12.805435	5.6117554
1493568524367	-6.954666	-13.415436	2.8398743
1493568524367	-5.5970917	-13.563156	-0.19744873
1493568524367	-2.7507324	-12.469437	-0.63819885
1493568524367	2.0409698	-10.823486	3.2229004
1493568524367	1.5275574	-10.971527	3.2907867
1493568524367	-0.7221222	-10.271423	1.6694031
1493568524367	-1.1280518	-8.431534	2.7281647
1493568524367	-2.2732239	-6.4951324	3.3707886
1493568524367	-3.0342712	-4.3942413	3.2546387
1493568524367	-2.983902	-3.2651978	3.3801422
1493568524367	-2.1841888	-2.4909515	3.6821594
1493568524367	-2.1295776	-1.6632233	3.8552704
1493568524367	-3.0254517	-0.93626404	3.3200378
1493568524367	-3.041153	-1.4280853	2.27565
1493568524367	-2.5081177	-4.305603	-0.6025696
1493568524367	-4.1848755	-11.001144	-6.70726
1493568524367	-5.2539063	-17.955276	-17.109253
1493568524367	-0.74716187	-19.474823	-18.676712
1493568524367	-0.82392883	-14.129761	-7.102722
1493568524367	-1.1512756	-4.079376	-0.3119812
1493568524367	-3.4106293	1.3150177	-0.009719849
1493568524367	-7.914032	-9.518097	0.69155884
1493568524367	-4.086319	-18.47229	0.88119507
1493568524368	-2.1993103	-18.380295	-6.9572296
1493568524368	-0.7963257	-7.782364	6.5250397
1493568524368	-1.9671936	0.3595581	13.862564
1493568524368	-6.604828	-4.7283173	7.4581146
1493568524368	-3.5742645	-11.691437	3.2130585
1493568524368	-1.1780701	-13.377197	2.876007
1493568524368	2.4838715	-12.555664	4.896515
1493568524368	3.5743713	-14.558533	-4.5434875
1493568524368	1.4438477	-11.1020355	-0.105148315
1493568524368	-2.1670227	-7.520767	2.7589722
1493568524368	-3.4151	-7.948471	2.3686523
1493568524368	-3.8599396	-8.427612	-0.047698975
1493568524368	-1.3552551	-9.104279	0.56791687
1493568524368	-0.5597687	-8.480057	-0.37849426
1493568524368	-0.2469635	-8.401016	0.68917847
1493568524368	0.028503418	-9.193024	1.1788635
1493568524368	0.21376038	-9.751999	1.0669708
1493568524368	0.011352539	-9.479935	0.6309509
1493568524368	-0.47343445	-9.631393	-0.4006958
1493568524368	-0.7098236	-10.347931	-1.2999573
1493568524368	-0.48321533	-11.068375	-1.4024658
1493568524368	-1.5499268	-11.609573	-1.6851959
1493568524368	-0.9980316	-11.712143	-1.8049622
1493568524368	0.97058105	-12.068893	-0.83143616
1493568524368	0.11050415	-12.297653	-1.019043
1493568524368	-1.5289612	-13.110458	-2.7670593
1493568524368	0.24021912	-14.389664	-2.5758362
1493568524368	0.9084015	-14.482407	-2.3907013
1493568524368	-0.8809662	-13.726532	-2.5568085
1493568524368	-3.303894	-11.887451	-1.2004547
1493568524369	-4.4409943	-11.291931	3.433487
1493568524369	-5.6037292	-12.698975	7.1990204
1493568524369	-7.1718597	-14.232773	4.11615
1493568524369	-7.3377533	-15.303101	0.5296173
1493568524369	-4.827286	-14.39859	-1.384018
1493568524369	-0.3834839	-11.997269	0.4979248
1493568524369	1.7714691	-11.917557	1.1605377
1493568524369	1.1492615	-10.713211	0.5922394
1493568524369	-0.08206177	-7.4470367	1.963089
1493568524369	-1.7095032	-5.575012	2.3113403
1493568524369	-3.010559	-3.864624	2.990158
1493568524369	-3.891159	-2.824173	3.6777802
1493568524369	-3.6721497	-2.3153229	4.1010895
1493568524369	-2.604889	-1.7111053	4.328598
1493568524369	-2.4466858	-1.0816193	4.095108
1493568524369	-2.598175	-1.7366943	2.9136353
1493568524369	-2.3443604	-4.14946	0.6615448
1493568524369	-2.646225	-9.879349	-4.41185
1493568524369	-4.7345276	-17.356018	-15.935516
1493568524369	-0.44171143	-19.474823	-19.722397
1493568524369	0.5388489	-16.687393	-10.643433
1493568524369	-0.286438	-6.95549	-0.97206116
1493568524369	-1.7539063	0.6174927	0.67678833
1493568524369	-2.5132904	1.3428802	-0.6278534
1493568524369	-4.583023	-7.2763214	5.4319
1493568524369	-5.337097	-17.779327	6.282501
1493568524369	-4.7837067	-19.467072	-9.158951
1493568524369	-6.571991	-16.32077	-3.764801
1493568524369	-6.9350586	-3.3180847	14.593445
1493568524369	-2.6227112	-1.9251099	11.738953
1493568524369	-0.4143219	-6.137558	5.31929
1493568524369	1.1655579	-10.993118	2.6146393
1493568524369	3.5746918	-16.130432	6.568756
1493568524369	4.4806976	-18.372803	-7.299835
1493568524369	-0.44152832	-11.868195	-0.29415894
1493568524369	-1.6112823	-6.9631653	3.371643
1493568524369	-5.1257935	-5.9348907	0.7469177
1493568524369	-3.0591736	-4.787445	1.3276062
1493568524369	-1.7010651	-7.744446	0.18734741
1493568524369	0.2775116	-8.890457	-0.2206726
1493568524369	0.14604187	-9.699936	0.7983856
1493568524369	0.31100464	-9.695328	0.12283325
1493568524369	-0.21537781	-10.176544	-0.04866028
1493568524370	-0.5679779	-9.77211	-0.11010742
1493568524370	-0.67689514	-9.73262	-1.2966461
1493568524370	-1.4658203	-11.052811	-1.3824615
1493568524370	-1.8451538	-11.638351	-1.2662811
1493568524370	-0.09669495	-12.147888	-0.19841003
1493568524370	1.5352173	-12.762848	0.43078613
1493568524370	-0.26811218	-12.793961	-1.9921265
1493568524370	-0.635437	-12.955231	-3.8456268
1493568524370	1.34375	-13.856659	-3.0121613
1493568524370	1.063446	-13.634979	-2.6029816
1493568524370	-1.3601379	-13.0711975	-2.9557953
1493568524370	-4.183319	-11.817917	-1.7985687
1493568524370	-4.886383	-10.611679	3.214035
1493568524370	-6.1006165	-11.268555	7.974304
1493568524370	-7.920471	-12.876282	3.9157867
1493568524370	-7.28096	-14.296509	-0.933548
1493568524370	-4.795059	-14.045731	-1.47612
1493568524370	-1.3671875	-11.925064	0.24636841
1493568524370	1.9812622	-11.769791	1.1144867
1493568524370	2.177124	-11.510117	-0.003479004
1493568524370	-0.2766571	-9.308609	0.659256
1493568524370	-1.7807617	-7.4534454	1.7779236
1493568524370	-3.1369019	-5.320862	3.0344696
1493568524370	-3.9401398	-3.067459	3.7371674
1493568524370	-3.1512146	-1.8932037	3.941269
1493568524370	-2.1740417	-1.4176941	3.2097168
1493568524370	-1.857193	-0.99346924	2.4213867
1493568524370	-1.6331787	-1.303894	1.3728638
1493568524370	-1.3330536	-3.9822998	-0.84251404
1493568524370	-2.153656	-9.771317	-7.188492
1493568524370	-4.3908997	-17.021713	-15.976532
1493568524370	-2.7471619	-19.474823	-18.113724
1493568524370	-0.19918823	-16.341324	-9.821579
1493568524370	-0.71199036	-9.459671	-2.6295166
1493568524370	-0.84402466	-3.3051605	-0.9735718
1493568524370	-4.4779053	-3.4352264	-4.051712
1493568524370	-8.587387	-13.250046	-1.9400635
1493568524370	-7.9283295	-18.689087	2.8206482
1493568524370	-5.8490295	-12.898544	-0.1257019
1493568524370	-3.7920837	-2.8405304	5.1959686
1493568524370	-2.2446136	-0.902771	8.232986
1493568524370	1.960495	-9.460297	8.5438385
1493568524371	2.448822	-16.116547	3.237854
1493568524371	1.888382	-16.818726	1.0902557
1493568524371	1.3722687	-15.757462	-1.7412109
1493568524371	-0.3075409	-10.299896	-1.1314392
1493568524371	-2.7553864	-7.5337524	3.6368256
1493568524371	-2.9511414	-5.997574	2.2652893
1493568524371	-8.044861	-5.678589	0.5966339
1493568524371	-6.5668488	-6.6147156	-0.63482666
1493568524371	-1.2350922	-8.796295	0.042663574
1493568524371	0.991333	-8.753708	0.3549652
1493568524371	0.496521	-9.510208	-1.2675171
1493568524371	-1.0861816	-10.132019	-1.6263885
1493568524371	-1.2374115	-11.500824	-3.7988892
1493568524371	0.19476318	-12.462479	-3.940979
1493568524371	0.055252075	-12.850952	-3.2777863
1493568524371	-2.0932922	-12.258652	-4.330536
1493568524371	-1.3076477	-12.275269	-4.045578
1493568524371	0.46476746	-12.196564	-3.8503723
1493568524371	1.2698517	-12.183151	-4.6894684
1493568524371	-0.35992432	-12.615173	-5.5626373
1493568524371	-0.88746643	-12.517395	-2.8586273
1493568524371	-1.9154358	-13.949417	-5.0005035
1493568524371	-1.0953674	-16.371613	-0.9336395
1493568524371	2.9864197	-16.659714	5.879898
1493568524371	5.818466	-14.304993	10.299316
1493568524371	5.246628	-14.802658	7.9821167
1493568524371	2.4601135	-17.983124	5.047638
1493568524371	0.15544128	-18.118988	4.835541
1493568524371	0.99191284	-14.834991	6.5879974
1493568524371	2.5164032	-12.409256	6.342758
1493568524371	2.2935486	-10.909393	5.540222
1493568524371	1.3459015	-9.260513	5.9086456
1493568524371	1.6496582	-8.783646	7.4262238
1493568524371	0.56663513	-8.285843	7.6770477
1493568524371	-1.4962616	-7.197525	7.623398
1493568524371	-2.819519	-6.807724	7.4107666
1493568524371	-3.8586426	-7.0925903	6.306778
1493568524371	-4.4277496	-8.365494	5.0861053
1493568524371	-5.2173157	-9.676605	3.503769
1493568524371	-6.4168396	-10.854538	0.9339752
1493568524371	-7.2750244	-12.383438	-3.097046
1493568524371	-6.85289	-13.583298	-9.531769
1493568524372	-2.3119354	-13.984711	-11.650375
1493568524372	2.6743774	-12.026627	-6.3641205
1493568524372	5.0794983	-7.320053	0.09133911
1493568524372	4.488632	-3.1848602	2.837326
1493568524372	4.2786255	-3.1615448	1.3092346
1493568524372	2.6872253	-9.0204315	1.0707703
1493568524372	-4.5750732	-17.004196	0.6095276
1493568524372	-6.6178284	-18.479721	-3.0363312
1493568524372	-5.649002	-10.932449	0.9601288
1493568524372	-5.14859	-2.0074615	6.255005
1493568524372	-5.6810303	-2.2121735	6.0912323
1493568524372	-5.6309814	-7.9312744	4.610031
1493568524372	2.3282776	-15.310928	3.85672
1493568524372	5.6671295	-18.794235	8.516083
1493568524372	1.8939972	-15.0746	-0.046875
1493568524372	-2.778885	-11.60231	1.501297
1493568524372	-8.140579	-7.2395782	1.9608917
1493568524372	-10.384659	-7.0181427	1.8949432
1493568524372	-5.6876373	-8.895676	-0.78497314
1493568524372	-1.4847717	-9.214996	-0.22125244
1493568524372	-2.0363922	-8.462265	0.39208984
1493568524372	-3.943756	-7.859543	1.1219177
1493568524372	-1.8472595	-9.01358	0.99028015
1493568524372	0.17051697	-10.335083	1.8426208
1493568524372	0.29452515	-10.32724	1.627655
1493568524372	0.72006226	-9.257294	-0.46162415
1493568524372	-0.30734253	-9.788666	-1.6698761
1493568524372	-0.26644897	-11.086151	-2.1335297
1493568524372	1.3692932	-11.938339	-1.875824
1493568524373	2.1511078	-12.408203	-2.7150574
1493568524373	2.0244598	-12.2397	-3.0642853
1493568524373	1.1985321	-13.139786	-0.89068604
1493568524373	-2.3328552	-14.795151	-0.8047638
1493568524373	-2.4957123	-13.758682	-1.0813293
1493568524373	-2.4439087	-11.459869	-0.7414398
1493568524373	-3.4555206	-11.860306	2.793335
1493568524373	-5.6544952	-13.148956	4.569107
1493568524373	-5.9620667	-15.1011505	3.1885529
1493568524373	-3.4026642	-15.218018	3.593277
1493568524373	-2.6665344	-12.902573	4.107544
1493568524373	-2.8607025	-10.970566	3.6962738
1493568524373	-1.4523315	-10.217789	1.8447113
1493568524373	0.390625	-10.0894165	0.47148132
1493568524373	-0.53967285	-9.744019	1.1903687
1493568524373	0.24407959	-8.5503845	2.34021
1493568524373	-1.2971344	-6.654022	3.0682983
1493568524373	-3.4616547	-4.9244537	3.0751038
1493568524374	-4.414093	-3.5753937	2.65477
1493568524374	-4.1555786	-2.290451	1.8646545
1493568524374	-3.4577026	-1.8624878	1.0201569
1493568524374	-2.4962006	-2.5540009	0.49241638
1493568524374	-1.673111	-4.692642	-1.0275421
1493568524374	-2.2029114	-8.105164	-4.6627655
1493568524374	-3.633133	-12.215164	-10.133194
1493568524374	-3.4069061	-15.75946	-13.097763
1493568524374	-1.4485626	-16.143677	-9.817474
1493568524374	-0.45280457	-12.112732	-5.6051025
1493568524374	-0.54267883	-6.6186066	-3.4590912
1493568524374	-2.0824738	-3.9130554	-2.6015472
1493568524374	-6.2105103	-7.6439056	1.0665741
1493568524374	-7.9786835	-14.785873	6.252289
1493568524374	-5.5120087	-17.391663	-1.0697479
1493568524374	-2.9605713	-13.460693	-3.5844269
1493568524374	-3.3446503	-6.013199	7.3125
1493568524374	-1.9888458	-3.8335571	8.979248
1493568524374	0.09350586	-7.009186	6.104355
1493568524374	2.3343964	-10.414291	4.262024
1493568524374	3.3184662	-13.01886	3.5525665
1493568524374	1.5072021	-14.933426	-4.6769714
1493568524374	-2.2464447	-11.5589905	-1.246521
1493568524374	-3.9414825	-8.490875	3.5257568
1493568524374	-4.6110535	-6.539322	1.5519257
1493568524374	-4.968094	-6.443985	1.1749725
1493568524374	-2.0879517	-8.246841	2.3894348
1493568524374	-0.24594116	-9.359482	2.0048523
1493568524375	0.36073303	-9.812759	2.3437653
1493568524375	0.08909607	-10.010513	1.2857971
1493568524375	-0.269516	-10.134369	-0.060165405
1493568524375	-0.6971283	-9.857422	-1.2178497
1493568524375	-0.61026	-9.9327545	-2.2098846
1493568524375	-0.951004	-11.187225	-1.4136047
1493568524375	-1.9935913	-12.453506	-1.2522278
1493568524375	-0.24131775	-12.176712	-2.1954346
1493568524375	2.2287903	-11.785904	-0.66275024
1493568524375	-0.13546753	-11.76561	-1.5512848
1493568524375	-1.7156067	-12.713562	-3.3018646
1493568524375	0.490448	-14.344711	-2.3600006
1493568524375	0.25720215	-15.3450165	-2.734558
1493568524375	-1.3533936	-14.256714	-3.0391083
1493568524375	-3.3977203	-11.802048	-0.4429779
1493568524375	-4.968704	-10.567261	2.9231873
1493568524375	-5.6609497	-11.305267	7.277649
1493568524375	-8.278427	-11.79335	4.1116333
1493568524375	-6.788269	-13.186996	0.05731201
1493568524375	-4.9021454	-13.386581	-1.5222931
1493568524375	-0.017944336	-12.019852	1.2766113
1493568524375	5.6327057	-10.916016	5.6873016
1493568524375	0.903656	-10.441071	1.1824799
1493568524375	-1.7488098	-8.260101	1.6695709
1493568524375	-2.4592896	-7.2493134	3.0081024
1493568524375	-3.3721008	-5.68425	3.1789246
1493568524375	-3.1143188	-4.3240967	2.8116608
1493568524375	-2.4658966	-3.1998901	2.8257446
1493568524375	-2.221939	-2.2349854	3.0351563
1493568524375	-2.2758179	-1.4990997	3.0981903
1493568524376	-2.080368	-1.2228241	2.6381989
1493568524376	-1.743103	-2.9113007	0.75157166
1493568524376	-2.213089	-7.920059	-3.9689941
1493568524376	-4.275772	-15.302628	-13.096588
1493568524376	-3.4533997	-19.474823	-19.722397
1493568524376	-0.7266846	-16.138702	-12.9752655
1493568524376	-0.316864	-7.228607	-2.583725
1493568524376	-1.7913513	1.3827667	1.8308258
1493568524376	-6.0643005	-2.1601563	5.3177795
1493568524376	-6.8572845	-13.681747	6.3181
1493568524376	-5.627365	-19.14116	-3.4693146
1493568524376	-1.9667511	-15.571701	-3.3697968
1493568524376	-1.1838074	-6.2982025	9.822723
1493568524376	-4.099304	-2.5404663	10.040466
1493568524376	-3.9754486	-5.422333	4.434784
1493568524376	-1.6599731	-9.227997	1.5578156
1493568524376	2.7069092	-12.23439	3.1582794
1493568524376	4.403839	-15.6510315	3.047409
1493568524376	1.3560181	-14.206146	-1.865097
1493568524376	-1.680191	-9.639923	0.21775818
1493568524376	-4.9574127	-6.465149	0.8639221
1493568524376	-7.2704315	-5.9032135	-0.13291931
1493568524376	-3.2859497	-7.6692505	1.7393188
1493568524376	0.117996216	-9.574341	1.4703827
1493568524376	0.7509613	-9.748032	1.3275299
1493568524376	0.8838806	-9.1571045	1.2808685
1493568524376	0.5523834	-9.430603	0.59169006
1493568524376	0.35647583	-10.041687	0.4650116
1493568524376	-0.1182251	-9.503906	-0.6196289
1493568524376	-0.81689453	-9.363403	-1.3094635
1493568524376	-1.1415253	-11.362656	-0.43206787
1493568524376	-1.9868317	-12.398163	-1.43219
1493568524376	-1.5184784	-12.209564	-2.335434
1493568524376	1.0579681	-12.243637	-1.0570374
1493568524376	0.4920044	-12.30304	-1.1938019
1493568524376	-1.157486	-13.211655	-2.9115295
1493568524376	1.766159	-15.251312	-1.6745911
1493568524376	1.4063568	-15.095917	-2.2286377
1493568524376	-2.0657196	-13.740051	-4.6713867
1493568524376	-4.041916	-12.588669	-3.5061798
1493568524376	-4.18425	-11.285187	1.192276
1493568524377	-4.520584	-11.651398	7.8448486
1493568524377	-6.3200684	-11.918625	6.9397125
1493568524377	-7.4613647	-13.49231	0.6573334
1493568524377	-6.101074	-14.497406	-2.0555267
1493568524377	-1.980957	-11.616547	-0.1302948
1493568524377	1.6602173	-9.942154	5.938385
1493568524377	0.46821594	-11.225067	0.3019104
1493568524377	-0.502182	-8.267563	1.0963898
1493568524377	-1.7634888	-6.3784027	3.0619202
1493568524377	-3.057846	-4.949173	3.2602997
1493568524377	-3.1336365	-3.5883179	3.240326
1493568524377	-2.7326965	-2.8261108	3.3174438
1493568524377	-2.0035706	-2.1551514	3.2993774
1493568524377	-1.8818359	-1.6650696	2.8977814
1493568524377	-2.0775146	-1.2910767	2.3893585
1493568524377	-1.9710388	-3.083847	1.2576599
1493568524377	-2.6014862	-8.407349	-3.32016
1493568524377	-4.874069	-15.833054	-12.772308
1493568524377	-5.175171	-19.474823	-19.722397
1493568524377	-2.3134918	-16.514374	-13.587524
1493568524377	-1.0555267	-8.319702	-2.8622437
1493568524377	-1.4327698	-0.98973083	0.5113678
1493568524377	-5.4049835	-4.441696	0.12612915
1493568524377	-8.250916	-13.981705	1.8041534
1493568524377	-5.806778	-16.279938	1.294632
1493568524377	-1.3425293	-12.366409	-0.8996277
1493568524377	-1.3703918	-5.7292175	5.0130615
1493568524377	-3.5267944	-3.726944	8.770096
1493568524377	-2.323471	-8.603058	6.258835
1493568524377	0.86476135	-12.512878	3.5569763
1493568524377	3.990448	-13.21727	3.562378
1493568524377	3.428482	-14.329178	1.7011719
1493568524377	0.7246399	-11.989273	-1.4346008
1493568524377	-1.9900665	-8.960266	1.6440277
1493568524377	-6.0066833	-7.31839	1.5502167
1493568524377	-7.879532	-6.774719	-0.7839966
1493568524377	-4.9961395	-7.6668396	-0.26585388
1493568524377	-1.3561554	-8.590591	0.38883972
1493568524377	0.27000427	-8.662125	1.2012787
1493568524377	0.46063232	-8.946793	1.9112854
1493568524377	-0.22377014	-9.76564	2.0317383
1493568524377	-0.47595215	-10.033371	1.3100128
1493568524377	-0.33747864	-10.006439	-0.19621277
1493568524377	0.008666992	-10.348068	-1.6984863
1493568524378	-0.7740936	-12.116638	-2.32901
1493568524378	-2.2673798	-12.872726	-2.6819305
1493568524378	-0.44966125	-12.72197	-3.6590424
1493568524378	1.2692719	-11.888092	-1.3892212
1493568524378	-1.4623108	-11.756256	-2.4612732
1493568524378	-1.320343	-13.477539	-3.9918518
1493568524378	1.4324951	-15.398407	-2.2479248
1493568524378	0.486557	-14.69812	-0.89430237
1493568524378	-2.4030151	-11.43042	-1.3145142
1493568524378	-4.2095795	-9.687759	1.020401
1493568524378	-5.356949	-11.026611	4.2867126
1493568524378	-6.2207336	-13.055878	5.3795166
1493568524378	-6.4662933	-13.644516	2.8253937
1493568524378	-4.36084	-14.010025	-0.7127533
1493568524378	-3.5847626	-11.881454	-2.225998
1493568524378	-0.13919067	-10.40213	1.9650116
1493568524378	3.7648315	-10.714844	2.8948975
1493568524378	0.116256714	-10.177795	1.0868835
1493568524378	-1.6955261	-7.7200165	2.0450287
1493568524378	-3.2709656	-6.0713043	2.7332916
1493568524378	-3.715866	-4.649109	2.7147675
1493568524378	-3.7331543	-3.6025543	3.4389496
1493568524378	-3.1768646	-2.929779	3.062729
1493568524378	-2.637497	-2.377884	3.09021
1493568524378	-2.7047882	-1.7752228	2.7424316
1493568524378	-2.6744537	-1.7867279	2.174469
1493568524378	-2.2767181	-3.7420197	0.80537415
1493568524378	-2.2649536	-9.094513	-3.157425
1493568524378	-4.4736786	-16.491394	-11.703995
1493568524378	-4.468857	-19.474823	-19.041443
1493568524378	-0.35049438	-15.903412	-12.929871
1493568524378	1.0168457	-5.6545563	-1.9611816
1493568524378	-1.1625214	1.440628	2.7435913
1493568524378	-6.342575	-4.703598	3.3859863
1493568524378	-8.444122	-16.028	2.877121
1493568524378	-6.1101227	-18.63237	-4.5738983
1493568524378	-2.0863037	-13.459351	-3.4140015
1493568524378	-1.4665833	-4.003769	9.234207
1493568524378	-4.4641724	-0.78697205	10.713638
1493568524378	-4.821808	-5.9983826	5.854599
1493568524378	-2.0478668	-11.409821	2.2516785
1493568524378	2.8845673	-14.124985	1.9346924
1493568524378	4.462784	-16.416382	2.2415924
1493568524379	1.8946075	-13.888199	-1.5272064
1493568524379	-0.37002563	-9.406723	-0.6724701
1493568524379	-3.197052	-8.400101	1.9663086
1493568524379	-6.139435	-7.4827423	-0.3545227
1493568524379	-6.204544	-7.4149323	-1.1161499
1493568524379	-2.1306305	-8.400406	0.46723938
1493568524379	0.0738678	-8.665894	1.0030212
1493568524379	0.10853577	-8.985489	1.5561829
1493568524379	-0.041793823	-9.62117	1.443161
1493568524379	-0.012908936	-9.742416	1.0805664
1493568524379	0.10406494	-9.733093	0.35336304
1493568524379	-0.13929749	-9.720917	-1.0211182
1493568524379	-0.21104431	-10.294601	-1.8156433
1493568524379	-0.6384735	-11.722824	-1.726532
1493568524379	-1.6181335	-12.1419525	-2.1117096
1493568524379	-1.1973724	-12.045944	-2.4584198
1493568524379	-0.083236694	-12.106766	-2.5323944
1493568524379	-0.7855377	-12.602142	-3.664215
1493568524379	-0.30361938	-13.649536	-4.578537
1493568524379	0.93118286	-15.368225	-3.0786438
1493568524379	-0.2566223	-14.617767	-2.6778717
1493568524379	-2.1441956	-11.790344	1.1082611
1493568524379	-4.571579	-11.231094	1.8137512
1493568524379	-4.751831	-12.790558	5.7394867
1493568524379	-7.006012	-13.286453	3.8544006
1493568524379	-7.9822083	-14.381821	2.0556335
1493568524379	-6.4602814	-14.636398	-1.5600739
1493568524379	0.75949097	-11.606277	0.2122345
1493568524379	5.1364136	-10.5186615	3.1553802
1493568524379	1.3798218	-10.692413	1.8197174
1493568524379	-0.6605835	-8.080246	2.2311401
1493568524379	-1.9159546	-6.787689	2.418686
1493568524379	-2.288498	-5.5036926	2.8914337
1493568524379	-2.969986	-3.9719543	3.8033142
1493568524379	-2.617569	-2.6914978	3.966751
1493568524379	-2.172348	-1.9142303	3.6082458
1493568524379	-1.9094086	-1.0490723	2.871872
1493568524379	-2.0722656	-1.0094147	1.907547
1493568524379	-2.3564606	-3.1060638	0.1378479
1493568524379	-2.983429	-8.475388	-5.1268005
1493568524379	-5.0583496	-15.753769	-14.007721
1493568524379	-6.1674194	-19.474823	-18.475677
1493568524380	-3.4185333	-16.459625	-12.006058
1493568524380	-0.83981323	-7.1158752	-2.8220978
1493568524380	-0.7889862	-0.22511292	0.49552917
1493568524380	-3.918335	-3.7134247	-0.36001587
1493568524380	-6.82164	-13.779785	2.5219421
1493568524380	-5.849945	-17.227295	-0.22917175
1493568524380	-4.504181	-13.606903	-3.5069733
1493568524380	-3.379303	-6.335541	5.744919
1493568524380	-4.692871	-2.242691	11.429489
1493568524380	-3.0647583	-6.9066315	6.013626
1493568524380	0.74472046	-12.065933	3.1005554
1493568524380	4.09848	-14.051315	1.7574615
1493568524380	3.6298523	-15.646698	1.8030701
1493568524380	0.89030457	-13.917755	-0.44869995
1493568524380	-1.0621643	-9.981125	-0.17575073
1493568524380	-3.470398	-7.890167	1.7454376
1493568524380	-6.2394104	-6.3440857	0.4660797
1493568524380	-5.5103455	-6.864044	-0.11885071
1493568524380	-1.5154572	-8.36055	0.7763977
1493568524380	0.6539154	-9.164505	0.54045105
1493568524380	0.75349426	-9.467712	0.76963806
1493568524380	0.3237152	-9.982529	0.7128296
1493568524380	0.27178955	-10.530731	-0.08529663
1493568524380	0.9194336	-10.578278	0.10903931
1493568524380	0.48158264	-10.533051	-0.95503235
1493568524380	-0.44873047	-11.028336	-2.6742249
1493568524380	-1.184082	-11.418182	-2.713791
1493568524380	-1.3361969	-11.646362	-2.671173
1493568524380	0.21942139	-11.851105	-2.5237274
1493568524380	0.5346527	-12.140259	-1.652298
1493568524381	-1.3360901	-13.209488	-3.4299927
1493568524381	0.07650757	-14.961243	-2.7667236
1493568524381	-0.34169006	-15.573486	-2.739212
1493568524381	-1.6182556	-12.983948	-1.2972717
1493568524381	-3.3300323	-11.576828	-0.11550903
1493568524381	-4.59787	-12.26384	5.2773743
1493568524381	-6.4419403	-13.28923	5.624405
1493568524381	-8.229126	-13.876694	3.2312927
1493568524381	-6.9391785	-14.922531	1.0830383
1493568524381	-3.3714294	-12.928192	-2.722351
1493568524381	3.3666687	-10.499695	5.4387817
1493568524381	1.7680664	-12.121948	-0.23524475
1493568524381	-1.4686584	-8.213272	1.222229
1493568524381	-1.3361511	-7.268036	2.856308
1493568524381	-2.2011108	-5.6239777	3.3219757
1493568524381	-3.0471497	-3.9960175	3.202057
1493568524381	-3.3394012	-2.761963	3.1521301
1493568524381	-2.4122314	-2.4335785	3.338852
1493568524381	-2.0560913	-1.8756561	3.2805176
1493568524381	-2.4738464	-1.1789398	2.809372
1493568524381	-2.3814087	-1.4156799	2.0283813
1493568524381	-1.9820251	-4.373993	-0.079193115
1493568524381	-2.3635254	-10.853485	-5.7223663
1493568524381	-4.797806	-18.713501	-14.751617
1493568524381	-4.916458	-19.474823	-17.777573
1493568524381	-0.68089294	-16.091736	-9.027115
1493568524381	0.5410156	-4.66243	-1.3136597
1493568524381	-0.31828308	2.0056152	1.1554718
1493568524381	-3.6933289	-2.2055206	0.69898987
1493568524381	-6.881897	-14.017044	4.0471954
1493568524381	-5.9065704	-19.421677	-1.3617096
1493568524381	-4.619766	-16.28189	-4.3700867
1493568524381	-3.9023438	-6.7463837	6.6331024
1493568524381	-5.5977936	-0.6742554	10.912735
1493568524381	-3.1083527	-4.080765	7.0660553
1493568524381	0.019699097	-9.704117	3.368744
1493568524381	2.6590576	-13.452972	2.0736084
1493568524381	3.68956	-16.958206	2.2614288
1493568524381	2.3594666	-16.181656	-1.5552216
1493568524381	1.4682465	-10.655243	-1.2062378
1493568524381	-1.0040131	-8.042664	2.1597748
1493568524381	-5.050873	-6.5126495	0.45207214
1493568524381	-6.626602	-6.5991364	-1.2015839
1493568524382	-3.4106293	-8.6063385	-0.0154418945
1493568524382	-0.3801422	-9.244095	0.12416077
1493568524382	0.75094604	-8.722122	0.67788696
1493568524382	0.20071411	-8.654205	0.96354675
1493568524382	-0.34091187	-9.33429	1.0673676
1493568524382	0.23521423	-9.692596	0.9581909
1493568524382	-0.15234375	-9.97052	-0.5358124
1493568524382	-1.7210236	-10.822174	-1.5449829
1493568524382	-3.021576	-11.216736	-1.5478668
1493568524382	-1.6646118	-11.835999	-1.5989075
1493568524382	0.36808777	-12.719818	-1.008667
1493568524382	0.18774414	-13.071365	-1.6875
1493568524382	-0.6639252	-13.687698	-3.818985
1493568524382	1.9253693	-14.944992	-3.7579193
1493568524382	2.144333	-14.408447	-3.7796936
1493568524382	-0.4298706	-13.375702	-4.27092
1493568524382	-2.7574768	-12.0416565	-1.189148
1493568524382	-4.526596	-11.061279	4.2230988
1493568524382	-4.9366913	-12.486923	7.503952
1493568524382	-7.642746	-13.061981	2.8891754
1493568524382	-7.0914	-14.066605	-0.004272461
1493568524382	-6.8668365	-13.014938	-0.98698425
1493568524382	-3.0528412	-11.400604	0.11758423
1493568524382	4.1689453	-10.177841	3.4820404
1493568524382	1.3771667	-11.459213	-0.51872253
1493568524382	-0.1933136	-8.532272	0.7351532
1493568524382	-2.1152344	-7.017929	2.0286865
1493568524382	-3.2804108	-5.295807	2.769806
1493568524382	-3.7356415	-3.3227081	3.7261963
1493568524382	-3.481659	-2.3602295	3.5541382
1493568524382	-2.7054138	-1.8513336	3.6912842
1493568524382	-2.0702667	-1.4328308	2.9472198
1493568524382	-1.9322205	-1.2368469	2.5912933
1493568524382	-1.4227753	-2.8078308	1.30719
1493568524382	-1.2154999	-7.388321	-2.95047
1493568524382	-2.3545227	-15.756241	-13.946442
1493568524382	-5.7233887	-19.474823	-19.32425
1493568524382	-5.240799	-17.71051	-14.909592
1493568524382	-2.1458893	-9.933792	-4.489609
1493568524382	-2.081421	-1.9377747	1.283493
1493568524382	-4.3672333	-0.7137909	1.6313171
1493568524382	-8.414078	-9.906952	1.8138428
1493568524383	-6.55278	-15.922943	1.1444397
1493568524383	-3.7054138	-14.213669	-2.7133942
1493568524383	-1.8498383	-7.6885376	0.6391754
1493568524383	-1.5161896	-2.8094025	11.733643
1493568524383	-2.636673	-7.612686	5.1690216
1493568524383	-0.15551758	-13.143677	2.1832123
1493568524383	2.5061798	-14.537476	0.5693054
1493568524383	3.4316711	-14.159164	0.9747772
1493568524383	0.9906616	-12.590271	1.3874817
1493568524383	-1.8492432	-10.041931	0.97299194
1493568524383	-3.8848572	-8.361282	0.44792175
1493568524383	-5.8155518	-6.963272	-0.7928467
1493568524383	-4.983841	-6.918869	-0.475708
1493568524383	-1.2029266	-8.166809	0.79649353
1493568524383	1.054184	-9.022293	0.29878235
1493568524383	0.95047	-9.332016	-0.16671753
1493568524383	0.5897522	-9.279083	1.190918
1493568524383	0.5958252	-9.220886	1.9904633
1493568524383	0.5694275	-9.685577	1.7217407
1493568524383	0.018630981	-10.374695	-0.16844177
1493568524383	-0.7060547	-10.936981	-2.1858673
1493568524383	-0.9895477	-11.726898	-2.2643127
1493568524383	-2.0788422	-12.248169	-1.5919952
1493568524383	-2.1617584	-12.173523	-1.8476715
1493568524383	-0.26249695	-11.986023	-1.1609039
1493568524383	-0.41726685	-11.940262	-1.3668823
1493568524383	-1.0188599	-13.164886	-2.7864075
1493568524383	0.9438629	-14.888916	-2.3410645
1493568524383	1.2778168	-14.562195	-2.8362274
1493568524383	-0.36921692	-12.67067	-2.5311432
1493568524383	-2.1032562	-11.523956	-1.0930023
1493568524383	-3.0705872	-11.613998	3.4792328
1493568524383	-4.3220673	-12.768448	5.827545
1493568524383	-5.4461823	-12.800003	3.1565552
1493568524383	-5.8740234	-13.772522	1.2432251
1493568524383	-3.9042664	-13.256058	-2.5226135
1493568524383	-0.013305664	-11.243378	0.082107544
1493568524383	6.4821167	-11.38681	2.961853
1493568524383	1.3385315	-9.919266	0.9058533
1493568524383	-1.0933838	-7.11615	1.8005371
1493568524383	-1.8840332	-5.994385	2.2834473
1493568524383	-3.1040802	-4.9732513	2.3213043
1493568524383	-3.6250305	-3.892807	2.7627106
1493568524384	-3.1974487	-3.4262238	3.8124542
1493568524384	-2.7602844	-2.9184723	3.7106323
1493568524384	-3.0982056	-1.9893494	3.153885
1493568524384	-3.0674744	-1.3991852	2.5219116
1493568524384	-2.9453583	-2.83844	1.0939941
1493568524384	-2.8359528	-7.9128723	-3.216919
1493568524384	-3.6331482	-16.107178	-12.248962
1493568524384	-4.1292267	-19.474823	-19.347519
1493568524384	-1.469284	-18.088135	-15.26535
1493568524384	-1.2451935	-8.825668	-4.1124725
1493568524384	-0.91078186	-0.041503906	2.4221954
1493568524384	-3.3322754	-2.0157623	1.5509338
1493568524384	-5.1505737	-13.210587	3.4240875
1493568524384	-4.441925	-18.731125	0.032928467
1493568524384	-4.55925	-15.176193	-6.3185577
1493568524384	-3.2321625	-7.363037	4.041748
1493568524384	-4.1956024	-0.85665894	12.852951
1493568524384	-4.371414	-4.720978	6.9238434
1493568524384	-1.9312439	-10.396317	3.315857
1493568524384	2.0210419	-13.332703	1.3658752
1493568524384	4.337265	-15.489105	3.141693
1493568524384	2.4623566	-15.141266	-0.112213135
1493568524384	-0.4659729	-10.753418	-0.76831055
1493568524384	-2.633194	-8.412491	2.234848
1493568524384	-5.582962	-7.1824646	0.774765
1493568524384	-6.0246124	-7.2204437	-0.2115326
1493568524384	-2.815277	-8.164291	0.88967896
1493568524384	-0.5251007	-8.898193	1.0408173
1493568524384	-0.10032654	-9.186722	1.2215271
1493568524384	0.21884155	-9.36142	1.7496948
1493568524384	0.71698	-9.701614	1.3199463
1493568524384	0.77282715	-9.784943	0.36512756
1493568524384	0.3199463	-9.521683	-0.52705383
1493568524384	-0.6674957	-9.880112	-1.8544312
1493568524384	-1.204956	-11.099457	-2.1520538
1493568524384	-1.2431335	-12.00853	-2.20224
1493568524384	-0.79182434	-12.0728	-2.4295654
1493568524384	-0.028060913	-12.07019	-2.3654785
1493568524384	-1.1385651	-12.475174	-3.1731567
1493568524384	-1.3236542	-13.584366	-4.811386
1493568524384	0.25837708	-15.301529	-4.196762
1493568524384	0.15940857	-15.693222	-3.841568
1493568524385	-0.38552856	-13.106171	-0.5129852
1493568524385	-2.4756927	-12.246902	1.6213074
1493568524385	-4.105301	-13.319107	5.0820923
1493568524385	-6.501816	-13.523972	6.6490936
1493568524385	-7.2379456	-14.2426605	3.010498
1493568524385	-5.331711	-14.667358	-1.2082977
1493568524385	-0.55874634	-12.319733	-1.0759735
1493568524385	4.8567047	-10.875473	4.770172
1493568524385	0.7996826	-9.956421	2.6013489
1493568524385	-1.1796417	-7.309067	1.4895172
1493568524385	-2.0487366	-6.0058746	2.2203064
1493568524385	-2.7303314	-4.9000397	2.7641754
1493568524385	-2.7380219	-3.4940948	3.1041565
1493568524385	-2.7863617	-3.075714	2.159668
1493568524385	-2.6369934	-2.4758759	3.584076
1493568524385	-2.3072205	-2.2505188	3.4656067
1493568524385	-2.3609009	-1.5103912	2.8989258
1493568524385	-2.2224731	-2.3643951	1.8371582
1493568524385	-1.6979065	-6.6319733	-1.2138824
1493568524385	-4.2655945	-14.418594	-8.457031
1493568524385	-6.0110474	-19.474823	-19.722397
1493568524385	-0.37127686	-18.8609	-18.062592
1493568524385	-0.70477295	-12.385529	-4.015381
1493568524385	-0.37005615	-0.7774811	1.0009613
1493568524385	-2.6288605	3.807495	0.78829956
1493568524385	-7.2360687	-5.7370605	2.90477
1493568524385	-7.5041504	-17.313583	5.5061035
1493568524385	-2.6475983	-18.927292	-5.290207
1493568524385	-1.8450928	-13.643951	-5.6867676
1493568524385	-3.3641205	-1.5514374	9.808075
1493568524385	-3.9682312	0.49118042	6.3111267
1493568524385	-2.9657745	-4.94252	3.667221
1493568524385	0.2881775	-10.963577	3.6600647
1493568524385	2.4692688	-13.777893	3.642456
1493568524385	2.7565765	-16.129639	3.750122
1493568524386	1.3804474	-14.274841	-0.76272583
1493568524386	0.16700745	-9.406403	-0.19364929
1493568524386	-2.7654724	-7.6012726	3.2868652
1493568524386	-6.181366	-7.661438	-0.77041626
1493568524386	-5.564453	-7.864395	-0.5993347
1493568524386	-1.0352783	-8.708679	0.7167969
1493568524386	0.78523254	-9.171707	0.37580872
1493568524386	0.86839294	-9.397751	0.644104
1493568524386	0.42089844	-9.772751	0.96751404
1493568524386	-0.021957397	-10.089676	0.44044495
1493568524386	-0.25802612	-9.981659	-0.6348572
1493568524386	-0.33102417	-9.770386	-1.8243103
1493568524386	-0.57598877	-10.228027	-2.0959625
1493568524386	-1.3061218	-11.154068	-1.4572449
1493568524386	-0.9769287	-11.6688385	-0.97480774
1493568524386	-0.182724	-11.5849	-0.6431732
1493568524386	-1.890091	-11.688461	-2.2542725
1493568524386	-2.3024445	-12.466095	-4.5419006
1493568524386	0.014190674	-14.18956	-4.453888
1493568524386	0.43891907	-15.488281	-3.6033478
1493568524386	-0.21972656	-14.028534	-2.1426544
1493568524386	-1.6717682	-12.302353	-0.39216614
1493568524395	-3.0332031	-12.71492	4.5721893
1493568524395	-5.660187	-13.050934	7.140152
1493568524395	-8.407013	-13.753204	3.7091064
1493568524396	-7.357971	-14.997391	-0.014968872
1493568524396	-3.1871643	-13.357941	-2.5809631
1493568524396	1.36203	-10.670456	1.5230713
1493568524396	2.438507	-11.10965	1.779129
1493568524396	-0.03640747	-8.759018	2.0288696
1493568524396	-1.1709137	-7.4571075	2.0102386
1493568524396	-2.0105286	-6.7547913	3.3397675
1493568524396	-2.7653809	-4.999344	2.9785004
1493568524396	-2.631363	-3.6993408	3.436081
1493568524396	-2.1855469	-2.745224	3.886673
1493568524396	-2.4677582	-2.6360931	4.103653
1493568524396	-2.6762543	-1.4529266	3.2010498
1493568524396	-2.5786896	-0.74368286	2.87294
1493568524396	-2.9193268	-2.8428497	1.0997772
1493568524396	-3.0627136	-8.4956665	-4.3910217
1493568524396	-5.806366	-19.404556	-19.528015
1493568524396	-5.7037964	-19.474823	-19.032288
1493568524396	-1.959137	-18.712372	-8.381546
1493568524396	-1.7437134	-5.9094086	-1.4191437
1493568524396	-1.9680176	1.1590424	0.48851013
1493568524396	-8.114395	-5.5928497	-0.6568451
1493568524396	-8.774857	-16.64888	0.4941864
1493568524396	-3.2306519	-15.623383	0.779068
1493568524396	-0.26223755	-8.733459	0.85676575
1493568524396	-2.5053864	-2.0233154	9.803085
1493568524396	-4.4669647	-5.15152	5.757736
1493568524396	-2.4448547	-11.345505	5.691345
1493568524396	1.4287567	-13.72403	2.3924866
1493568524396	4.5702667	-13.63327	1.1228943
1493568524396	5.0727234	-13.752197	0.38893127
1493568524396	0.7050934	-11.445068	-0.12591553
1493568524396	-1.3977356	-8.872818	2.2414703
1493568524396	-4.9342804	-7.4391785	0.9249878
1493568524396	-7.073349	-6.6317596	-0.9184265
1493568524396	-4.0386047	-7.4598846	-0.1816864
1493568524396	-0.93626404	-8.3594055	1.0121155
1493568524396	-0.6055603	-8.683868	1.1714478
1493568524396	-0.69177246	-8.909332	1.6556396
1493568524397	-0.46240234	-9.589371	1.7172089
1493568524397	-0.017623901	-10.215317	0.9725952
1493568524397	0.16822815	-10.498154	-0.64842224
1493568524397	0.07737732	-10.52095	-1.9373322
1493568524397	-0.7297516	-11.085739	-2.2180786
1493568524397	-1.8101501	-11.625046	-1.8164368
1493568524397	-1.2617493	-11.764694	-1.462677
1493568524397	-0.33546448	-12.1706085	-1.2306671
1493568524397	-1.4098511	-12.964447	-2.3348694
1493568524397	-1.4788818	-14.3667755	-3.4736938
1493568524397	0.509079	-15.682907	-3.0031586
1493568524397	0.7637329	-14.93663	-3.109436
1493568524397	-1.8892975	-12.413116	-2.899643
1493568524397	-3.603775	-10.721558	-0.41200256
1493568524397	-3.8975677	-11.452408	4.471176
1493568524397	-5.273285	-12.267654	5.639969
1493568524397	-6.189789	-13.844131	2.5128632
1493568524397	-6.570282	-14.862793	-0.8675842
1493568524397	-4.073181	-12.801712	-1.1679077
1493568524397	-0.43469238	-10.496094	2.241745
1493568524397	1.8560638	-11.418594	0.5746155
1493568524397	-0.14100647	-8.685074	0.23468018
1493568524397	-1.7711487	-6.560608	2.0186615
1493568524397	-2.5578156	-5.231415	2.4543915
1493568524397	-2.846054	-3.8757172	2.317505
1493568524397	-2.704071	-2.84021	2.7976837
1493568524397	-2.422287	-2.7177582	3.340622
1493568524397	-2.1032867	-2.3559723	3.458252
1493568524397	-2.2689972	-1.4787598	3.302246
1493568524397	-2.1130524	-1.5117798	2.5537567
1493568524397	-1.959671	-4.398224	0.36221313
1493568524397	-2.5231934	-11.211014	-6.1462555
1493568524397	-6.943817	-19.474823	-19.722397
1493568524397	-5.920273	-19.432907	-19.503296
1493568524397	-1.7622528	-16.996613	-7.5200195
1493568524397	-0.37242126	-4.303299	-1.552414
1493568524397	-1.9642944	1.5590057	0.16461182
1493568524397	-7.7839813	-8.902313	0.6345978
1493568524397	-5.802353	-16.55574	2.443695
1493568524397	-3.4447327	-15.5868225	-1.8178253
1493568524397	-1.9328766	-9.048157	-0.79533386
1493568524398	-2.6228027	-1.6366425	12.239227
1493568524398	-3.3044891	-4.29039	7.0548096
1493568524398	-2.3579712	-10.548416	4.264038
1493568524398	1.4905701	-13.104691	1.8837433
1493568524398	4.058258	-13.734207	2.767105
1493568524398	2.459671	-14.250534	1.3227692
1493568524398	-1.1457214	-10.575104	1.0215912
1493568524398	-2.9509583	-8.534607	2.892517
1493568524398	-5.803604	-7.7609863	1.021698
1493568524398	-7.017151	-6.7334595	-0.3497162
1493568524398	-3.25383	-7.6926575	0.95391846
1493568524398	0.15153503	-8.630615	1.3770447
1493568524398	0.81269836	-9.17984	1.309555
1493568524398	1.0489502	-9.410141	1.8338318
1493568524398	0.7625427	-9.727463	1.8314972
1493568524398	-0.16081238	-10.119415	0.7454834
1493568524398	-1.0335388	-10.39418	-0.8490753
1493568524398	-1.494278	-10.696213	-2.6122437
1493568524398	-1.3875275	-11.222534	-3.2509308
1493568524398	-1.0463257	-11.847046	-2.4647064
1493568524398	-0.065200806	-12.457245	-1.7854462
1493568524398	1.1433258	-12.446487	-1.1200562
1493568524398	-0.07022095	-12.162384	-2.100174
1493568524398	-0.8679352	-12.818436	-4.0776367
1493568524398	0.85472107	-14.581985	-3.5592804
1493568524398	0.56881714	-15.760757	-3.0775452
1493568524398	-1.7153473	-13.789444	-2.5072632
1493568524398	-3.2098694	-11.341782	0.35202026
1493568524398	-3.9398499	-11.727112	5.164627
1493568524398	-5.625595	-12.906418	5.7967224
1493568524398	-7.367798	-14.177765	3.0109863
1493568524398	-7.741211	-15.237961	0.32192993
1493568524398	-3.3890076	-13.293472	-1.24646
1493568524398	1.8802338	-10.90213	3.1813354
1493568524398	2.3386536	-10.816803	2.969635
1493568524398	-0.13287354	-8.593048	2.4408417
1493568524398	-1.3386078	-6.929764	2.8802032
1493568524398	-1.9461212	-5.4298553	3.1903534
1493568524398	-2.5021973	-3.960434	3.2121277
1493568524398	-2.7897797	-3.4142914	2.8800812
1493568524398	-1.6361237	-2.6087952	3.3277435
1493568524399	-1.8071594	-1.8022766	3.3173218
1493568524399	-2.0614624	-0.748703	2.804596
1493568524399	-1.9052887	-1.0099792	2.04747
1493568524399	-1.8807678	-4.282196	-0.67477417
1493568524399	-3.7252655	-11.070923	-6.8063965
1493568524399	-6.852127	-19.048172	-19.049881
1493568524399	-1.0967102	-19.474823	-19.722397
1493568524399	0.1251831	-16.14473	-5.363388
1493568524399	-0.23007202	-2.5989227	0.56378174
1493568524399	-3.4561768	3.0725403	-0.4918213
1493568524399	-9.561157	-11.325516	-0.6440582
1493568524399	-6.0838776	-19.182907	3.3980408
1493568524399	-2.6731415	-13.131393	-1.1680145
1493568524399	-1.5893707	-6.4207153	2.4362335
1493568524399	-3.9055023	-1.049881	11.655441
1493568524399	-3.5047913	-6.3130646	7.7697144
1493568524399	-0.094818115	-13.226791	4.4036255
1493568524399	2.5441284	-14.058197	1.524292
1493568524399	4.745407	-13.6462555	1.3048553
1493568524399	1.4434662	-14.209259	-0.8607178
1493568524399	-1.4746857	-9.936981	1.4800262
1493568524399	-3.0502472	-7.870285	3.07016
1493568524399	-5.326309	-7.037094	0.5331421
1493568524399	-7.2526093	-6.5488434	-0.41822815
1493568524399	-3.2689362	-8.053955	0.5157471
1493568524399	0.08557129	-8.959305	0.59747314
1493568524399	0.60354614	-9.292786	0.6513977
1493568524399	0.15475464	-9.03656	1.7906494
1493568524399	-0.3355713	-9.429367	1.8567047
1493568524399	-0.65567017	-10.219376	0.5856018
1493568524399	-0.4346161	-10.6349945	-1.1580505
1493568524399	-0.2644348	-11.119354	-2.697342
1493568524399	-0.6777191	-12.091293	-2.5037842
1493568524399	-1.3370209	-12.602692	-1.9412231
1493568524399	-0.3747406	-12.473923	-1.9595795
1493568524399	0.83309937	-12.302383	-2.1772614
1493568524399	0.14178467	-12.567337	-3.1483612
1493568524399	0.19430542	-13.603912	-3.4459686
1493568524399	1.5736389	-14.701294	-2.6199493
1493568524399	0.13676453	-14.153137	-2.7448425
1493568524399	-2.7747498	-12.055496	-1.0922852
1493568524399	-4.212509	-11.012421	1.6386566
1493568524400	-4.891037	-12.144562	4.6040344
1493568524400	-6.483658	-13.191727	5.390457
1493568524400	-7.5999603	-13.99292	3.388443
1493568524400	-7.047516	-14.360901	0.2836914
1493568524400	-3.1388855	-11.920776	-0.5666199
1493568524400	2.7783508	-10.057739	3.2623901
1493568524400	2.4635468	-10.885605	1.6375275
1493568524400	-0.57192993	-8.897873	0.99342346
1493568524400	-1.6852722	-6.982666	2.3341522
1493568524400	-2.3508606	-5.7551575	2.8741455
1493568524400	-3.1601257	-4.540985	3.2407074
1493568524400	-3.3810425	-3.5149689	3.3349152
1493568524400	-2.5969696	-2.680008	3.3746033
1493568524400	-1.9595642	-2.0639038	3.1477966
1493568524400	-2.033249	-1.199295	2.6576538
1493568524400	-1.7518158	-1.277008	1.7541199
1493568524400	-1.3010712	-4.4314423	-0.735199
1493568524400	-3.1073303	-11.474686	-7.3666077
1493568524400	-6.5749054	-18.702667	-18.469284
1493568524400	-1.867157	-19.474823	-19.217422
1493568524400	-0.15234375	-15.082993	-6.3306427
1493568524400	-0.1826477	-4.6928406	-0.8589325
1493568524400	-2.0389557	1.8913269	0.026489258
1493568524400	-8.697159	-8.573868	0.8204498
1493568524400	-6.7545166	-18.496033	5.040146
1493568524400	-2.8165436	-17.406036	-3.4586334
1493568524400	-1.8526917	-10.258316	-3.04216
1493568524400	-3.9320679	-0.25357056	11.802383
1493568524400	-5.075241	-2.5115814	8.374115
1493568524400	-3.012558	-9.194183	5.590439
1493568524400	0.6570587	-12.612305	2.370224
1493568524400	3.568161	-13.737198	3.2206573
1493568524400	4.289566	-15.023087	5.3414
1493568524400	1.0948792	-11.609756	-4.3938446
1493568524400	-2.1300354	-8.838852	3.3170776
1493568524400	-5.089264	-7.9079742	1.709259
1493568524400	-7.3588257	-7.037491	-1.006546
1493568524400	-4.008972	-8.044739	0.37097168
1493568524400	-0.5641937	-8.678833	0.92559814
1493568524400	-0.18370056	-9.189178	0.9066162
1493568524400	0.40382385	-9.687393	1.5537415
1493568524401	0.88861084	-9.94249	1.7388306
1493568524401	0.10507202	-9.422256	0.68359375
1493568524401	-0.10569763	-9.221924	0.06434631
1493568524401	-0.42294312	-9.653473	-0.36540222
1493568524401	-0.9200134	-10.60054	-1.3156128
1493568524401	-1.2979279	-11.33931	-1.6768951
1493568524401	-0.9829407	-11.467911	-1.5729065
1493568524401	0.24967957	-11.707397	-0.7051697
1493568524401	-0.17869568	-11.926178	-0.86424255
1493568524401	-1.7839813	-12.649475	-3.0237122
1493568524401	-0.52719116	-14.311951	-3.2901154
1493568524401	0.8351898	-15.584091	-2.439392
1493568524401	-0.8414459	-14.8862	-2.833786
1493568524401	-3.6768188	-12.605377	-2.036789
1493568524401	-5.3002014	-11.172745	2.6189575
1493568524401	-5.569168	-11.647339	6.8447266
1493568524401	-6.6310577	-12.623123	5.022354
1493568524401	-6.460907	-13.54071	0.49072266
1493568524401	-5.3548126	-14.117386	-2.0165558
1493568524401	-1.8716888	-12.201614	-0.71235657
1493568524401	3.47406	-10.97197	3.0684204
1493568524401	2.555725	-10.59697	2.7680054
1493568524401	-0.007598877	-8.883942	1.6501312
1493568524401	-1.4142761	-6.9360657	2.7733307
1493568524401	-2.6204681	-5.165161	3.0512848
1493568524401	-3.1721344	-3.685852	3.434494
1493568524401	-2.7695465	-2.7835999	3.2002563
1493568524401	-2.2995758	-2.3574677	3.205429
1493568524401	-1.9130859	-1.7009583	3.0912018
1493568524401	-1.9752045	-1.3496704	2.4922638
1493568524401	-1.8656158	-2.385254	1.4184265
1493568524401	-1.6137695	-6.239105	-1.9193115
1493568524401	-3.836975	-14.219482	-10.129547
1493568524401	-5.328644	-18.91101	-18.533157
1493568524401	-1.7626648	-19.474823	-14.307938
1493568524401	-1.212677	-10.356186	-4.4098206
1493568524401	-0.603714	0.43936157	1.1982269
1493568524401	-5.016159	3.2017822	-0.08041382
1493568524401	-10.797089	-10.016678	3.0684052
1493568524401	-5.9974365	-19.406021	1.7389526
1493568524402	-2.3311615	-19.474823	-7.010193
1493568524402	0.16903687	-9.11969	4.5675964
1493568524402	-2.0737915	1.2237396	14.771759
1493568524402	-5.3656464	-1.6568298	6.604706
1493568524402	-3.6769562	-9.235733	3.3346252
1493568524402	-0.62179565	-13.387405	1.1516266
1493568524402	1.9797821	-14.908768	2.2559052
1493568524402	3.0139465	-16.266678	1.0576324
1493568524402	1.0819397	-11.501129	-1.6025391
1493568524402	-0.76161194	-8.710037	2.4424286
1493568524402	-3.6027222	-7.680237	0.6329651
1493568524402	-5.2589874	-6.944153	-0.5897522
1493568524402	-2.830658	-7.900528	0.35186768
1493568524402	0.0773468	-8.57196	0.77197266
1493568524402	0.6380768	-8.806473	0.60772705
1493568524402	0.3271637	-9.075241	1.1497345
1493568524402	-0.2997284	-9.506424	1.4447021
1493568524402	-0.513031	-9.765823	1.2405853
1493568524402	-0.61372375	-9.804626	0.17500305
1493568524402	-1.067215	-10.169418	-1.6688232
1493568524402	-1.4169922	-10.894852	-2.147705
1493568524402	-1.7345123	-11.273254	-1.8096466
1493568524402	-0.8952179	-11.490021	-1.1195526
1493568524402	0.14051819	-11.937439	-0.86351013
1493568524402	-0.80104065	-12.603882	-2.7380981
1493568524402	-0.41403198	-13.986359	-3.7993927
1493568524402	1.6396179	-15.574661	-2.7044067
1493568524402	0.642746	-15.343887	-2.632904
1493568524402	-2.1006927	-13.412399	-2.6380157
1493568524402	-4.212509	-12.057999	-1.271759
1493568524402	-5.2109985	-12.360184	3.0263824
1493568524402	-6.610382	-12.782547	6.8950195
1493568524402	-7.258377	-13.6189575	5.2234344
1493568524402	-6.1687775	-14.6388855	0.03135681
1493568524402	-3.655716	-12.9086	-2.4159546
1493568524402	1.0266724	-10.682556	2.1079102
1493568524402	2.769638	-11.102142	2.7612305
1493568524402	0.8063202	-9.770935	0.6321564
1493568524402	-1.2792053	-6.9263306	2.046402
1493568524402	-2.7482758	-5.1654053	2.6615448
1493568524402	-3.4810028	-3.6188354	2.9052277
1493568524403	-3.751999	-2.6654816	2.6328735
1493568524403	-2.8418274	-2.5032196	2.776245
1493568524403	-1.997055	-2.2501068	3.0643005
1493568524403	-2.0752106	-1.4420013	3.026535
1493568524403	-2.1479645	-1.0852203	2.3016357
1493568524403	-1.526123	-3.1142426	0.96128845
1493568524403	-1.0729523	-8.984512	-4.0494995
1493568524403	-3.996292	-17.687943	-16.882538
1493568524403	-3.7890167	-19.474823	-19.722397
1493568524403	-2.264328	-17.611832	-12.714737
1493568524403	-2.2877808	-7.5741577	-4.1579285
1493568524403	-3.5332336	-0.7970581	2.5061646
1493568524403	-7.456833	-9.222153	0.4921875
1493568524403	-6.2486115	-16.97763	0.29647827
1493568524403	-4.637085	-9.343048	4.417801
1493568524403	-3.0436707	-5.341629	1.7055359
1493568524403	-1.6013947	-2.7786713	12.745728
1493568524403	-1.7473907	-10.749771	9.391968
1493568524403	-1.495575	-15.535599	2.005783
1493568524403	1.4916992	-14.862289	0.13409424
1493568524403	5.2386475	-12.4617	1.2490997
1493568524403	0.19067383	-10.568726	1.8928223
1493568524403	-2.2560577	-9.72464	0.6886749
1493568524403	-2.7037048	-8.804718	1.6892853
1493568524403	-5.3371735	-7.95842	-0.23643494
1493568524403	-3.8583832	-7.5077972	0.098342896
1493568524403	-0.90205383	-8.247025	1.0918884
1493568524403	0.61465454	-8.987564	-0.13630676
1493568524403	0.63534546	-9.342194	0.10345459
1493568524403	0.44615173	-8.83873	1.5550079
1493568524403	0.33651733	-9.419769	1.5398102
1493568524403	-0.25498962	-9.732712	1.0702972
1493568524403	-0.76651	-9.859497	-0.11911011
1493568524403	-0.8028412	-10.332733	-1.4172363
1493568524403	-0.54026794	-11.630417	-1.9567413
1493568524403	-0.17863464	-12.218552	-1.8128662
1493568524403	1.2384033	-12.486267	-1.6828613
1493568524403	1.9829102	-12.634659	-1.3404236
1493568524403	-0.60398865	-12.567764	-2.772995
1493568524403	-2.6499481	-12.952866	-4.665619
1493568524403	-1.2100372	-14.089188	-3.8871918
1493568524403	-1.6313629	-14.410812	-2.8140411
1493568524404	-3.4042358	-12.753998	-2.2827606
1493568524404	-5.0962524	-11.889435	-0.739975
1493568524404	-6.7444	-13.091736	5.0508423
1493568524404	-8.073456	-13.982773	8.585068
1493568524404	-8.654053	-14.10701	3.9716644
1493568524404	-6.939041	-13.936768	-0.90812683
1493568524404	-2.8425446	-12.345856	-0.5831146
1493568524404	0.984848	-10.369431	2.5338287
1493568524404	0.6807709	-9.462067	2.4715576
1493568524404	-0.68299866	-7.6465454	2.1397095
1493568524404	-2.059494	-6.1419525	2.8504333
1493568524404	-3.3058014	-4.786331	2.3168488
1493568524404	-3.6717682	-2.9725647	2.1238403
1493568524404	-3.2743683	-2.0885468	2.0563202
1493568524404	-1.8547974	-1.7738647	2.259842
1493568524404	-0.60025024	-2.1404266	1.9357147
1493568524404	-0.17507935	-2.53685	1.5991669
1493568524404	0.08596802	-3.5545807	0.6546631
1493568524404	0.12463379	-6.7220764	-1.999939
1493568524404	-2.1073608	-12.660843	-7.675293
1493568524404	-6.1873627	-18.230133	-17.187592
1493568524404	-5.035141	-19.474823	-17.429184
1493568524404	-2.807312	-14.187683	-8.213684
1493568524404	-3.0956116	-3.3422852	-0.17416382
1493568524404	-3.5227203	1.6619873	1.7740631
1493568524404	-5.5908966	-4.827362	4.7559967
1493568524404	-5.850998	-16.090942	6.2939606
1493568524404	-4.6532745	-19.260635	-6.9669037
1493568524404	-2.4909515	-12.510681	-5.8990173
1493568524404	-1.1132507	-2.5407257	12.501144
1493568524404	-2.3200684	-2.5117645	9.180145
1493568524404	-2.6262512	-10.303665	4.531723
1493568524404	-0.15571594	-14.079025	2.0588684
1493568524404	1.1606293	-14.226105	3.1755676
1493568524404	3.573471	-15.007996	0.41362
1493568524404	-0.3638153	-11.874359	-0.41609192
1493568524404	-1.111557	-9.325836	0.73968506
1493568524404	-4.436981	-7.183502	2.0212555
1493568524404	-4.495804	-6.4646606	2.0428772
1493568524404	-1.8557739	-7.566208	1.757843
1493568524404	-0.14749146	-8.630997	1.2092285
1493568524405	0.4456482	-9.158218	0.29296875
1493568524405	0.5298004	-9.457535	0.6633301
1493568524405	1.1912689	-10.237564	0.5296936
1493568524405	2.3670654	-10.57399	-0.45187378
1493568524405	2.2454681	-10.480286	-1.1959381
1493568524405	1.0314789	-11.401291	-1.5946503
1493568524405	-1.0844421	-12.021164	-1.3391418
1493568524405	-2.127884	-11.846634	-1.6006317
1493568524405	0.036026	-12.375412	-1.6578217
1493568524405	0.5299072	-12.3798065	-1.7327728
1493568524405	-0.8171997	-12.695007	-2.88562
1493568524405	-0.69996643	-13.345367	-3.415741
1493568524405	-1.0114441	-14.125198	-3.4002533
1493568524405	-4.106491	-13.49852	-3.7133484
1493568524405	-6.007141	-11.698334	-2.2180634
1493568524405	-6.7683716	-11.109863	2.6103668
1493568524405	-6.7272644	-12.028702	7.4536285
1493568524405	-7.1458435	-13.506134	3.8356018
1493568524405	-7.153534	-15.0924225	-1.0250854
1493568524405	-5.4020233	-14.48024	-2.1947021
1493568524405	-1.9236298	-11.571243	0.36087036
1493568524405	-0.23843384	-10.107544	2.5215607
1493568524405	-0.11105347	-9.241959	0.51200867
1493568524405	-1.128479	-7.026413	0.23225403
1493568524405	-2.8405304	-5.1536255	0.59552
1493568524405	-3.9360352	-4.0535736	1.6047821
1493568524405	-3.7445374	-2.9944	3.1757202
1493568524405	-2.4704285	-1.8474426	3.5165405
1493568524405	-0.717453	-1.75354	2.4141998
1493568524405	0.026138306	-2.1291656	1.129364
1493568524405	0.110946655	-3.059784	0.045791626
1493568524405	-0.46678162	-4.9819183	-2.1972504
1493568524405	-2.5138855	-8.226379	-6.7978973
1493568524405	-5.2183228	-14.310989	-13.887054
1493568524405	-6.2908325	-18.603317	-17.92157
1493568524405	-3.9648438	-19.474823	-13.904083
1493568524405	-3.8767853	-12.203934	-5.962143
1493568524405	-5.5288086	-3.5574493	0.31329346
1493568524405	-9.875473	-4.1262817	1.5534515
1493568524405	-9.560776	-8.642548	3.4513702
1493568524405	-3.6082153	-11.744049	3.4732056
1493568524406	1.4556885	-11.529404	-5.2714233
1493568524406	2.0133362	-7.5309143	5.2599792
1493568524406	-0.033432007	-6.3233337	6.114975
1493568524406	-0.62934875	-9.371323	3.4873352
1493568524406	-0.41914368	-11.807846	0.2523651
1493568524406	0.45095825	-12.057129	2.0372467
1493568524406	0.4245453	-11.422684	1.0028687
1493568524406	-1.37854	-10.730362	0.37171936
1493568524406	-2.7599945	-9.519974	1.471283
1493568524406	-0.80633545	-8.806503	2.0059357
1493568524406	-2.3972473	-9.561798	0.7501373
1493568524406	-1.5738678	-8.80043	1.9834442
1493568524406	-2.317337	-7.984543	2.0861206
1493568524406	-1.4597626	-7.9454956	0.9428711
1493568524406	-0.7476654	-8.745819	0.7513428
1493568524406	1.0187836	-9.909958	0.7527313
1493568524406	1.7822418	-11.368469	0.48068237
1493568524406	1.0675812	-11.343994	-0.7232361
1493568524406	-0.28694153	-11.243027	-2.0518951
1493568524406	-0.83914185	-11.325943	-1.5957336
1493568524406	-1.4751282	-11.492966	-2.2311401
1493568524406	-0.5754852	-12.131973	-1.8164825
1493568524406	0.25141907	-12.575836	-1.1788788
1493568524406	-0.15594482	-12.428986	-2.5994873
1493568524406	-0.055526733	-12.5868225	-4.7549286
1493568524406	1.2923889	-13.002426	-5.0891113
1493568524406	1.1518555	-14.998962	-4.162094
1493568524406	-0.9157257	-14.937729	-3.1983032
1493568524406	-2.4338074	-12.380722	0.026763916
1493568524406	-4.409973	-11.795288	5.0427246
1493568524406	-7.11615	-13.102997	7.128647
1493568524406	-9.754486	-13.423981	3.601715
1493568524406	-8.002426	-14.372696	0.68426514
1493568524406	-4.7531433	-13.551056	-0.6453552
1493568524406	0.78601074	-11.513428	1.7314453
1493568524407	3.4998474	-10.887207	3.7793884
1493568524407	0.7199249	-9.33699	1.071991
1493568524407	-1.0552216	-6.8970184	2.3097076
1493568524407	-2.1483307	-5.725281	3.3289948
1493568524407	-2.9644928	-4.109329	3.6696167
1493568524407	-3.0788116	-2.8990784	3.3897095
1493568524407	-2.2924194	-2.324997	3.596695
1493568524407	-1.5934296	-1.7799835	3.4648285
1493568524407	-1.3465881	-1.4344177	2.7650757
1493568524407	-1.0387878	-1.9475403	1.9502869
1493568524407	-1.1283417	-4.61911	-0.6417389
1493568524407	-3.7072601	-11.291489	-7.8861694
1493568524407	-7.57106	-17.66214	-16.71605
1493568524407	-4.6453247	-19.474823	-17.269104
1493568524407	-1.0926819	-16.355072	-8.162247
1493568524407	-0.9118347	-6.239273	-0.54733276
1493568524407	-1.824585	3.255844	-1.0251312
1493568524407	-2.026596	3.32312	-0.9644623
1493568524407	-3.19841	-6.551239	9.418182
1493568524407	-4.416916	-17.118774	6.30394
1493568524407	-6.640442	-19.474823	-9.72319
1493568524407	-6.361801	-13.873138	-4.1086273
1493568524407	-3.7272491	-3.1710358	13.285812
1493568524407	-0.1424408	-1.7637024	14.181046
1493568524407	1.2033539	-7.559372	5.6758423
1493568524407	2.3078918	-10.995636	2.7406464
1493568524407	1.1645966	-13.155655	6.2421875
1493568524407	0.4127655	-16.372116	-6.0754395
1493568524407	-0.40335083	-12.172501	-0.69615173
1493568524407	-0.7488251	-8.640106	2.1141968
1493568524407	-2.5290833	-7.287445	3.706421
1493568524407	-3.5021515	-7.0408173	1.9330597
1493568524407	-1.5616455	-8.389679	1.799118
1493568524407	0.121917725	-9.503693	-0.7754059
1493568524407	0.65270996	-9.664825	-0.8938904
1493568524407	0.038238525	-9.344849	0.08866882
1493568524407	-1.145813	-8.496033	0.85546875
1493568524407	-1.6562347	-9.13559	0.6943817
1493568524407	-1.021225	-10.077209	-0.50541687
1493568524407	-0.43959045	-11.208282	-1.9841766
1493568524407	-0.38516235	-11.936813	-2.2262268
1493568524408	0.16418457	-12.297028	-1.8528748
1493568524408	0.98213196	-11.937561	-1.1154022
1493568524408	0.01727295	-11.78479	-2.4586487
1493568524408	-1.4748383	-11.931885	-5.5345917
1493568524408	0.7350464	-12.951309	-5.689514
1493568524408	2.0911713	-15.304047	-3.416504
1493568524408	0.07260132	-16.069107	-2.3283997
1493568524408	-1.4566498	-12.783844	1.2517853
1493568524408	-3.2533264	-12.0265045	5.6042633
1493568524408	-4.3873444	-12.913071	7.954422
1493568524408	-7.8567963	-14.438293	2.3225403
1493568524408	-7.8173065	-16.312302	-0.1244812
1493568524408	-6.418167	-15.099136	0.7548981
1493568524408	-2.8238525	-11.973206	1.4512787
1493568524408	0.4354248	-10.314331	3.1357422
1493568524408	0.8883362	-9.714401	2.791504
1493568524408	-1.2191315	-8.1506195	1.0500793
1493568524408	-1.1678009	-6.486206	2.328827
1493568524408	-1.5617676	-5.178421	3.0983887
1493568524408	-2.4353485	-3.8331451	4.0653076
1493568524408	-2.5972748	-2.4430847	4.76149
1493568524408	-2.2987976	-1.0507355	4.372711
1493568524408	-2.2821655	-0.33818054	3.5743103
1493568524408	-2.0182495	-1.4502869	2.4646149
1493568524408	-1.5196991	-4.774002	-0.4650879
1493568524408	-3.3542633	-10.554474	-6.430664
1493568524408	-6.43721	-17.077042	-15.675659
1493568524408	-2.7480621	-19.474823	-18.98648
1493568524408	0.6875	-15.00737	-8.332031
1493568524408	-0.2639923	-5.663391	0.7405853
1493568524408	-2.5598145	1.9627991	-0.8135834
1493568524408	-6.008972	-2.5567474	-0.5225525
1493568524408	-6.418167	-15.377213	4.333313
1493568524408	-7.081009	-19.453568	1.0152588
1493568524408	-4.956909	-13.937027	-2.0096588
1493568524408	-2.434967	-3.1693573	10.067657
1493568524408	-2.5849152	-2.7352448	7.8734894
1493568524408	-1.2883148	-9.049347	5.784027
1493568524408	1.4264832	-12.931244	1.9176941
1493568524408	3.6956482	-13.269577	-1.0112
1493568524408	2.5533447	-13.338348	1.2333527
1493568524409	-2.0819244	-11.33699	-0.21504211
1493568524409	-2.7528992	-9.174103	0.14793396
1493568524409	-3.797287	-7.266678	0.16462708
1493568524409	-4.498169	-6.693741	1.5208893
1493568524409	-1.3764954	-7.9114532	1.9484558
1493568524409	1.0748291	-8.856308	0.61834717
1493568524409	0.49528503	-9.098343	0.5421295
1493568524409	-0.3543396	-9.50206	0.017715454
1493568524409	-0.09562683	-10.569382	-0.401062
1493568524409	1.0875549	-10.784088	-1.0680237
1493568524409	0.24526978	-9.892212	-1.4405823
1493568524409	-1.4332733	-9.635422	-1.044281
1493568524409	-2.292862	-9.6080475	-0.48101807
1493568524409	-0.5341797	-10.102539	-0.26776123
1493568524409	1.31073	-11.164642	-1.727066
1493568524409	1.6994324	-12.510605	-3.172821
1493568524409	-0.13194275	-12.905045	-4.180481
1493568524409	-1.1013184	-15.018051	-4.182007
1493568524409	-5.1613007	-13.751038	-3.2845764
1493568524409	-9.227432	-11.097351	-3.179779
1493568524409	-8.205063	-10.551559	-0.45941162
1493568524409	-7.111038	-11.918716	3.8903503
1493568524409	-6.1040344	-14.692978	4.4990997
1493568524409	-6.6555023	-14.298798	1.200882
1493568524409	-8.580338	-12.260864	1.5348053
1493568524409	-7.137848	-10.106216	1.3618622
1493568524409	-2.0773926	-9.4374695	1.7268219
1493568524409	0.75361633	-9.3394165	1.6152344
1493568524409	-2.234604	-7.159729	0.5695648
1493568524409	-3.4873962	-5.1092224	0.8080902
1493568524409	-3.5548096	-4.250183	1.5013885
1493568524409	-2.9210815	-3.9677277	2.151703
1493568524409	-2.2745972	-3.6776276	2.6325684
1493568524409	-1.3524475	-3.7019196	1.8443909
1493568524409	-0.60858154	-4.1045685	1.2493591
1493568524409	-0.30885315	-4.6495056	1.3731232
1493568524409	-0.4205017	-6.2734985	0.23258972
1493568524409	-0.48423767	-9.472183	-3.1129913
1493568524409	-0.053390503	-13.368729	-9.4296875
1493568524409	1.5979767	-17.431458	-16.435257
1493568524409	1.3595123	-17.621017	-13.69487
1493568524409	-1.6602631	-12.003235	-5.027359
1493568524410	-2.9383087	-6.413574	-0.7194519
1493568524410	-2.7441711	-3.860138	1.5717316
1493568524410	-5.203781	-5.608322	3.2942657
1493568524410	-7.2566223	-12.298294	1.713562
1493568524410	-6.4175415	-18.034424	-3.4814453
1493568524410	-3.9675293	-14.046326	-3.1272736
1493568524410	-0.8509979	-8.069489	6.105774
1493568524410	1.8494873	-6.8264008	7.1190186
1493568524410	1.1391602	-9.7730255	4.6727448
1493568524410	-0.37091064	-11.819412	6.2005463
1493568524410	-1.7714996	-12.113098	5.52861
1493568524410	-3.3299103	-11.384933	2.4631042
1493568524410	-3.7430573	-9.196106	-0.09906006
1493568524410	-1.5847015	-8.028305	4.271454
1493568524410	1.0873871	-8.579437	5.8719177
1493568524410	1.8129578	-8.4066925	4.209839
1493568524410	3.3248596	-9.533371	3.7353058
1493568524410	3.9620514	-10.100998	2.5641174
1493568524410	2.5815582	-10.61618	0.70544434
1493568524410	2.428421	-11.157425	2.0557861
1493568524410	2.1874084	-10.816299	1.7552643
1493568524410	2.0959778	-9.848114	-0.47425842
1493568524410	1.29393	-10.271606	-0.16325378
1493568524410	0.28579712	-11.763336	0.48532104
1493568524410	0.10520935	-11.414368	1.2414856
1493568524410	-0.41741943	-11.056732	0.30636597
1493568524410	-1.0336609	-11.14119	-1.0957794
1493568524410	-2.789444	-10.949066	-2.199707
1493568524410	-3.184494	-10.82518	-2.9297485
1493568524410	-1.9251099	-11.015732	-2.6256866
1493568524410	-0.9773865	-10.784775	-2.430359
1493568524410	-2.1688385	-11.58667	-3.0931854
1493568524410	-4.8792267	-12.503326	-3.1520233
1493568524410	-6.859558	-10.817474	-1.5275269
1493568524410	-6.29895	-9.780151	4.078491
1493568524410	-2.39357	-12.291382	6.489456
1493568524410	-0.8401489	-14.618393	3.8918457
1493568524410	-2.347824	-15.903824	0.042282104
1493568524410	-1.6764526	-16.19606	-1.4231262
1493568524410	-1.949646	-12.556427	0.23892212
1493568524410	-4.547287	-9.011673	3.2562408
1493568524411	-5.2574463	-7.652237	2.8016815
1493568524411	-1.5283356	-8.343658	0.33839417
1493568524411	-1.1066589	-8.916367	-0.039016724
1493568524411	-1.6382294	-8.0724945	0.3377533
1493568524411	-1.9109955	-6.166397	0.7219238
1493568524411	-1.6753235	-4.0271454	2.1263885
1493568524411	-1.0067291	-2.9077606	2.4111786
1493568524411	-0.7399597	-2.4288177	2.0538635
1493568524411	-0.92362976	-1.8316956	1.319397
1493568524411	-0.89678955	-2.0620117	-0.0539093
1493568524411	-0.73724365	-3.8166504	-2.1388245
1493568524411	-1.1468048	-8.381561	-5.456482
1493568524411	-2.1843567	-15.468033	-12.896576
