accelerometer_timestamp	accelerometer_x_data	accelerometer_y_data	accelerometer_z_data
1493856584074	-1.0849915	5.3416443	7.1445007
1493856584092	-0.9832001	4.8532104	6.6817474
1493856584112	0.36079407	4.8314514	6.2731476
1493856584132	2.2299347	4.544754	6.3914185
1493856584152	1.3686066	3.3672943	6.750534
1493856584172	1.911972	3.4499512	6.1871185
1493856584191	2.954483	4.155609	5.21402
1493856584211	2.2395935	3.961609	5.727356
1493856584231	0.99554443	3.042862	7.2437897
1493856584251	-0.6037903	1.9441223	7.368881
1493856584271	0.5845642	1.2540894	7.4040985
1493856584291	4.2708282	1.4074554	9.632919
1493856584310	4.097748	1.8468018	7.714691
1493856584330	4.485077	1.6125641	5.941925
1493856584350	4.7923737	-0.3882904	6.0096893
1493856584370	4.7250977	-1.9117126	6.849472
1493856584390	5.4086	-2.2874756	7.1965485
1493856584410	5.8509827	-3.6559906	7.132843
1493856584430	5.235321	-6.068924	6.208145
1493856584450	6.3167725	-6.345642	6.1905365
1493856584470	10.495102	-5.759033	6.8997345
1493856584489	13.559311	-5.0599823	5.599228
1493856584509	14.632645	-2.9951172	4.717697
1493856584529	14.909607	-1.3090973	4.1354065
1493856584549	15.197418	-1.0159149	2.0865936
1493856584569	14.947983	-1.1399078	3.436615
1493856584589	15.753632	0.287735	2.2732391
1493856584608	16.245178	2.1018982	-4.853653
1493856584628	14.212723	2.19635	-6.11026
1493856584648	13.323746	2.0765076	-5.7651367
1493856584668	11.218735	-0.37158203	-5.4552917
1493856584688	9.105255	-2.6468506	-3.6126099
1493856584708	8.513992	-3.5400085	-1.9257202
1493856584728	7.7049713	-5.226837	0.37210083
1493856584748	7.6467285	-6.676712	0.8247833
1493856584767	9.806732	-7.0603943	-1.3033447
1493856584788	9.909363	-7.498169	-2.891037
1493856584807	8.092072	-8.397186	-3.6295776
1493856584827	4.7167664	-7.658615	-0.45845032
1493856584847	6.0585175	-8.531113	-1.152771
1493856584867	5.828171	-8.158142	-0.91293335
1493856584886	3.9496155	-8.064789	-1.3337708
1493856584906	1.4566498	-10.102173	0.892334
1493856584926	2.1671295	-10.568893	1.2048187
1493856584946	2.1309967	-10.733444	-1.7851563
1493856584966	2.6140137	-8.447342	2.2550812
1493856584986	2.093155	-9.362793	0.53982544
1493856585006	1.8082428	-10.745346	1.6003113
1493856585025	3.650772	-11.125397	2.2033234
1493856585045	4.324341	-9.635925	3.30307
1493856585065	6.9217987	-8.3029175	3.829239
1493856585085	16.39775	-5.015564	-0.014755249
1493856585105	0.26437378	-18.169998	-3.756012
1493856585145	4.7694855	-8.521423	1.9154205
1493856585164	3.1663818	-9.3042755	0.3085785
1493856585184	2.3150635	-10.28241	3.1282043
1493856585204	3.8409576	-7.9798584	4.169647
1493856585224	2.625946	-8.105835	0.6324005
1493856585244	1.0861511	-8.612518	0.27313232
1493856585264	1.1086731	-7.0611267	1.4459534
1493856585283	-1.2189789	-4.468277	2.7913055
1493856585303	1.4672699	-4.697281	0.9985504
1493856585323	2.181488	-1.8066711	2.100418
1493856585343	1.4015656	6.4981995	4.5440063
1493856585363	1.032547	-4.068527	3.140396
1493856585383	-5.0836945	-15.176987	4.3924713
1493856585403	-2.1600494	-15.802414	-3.5185242
1493856585423	8.6689	-4.7326965	-4.6839905
1493856585442	14.137527	-19.474823	7.429016
1493856585462	10.363831	-16.34201	-1.5280914
1493856585482	3.0487823	-8.139206	4.513153
1493856585502	-2.2407837	-12.794342	1.6017609
1493856585522	-0.8122711	-11.385452	0.6759186
1493856585542	1.3099213	-10.796692	2.2469025
1493856585562	2.149109	-12.023743	3.7303162
1493856585581	3.0919495	-11.399796	2.5782318
1493856585601	3.0021667	-7.626175	-1.8263092
1493856585621	2.567505	-6.1417694	-5.6306305
1493856585641	3.4099731	-12.695938	-3.683319
1493856585661	3.7036896	-15.105484	0.003616333
1493856585681	4.122589	-10.771118	-2.599823
1493856585701	4.991287	-10.271011	-2.6390839
1493856585720	5.5234375	-11.558945	-1.3267365
1493856585740	5.4340363	-11.724182	-0.9562683
1493856585760	4.914215	-11.303192	-1.3795624
1493856585780	3.9576874	-10.750366	-0.74713135
1493856585800	2.8414764	-10.297791	0.02468872
1493856585820	1.5790863	-10.827042	1.3434906
1493856585840	-0.117126465	-12.442703	3.4069214
1493856585859	-1.0892029	-13.394348	2.518982
1493856585879	-0.8253784	-13.102692	0.17134094
1493856585899	-0.81565857	-13.092316	1.5567169
1493856585919	1.8900604	-12.103851	0.09463501
1493856585939	4.5539093	-11.630203	-0.6332092
1493856585959	3.70549	-10.355652	0.32165527
1493856585979	2.7030487	-8.346237	0.72242737
1493856585998	2.2510986	-7.7799225	1.0258484
1493856586018	2.0910034	-7.092148	1.6636658
1493856586038	1.1259003	-6.3600464	2.1688995
1493856586058	-0.88972473	-6.051819	1.9890594
1493856586078	-1.7532806	-5.780548	1.529419
1493856586098	-1.655365	-5.9798126	1.0980682
1493856586118	-1.6117859	-5.5986023	0.22465515
1493856586137	-1.6057129	-5.434799	-0.42788696
1493856586157	-1.4990692	-5.9290314	-1.7189484
1493856586177	-0.66033936	-7.612793	-4.293106
1493856586197	-0.31715393	-9.820587	-7.319687
1493856586217	-0.73028564	-10.363586	-8.127396
1493856586237	-2.0346222	-10.471161	-7.497467
1493856586256	-2.3969727	-11.856018	-7.596176
1493856586277	-1.4419556	-12.965271	-7.02623
1493856586296	-1.737381	-10.923004	-6.03154
1493856586316	-4.0990295	-7.3401947	-5.940613
1493856586336	-8.176346	-8.480179	-6.1121674
1493856586356	-6.213867	-16.958115	-6.5928497
1493856586376	-1.369339	-18.10054	-1.3690033
1493856586396	0.9756775	-10.248306	-0.6599121
1493856586415	-0.29016113	-6.360443	5.193939
1493856586435	-1.5681	-6.5510254	4.143173
1493856586455	0.82499695	-7.938019	6.1171265
1493856586475	2.5780945	-9.434219	5.2906494
1493856586495	3.1409607	-10.918701	-0.30963135
1493856586515	2.3384857	-11.0933075	0.41607666
1493856586554	3.2369232	-9.82074	2.1377869
1493856586574	2.839264	-10.068192	-0.1756897
1493856586594	2.5742188	-10.044998	0.7323456
1493856586614	2.4837494	-9.078918	0.6847687
1493856586634	3.1473846	-9.904633	0.4647827
1493856586654	1.9061584	-9.276154	-0.1449585
1493856586674	1.1089783	-10.000351	-2.134262
1493856586693	0.06523132	-9.0863495	-0.37557983
1493856586713	0.82403564	-8.260544	0.4242096
1493856586733	1.1341248	-8.034088	1.6680603
1493856586753	1.6798859	-7.798233	0.8600006
1493856586773	2.1678772	-7.1038666	0.19252014
1493856586793	2.5040894	-8.2135315	-0.7268219
1493856586813	2.6997223	-9.76059	-0.03401184
1493856586832	1.7538452	-10.97377	1.1610107
1493856586852	-0.29533386	-11.316605	0.32885742
1493856586872	-0.7498779	-11.202072	-0.73583984
1493856586892	2.491333	-11.764389	-0.08078003
1493856586912	5.269928	-11.841278	0.89237976
1493856586932	4.4180603	-11.888809	0.06700134
1493856586952	2.5828094	-12.107468	-0.66285706
1493856586971	2.7208862	-12.238129	-1.6971893
1493856586991	4.1725616	-12.5711975	-2.367981
1493856587011	5.041397	-12.895538	-3.0722961
1493856587031	5.241638	-12.1206665	-3.0822754
1493856587051	3.8940277	-10.66069	-1.1741486
1493856587071	2.0209503	-10.905884	0.33433533
1493856587091	0.4898224	-12.33316	3.7364044
1493856587110	-1.5854492	-14.678543	4.3683777
1493856587130	-3.180603	-16.353241	2.1988525
1493856587150	-2.5417023	-15.983337	-0.0839386
1493856587171	-1.9009857	-14.7308655	-1.2394562
1493856587190	-1.4680939	-13.210114	-0.5235443
1493856587211	0.97442627	-10.54657	0.086120605
1493856587230	3.7256012	-8.580017	-0.47558594
1493856587250	4.0095215	-7.188217	0.77786255
1493856587269	2.2262726	-5.862793	2.6182098
1493856587290	0.32296753	-4.691498	3.263733
1493856587310	-1.1668396	-3.3123322	3.305252
1493856587330	-2.6425629	-2.9196625	3.1431427
1493856587349	-2.709671	-3.237564	2.77536
1493856587369	-2.2542725	-3.832077	2.0462036
1493856587389	-2.1030426	-4.7521515	1.1588593
1493856587409	-1.866684	-6.1875305	-0.4988861
1493856587429	-2.3578186	-9.750244	-5.6053467
1493856587449	-2.299179	-14.0360565	-10.226105
1493856587468	-2.9314423	-14.875793	-11.023102
1493856587488	-3.82135	-11.882629	-10.013351
1493856587508	-2.1113129	-10.160477	-7.532852
1493856587528	-0.49305725	-9.232132	-5.1202393
1493856587548	-2.153656	-7.2241974	-5.3160095
1493856587568	-6.538376	-7.9294586	-6.7209167
1493856587588	-5.6588135	-15.312454	-6.780731
1493856587608	-3.4331055	-17.654755	-2.5551758
1493856587627	-1.2088013	-9.634567	0.02973938
1493856587647	-1.16539	-3.714981	4.49292
1493856587668	-1.9763336	-4.915848	3.190628
1493856587687	-0.21803284	-8.495651	5.8634033
1493856587707	1.4035797	-10.403259	7.0599976
1493856587726	2.9738007	-13.472839	2.0422058
1493856587747	4.2242737	-14.534744	0.0024108887
1493856587767	4.055649	-12.67897	1.1283569
1493856587786	2.7843475	-11.980148	0.55104065
1493856587806	1.4381104	-11.137375	0.3522644
1493856587826	0.72772217	-9.405991	0.48472595
1493856587846	1.0686798	-8.82489	0.10295105
1493856587866	0.85513306	-9.466385	-1.1023102
1493856587886	0.43289185	-9.517319	-1.6140747
1493856587905	1.0563049	-8.72052	-1.1515961
1493856587925	1.8280029	-7.960556	0.37469482
1493856587945	0.8058777	-7.8444977	1.6199188
1493856587985	0.29286194	-7.791458	0.46788025
1493856588005	0.14538574	-7.5901337	-1.3952942
1493856588024	0.7745514	-8.819717	-1.1472778
1493856588044	2.6735382	-10.201218	-0.5604553
1493856588064	3.5734558	-10.540512	-0.556839
1493856588084	2.8903503	-10.737564	-0.093170166
1493856588104	2.3184662	-11.6080475	-0.24311829
1493856588124	2.4965363	-11.755997	-0.7742157
1493856588144	3.0470734	-12.405289	-0.64151
1493856588164	3.1882782	-12.484116	-1.1403351
1493856588187	3.357193	-12.030716	-1.5612335
1493856588205	5.388687	-12.053406	-1.8687439
1493856588225	6.189209	-12.716629	-1.4924316
1493856588245	4.8912964	-12.87619	-2.3514404
1493856588265	2.0562744	-11.787491	-1.7478027
1493856588285	-0.71476746	-11.196671	-0.7689667
1493856588305	-2.6454773	-11.769714	2.7436676
1493856588325	-3.3209686	-14.162964	3.7513275
1493856588346	-4.7305603	-16.50322	2.4638214
1493856588364	-4.2188873	-16.159363	0.17837524
1493856588386	-1.8114624	-13.902267	-1.1260986
1493856588407	0.5615845	-12.717712	-0.106781006
1493856588424	4.128525	-11.252045	1.8127289
1493856588445	3.2670898	-10.088196	-0.41737366
1493856588465	3.629303	-8.4604645	1.3269806
1493856588486	2.2607117	-6.2499084	2.602295
1493856588505	0.37864685	-4.5083313	3.097641
1493856588525	-1.0646667	-3.2085876	3.4519806
1493856588543	-2.102127	-3.0834656	3.5972595
1493856588566	-2.6924896	-3.25148	3.1636658
1493856588585	-2.6238708	-3.455246	2.593979
1493856588606	-2.6101532	-3.8600159	1.5237579
1493856588626	-2.33667	-5.3414154	-0.06147766
1493856588644	-2.2438812	-8.745712	-2.9210358
1493856588666	-2.766449	-14.149002	-8.013336
1493856588688	-3.9048157	-17.391403	-11.372833
1493856588702	-4.922592	-14.091248	-10.138123
1493856588722	-3.7141113	-10.302139	-6.741806
1493856588744	-1.9551544	-9.817749	-4.0247498
1493856588761	-2.4988708	-7.64534	-4.090988
1493856588781	-3.1285706	-5.2438354	-6.3334503
1493856588805	-5.5706177	-8.87442	-6.452606
1493856588824	-4.660095	-15.956268	-4.5846863
1493856588844	-1.6303406	-17.423584	0.23210144
1493856588865	0.34429932	-12.131744	2.9140778
1493856588884	0.17562866	-6.737915	4.92511
1493856588905	-0.5263977	-5.1614532	6.391159
1493856588925	-0.15530396	-6.725647	5.9092865
1493856588943	1.3062744	-9.835175	3.9990845
1493856588964	2.841751	-12.207092	0.709198
1493856588984	4.5611877	-11.535004	0.08369446
1493856589003	5.140808	-10.778549	1.1221466
1493856589024	2.7863007	-9.766022	0.86512756
1493856589044	0.011383057	-8.336746	-0.18496704
1493856589064	-0.8837738	-8.046356	-0.19624329
1493856589081	-0.63967896	-9.0169525	0.21514893
1493856589104	-0.38868713	-10.041046	0.74964905
1493856589122	0.92723083	-9.979477	0.10832214
1493856589142	3.0945282	-8.894211	-0.25526428
1493856589164	2.6371155	-8.062317	1.0065002
1493856589187	2.1971436	-8.7842865	1.3456421
1493856589199	2.0194702	-9.557541	0.3514862
1493856589219	1.5350189	-10.331207	0.6240387
1493856589239	0.7749176	-11.330597	0.23971558
1493856589258	0.5558777	-11.029327	-0.40725708
1493856589278	1.454773	-10.962677	-1.8479156
1493856589302	4.163574	-10.804062	-0.80615234
1493856589323	5.406143	-10.44455	0.11747742
1493856589340	2.997589	-10.724014	-0.7716217
1493856589362	1.0455017	-11.57785	-2.0118408
1493856589381	2.6203003	-11.779816	-2.4775848
1493856589398	3.5166016	-12.660828	-1.2214813
1493856589439	2.8735962	-13.197662	-3.2881775
1493856589462	0.5077057	-11.231796	-2.501419
1493856589479	-1.1996613	-10.830109	-0.6671448
1493856589503	-2.5487823	-14.13652	3.1272736
1493856589521	-5.955948	-18.239044	5.05278
1493856589538	-8.106506	-19.11583	1.5635529
1493856589562	-4.2028503	-14.784088	-1.5479126
1493856589580	-3.964096	-12.980377	-2.4184418
1493856589599	-3.036148	-12.188583	-0.1706543
1493856589622	1.6215668	-10.156067	2.1316376
1493856589639	3.405777	-8.276413	-2.2438812
1493856589657	1.2232513	-7.3154907	0.892334
1493856589676	1.217102	-4.9813995	2.9453735
1493856589702	0.2412262	-3.851242	3.6087036
1493856589717	-1.4587555	-2.855713	2.6345978
1493856589734	-1.7471924	-2.3585358	2.1469116
1493856589755	-1.6154175	-2.9176025	1.6348877
1493856589775	-1.3265533	-3.607483	1.0514984
1493856589794	-0.9250946	-4.69458	0.50587463
1493856589816	-0.7799072	-6.10878	-0.36650085
1493856589836	-1.4620667	-9.1445465	-4.555908
1493856589859	-2.7911835	-13.711288	-11.122635
1493856589878	-4.5422363	-16.504227	-14.623428
1493856589895	-5.3556824	-13.930069	-12.076218
1493856589916	-3.8218994	-10.577133	-5.8095093
1493856589936	-2.4370117	-8.947357	-3.7841644
1493856589960	-3.1190948	-7.4378357	-3.6936493
1493856589975	-4.995041	-8.792816	-3.5921173
1493856589993	-6.4951935	-14.444183	-2.5531006
1493856590016	-4.2642365	-17.200806	-0.26220703
1493856590035	-0.79115295	-13.264862	2.021515
1493856590053	1.1130066	-6.972107	4.3421326
1493856590077	0.7589569	-5.0185547	7.61467
1493856590094	0.5121155	-6.5167847	6.2394104
1493856590115	1.1842651	-9.627853	4.0150757
1493856590132	3.1396027	-11.964783	1.2854156
1493856590154	4.9353027	-12.435013	-0.35838318
1493856590174	3.212555	-11.293442	-0.3439026
1493856590203	-0.31401062	-9.192688	-0.77090454
1493856590211	-1.9000092	-7.6960144	-0.8457947
1493856590231	-1.1761627	-8.213806	-0.4012909
1493856590252	0.42616272	-9.486588	0.7522888
1493856590271	1.9445496	-9.876785	1.1712646
1493856590291	3.1418	-9.477875	0.549881
1493856590314	2.4960632	-8.702774	0.40592957
1493856590334	1.687088	-8.66568	0.21250916
1493856590355	1.4686584	-9.26973	-0.007965088
1493856590373	1.5096436	-10.265106	-0.061691284
1493856590392	0.21949768	-10.8771515	-1.3653259
1493856590411	1.0457916	-10.8293	-1.0397949
1493856590430	2.8884735	-11.410782	-0.21061707
1493856590453	3.9823914	-11.477005	0.2062378
1493856590474	3.3268433	-11.285477	-0.7698059
1493856590489	1.5855255	-11.508743	-0.90852356
1493856590513	1.3660126	-11.853546	-2.5361786
1493856590533	2.48172	-12.237579	-2.296341
1493856590552	3.0604706	-13.183701	-3.6463623
1493856590573	2.0766296	-12.222336	-1.4841919
1493856590591	-0.6390228	-10.725006	-1.3911896
1493856590611	-2.426178	-12.354263	2.6233673
1493856590636	-4.2260437	-15.412811	4.5928955
1493856590651	-6.6330414	-17.584381	2.078354
1493856590673	-4.5970917	-15.842392	-0.8844147
1493856590697	-3.7169342	-13.988205	-1.8805084
1493856590709	-3.9958801	-14.007416	-0.53408813
1493856590730	-1.4509583	-11.255722	2.0908356
1493856590746	3.3779144	-9.689453	-3.6651
1493856590767	2.0370026	-8.669739	-0.40029907
1493856590787	1.3660583	-5.72818	2.0335999
1493856590831	1.5532227	-4.2133484	2.7819061
1493856590848	-1.0610046	-3.1083527	3.8217163
1493856590870	-2.0312958	-1.6550293	3.4132538
1493856590890	-2.084137	-2.0890656	2.7711334
1493856590909	-1.7256622	-2.8917236	1.8830566
1493856590930	-1.0961304	-3.926941	0.9579773
1493856590949	-0.6561279	-4.9289703	0.28782654
1493856590972	-0.82029724	-7.7124176	-2.4751587
1493856590988	-2.2579346	-13.480621	-10.892334
1493856591009	-3.7265625	-18.402252	-14.629791
1493856591032	-4.5192566	-13.353134	-13.334045
1493856591047	-3.9045563	-9.954086	-7.566635
1493856591069	-2.9260712	-10.330124	-3.6938782
1493856591089	-4.7348175	-11.380875	-3.7909393
1493856591109	-6.7859344	-15.267075	-6.19252
1493856591128	-6.686081	-15.080505	-3.0350647
1493856591144	-3.1872406	-8.338654	4.7792053
1493856591167	-1.9028015	-4.5287476	4.6874237
1493856591187	-0.9772339	-6.1681366	5.943863
1493856591211	0.3189087	-9.66777	6.460556
1493856591228	4.386261	-12.087997	8.029358
1493856591244	5.2961273	-13.098022	2.2608795
1493856591264	3.9896088	-12.119553	-3.0713806
1493856591283	1.8934631	-10.372986	-0.33399963
1493856591303	-0.010620117	-9.143738	0.99446106
1493856591325	-0.9977112	-8.138763	0.35090637
1493856591344	-0.6648865	-8.305527	0.37095642
1493856591364	0.22944641	-9.788681	-0.08784485
1493856591384	1.0511627	-9.947388	0.73495483
1493856591404	0.8193207	-8.992004	1.3979034
1493856591423	0.7129669	-8.4375305	1.0256805
1493856591444	1.3058472	-8.3741455	1.2769318
1493856591465	1.5709381	-8.673691	-0.22406006
1493856591485	2.0601654	-9.544815	-1.9605865
1493856591503	2.5314026	-10.76329	-1.173523
1493856591525	1.6229553	-10.89241	-0.8439789
1493856591544	0.46476746	-10.497574	-0.6641083
1493856591567	0.81726074	-11.09668	-0.19651794
1493856591586	2.4798737	-11.776459	0.21559143
1493856591603	3.618454	-11.681946	0.47546387
1493856591625	2.487976	-11.5703125	0.13716125
1493856591645	1.1318054	-11.987259	-1.300293
1493856591664	2.3331451	-13.308716	-1.6400146
1493856591683	3.9937897	-13.646637	-2.3984833
1493856591712	3.2517853	-12.811615	-2.9413452
1493856591721	-0.087753296	-11.530472	-2.595047
1493856591742	-1.7568817	-11.631287	0.6844635
1493856591762	-2.951355	-13.712204	4.058548
1493856591780	-5.7325134	-16.101059	3.5923462
1493856591800	-6.0720673	-16.26384	-0.07928467
1493856591822	-3.7679596	-14.221909	-1.7201996
1493856591842	-3.0324707	-12.937317	-1.1921844
1493856591858	-1.7136078	-11.691269	0.48260498
1493856591882	1.4488983	-9.50882	-1.1026764
1493856591900	3.1902008	-8.893616	0.20904541
1493856591922	2.756836	-7.792633	2.0222473
1493856591947	0.82870483	-6.1352386	3.2169037
1493856591958	-0.5973511	-4.0429688	3.7649689
1493856591979	-1.7579651	-2.5073547	3.8098602
1493856592001	-2.184555	-1.6917114	3.4717712
1493856592017	-2.2115173	-2.1367645	2.6634064
1493856592036	-1.8869629	-2.6014557	1.4385223
1493856592055	-1.9264526	-3.8241882	0.049835205
1493856592080	-2.0826874	-6.015213	-1.7836151
1493856592097	-3.332367	-12.091492	-10.809326
1493856592119	-5.6182556	-19.005142	-14.453613
1493856592137	-5.8128357	-16.162338	-14.814621
1493856592160	-3.821106	-11.267593	-9.417923
1493856592179	-2.1738281	-9.308731	-4.190628
1493856592215	-5.604309	-7.3153076	-2.7587433
1493856592235	-7.6167145	-10.398117	-5.1715546
1493856592254	-6.9764404	-14.837112	-4.762314
1493856592275	-4.9749603	-11.45076	3.8592987
1493856592297	-2.3485413	-8.324829	2.7599945
1493856592318	-0.469635	-7.833557	5.6805115
1493856592337	-1.6161652	-9.144638	5.3824615
1493856592357	3.1217804	-9.2994995	9.20134
1493856592378	3.5857544	-11.7773285	6.6876373
1493856592398	3.2035828	-12.543747	-0.40045166
1493856592416	3.2607422	-12.409851	-2.61734
1493856592435	2.0102844	-11.4449005	0.13490295
1493856592457	-1.0230255	-9.522415	0.45237732
1493856592479	-1.8158722	-7.3760834	-0.58018494
1493856592499	-1.4227753	-7.9921875	0.17791748
1493856592518	-1.6646271	-9.619736	-1.1422577
1493856592534	0.9459076	-9.633148	-0.17634583
1493856592558	1.6747742	-9.353668	0.54278564
1493856592578	1.4000549	-8.493622	1.4304962
1493856592597	1.0626526	-8.394363	0.66459656
1493856592615	1.2526855	-8.644836	-1.8433075
1493856592635	1.908905	-10.076035	-0.93885803
1493856592656	2.1716309	-11.097534	-0.30252075
1493856592675	1.7786713	-10.820404	-0.8381195
1493856592695	1.4071808	-11.0355835	-0.5202179
1493856592725	0.7347107	-11.76889	-0.33224487
1493856592735	1.2281036	-11.441895	-0.9959259
1493856592753	1.9711761	-11.146317	-0.2849579
1493856592773	2.0041504	-11.351685	-0.20326233
1493856592793	2.5791779	-12.267761	-0.49365234
1493856592814	3.7806244	-13.985718	-0.890152
1493856592833	3.4953156	-14.641312	-2.5300903
1493856592854	0.8551483	-12.603943	-3.4757385
1493856592873	-1.6766357	-10.677246	-2.3205872
1493856592897	-1.3761444	-11.453308	1.0049286
1493856592914	-2.0113373	-13.708878	4.0838013
1493856592933	-4.9050446	-15.651611	3.5689697
1493856592953	-5.6114807	-15.805435	0.22410583
1493856592972	-3.9039612	-14.069305	-1.701355
1493856592998	-3.0943909	-12.357162	-1.2409668
1493856593016	-1.5363617	-11.8220825	2.237442
1493856593031	1.2768097	-10.693634	0.8417969
1493856593053	2.6578674	-9.082611	0.16644287
1493856593070	3.1595917	-7.2137756	2.3193665
1493856593095	2.1281586	-5.55455	2.8723145
1493856593113	0.3297882	-3.929779	3.566391
1493856593130	-1.5946503	-2.5943298	3.9583893
1493856593151	-2.428299	-2.269394	3.8238373
1493856593171	-2.7557678	-2.4241943	2.9078217
1493856593194	-2.6119843	-2.968155	1.4137573
1493856593209	-2.4693604	-4.037567	-0.22854614
1493856593230	-2.88385	-6.8029633	-3.0217896
1493856593251	-3.7662964	-12.692108	-9.848923
1493856593266	-5.656189	-18.29396	-14.560104
1493856593287	-5.7850494	-14.187988	-12.76976
1493856593307	-4.298691	-9.747147	-7.920807
1493856593327	-3.6892395	-8.9483795	-4.117996
1493856593348	-6.586548	-7.5848083	-3.2944489
1493856593367	-8.245468	-12.119812	-5.332321
1493856593388	-4.826309	-14.689423	-2.4329987
1493856593407	-3.6064453	-12.833923	0.9643707
1493856593430	-0.8963165	-8.009842	4.9230957
1493856593447	-0.5185394	-6.505127	6.1489105
1493856593467	0.97540283	-8.174759	7.094986
1493856593490	3.16568	-10.938171	8.626877
1493856593508	2.6651459	-12.73143	3.2042236
1493856593530	3.059906	-13.178741	-2.752182
1493856593549	3.9765778	-12.231125	-0.18185425
1493856593568	2.1303253	-11.0864105	2.0992584
1493856593588	-1.8161163	-8.611725	0.20327759
1493856593632	-2.516632	-6.3866577	-0.50387573
1493856593647	-2.7818146	-8.618774	-1.786789
1493856593648	-1.7890778	-9.702576	-1.8869629
1493856593688	2.3756256	-9.720444	0.9406738
1493856593708	2.2401886	-8.6371	1.9481812
1493856593708	2.069809	-8.460083	2.2734528
1493856593746	0.6561127	-8.11673	-0.98275757
1493856593765	0.6826172	-8.041672	-2.5424652
1493856593785	1.4850464	-10.414124	-1.0578766
1493856593805	1.5688934	-11.634354	-0.66999817
1493856593826	1.2793274	-11.046814	-0.93566895
1493856593847	0.20613098	-11.0407715	-0.8583374
1493856593866	0.83470154	-11.76236	0.072021484
1493856593884	2.5737	-11.967148	-0.37571716
1493856593906	2.7065125	-11.560989	-0.9162903
1493856593929	2.4933014	-11.835266	-0.6171417
1493856593947	3.9012146	-13.179764	-1.2907257
1493856593964	5.0316925	-14.658768	-2.0365753
1493856593984	3.737915	-13.116562	-2.201767
1493856594007	-0.5380249	-11.798889	-2.0774384
1493856594031	-1.8107758	-12.028595	-0.0025177002
1493856594046	-2.0473328	-13.676086	3.841217
1493856594063	-4.452713	-15.653915	3.808426
1493856594083	-6.461502	-16.605331	1.8010406
1493856594105	-5.2406464	-15.195541	-0.7846832
1493856594122	-3.3811798	-12.914917	-1.37854
1493856594145	-1.9902954	-11.733444	0.38827515
1493856594163	1.2478027	-10.038361	1.2589722
1493856594184	4.2488403	-8.335144	-0.6296234
1493856594205	2.9563751	-7.5594788	1.0570374
1493856594223	1.8234863	-5.459244	2.9408875
1493856594245	0.5045929	-3.6270142	3.6942139
1493856594262	-1.0912018	-2.5582733	3.6284943
1493856594281	-2.351944	-2.4288635	3.5756836
1493856594302	-2.878891	-2.594818	2.9706879
1493856594323	-2.7969666	-2.9199677	1.725769
1493856594342	-2.273697	-3.823822	0.6755371
1493856594361	-2.0549011	-6.074295	-1.3863983
1493856594383	-2.791748	-11.614166	-8.222153
1493856594399	-4.403122	-17.502472	-13.903656
1493856594418	-5.1244354	-15.939041	-13.092606
1493856594439	-4.2733307	-10.772781	-8.865997
1493856594458	-2.9102478	-8.893539	-5.4798126
1493856594478	-4.68515	-7.865677	-4.7019653
1493856594499	-7.564911	-10.0271	-5.270996
1493856594518	-5.958267	-13.477966	-3.411026
1493856594542	-4.5624237	-13.667923	1.7607727
1493856594559	-2.551361	-9.604996	4.7602844
1493856594581	-1.9069214	-7.559189	5.5108643
1493856594599	-0.8091278	-7.8887634	5.6442413
1493856594618	3.084961	-9.407974	8.185425
1493856594643	4.0270386	-11.638519	6.3700256
1493856594662	3.188385	-12.379791	-0.14483643
1493856594679	2.972412	-11.938232	-1.3617249
1493856594701	3.0094452	-11.24585	0.65260315
1493856594719	-0.5637665	-9.810562	0.5317993
1493856594740	-2.3433685	-7.65683	-1.1680603
1493856594767	-1.9287872	-8.023682	-0.90556335
1493856594777	-1.7675171	-9.426132	-0.66929626
1493856594798	0.18144226	-9.335724	-0.08610535
1493856594818	1.3320313	-8.830643	-0.05911255
1493856594837	1.5969696	-8.377579	1.8590698
1493856594860	1.4289398	-8.432465	0.48550415
1493856594878	1.0288086	-8.050552	-2.523468
1493856594903	1.9564972	-9.822922	-0.24362183
1493856594921	1.6768341	-11.4839325	-0.647583
1493856594940	1.4021454	-10.767883	-0.53086853
1493856594958	0.0019989014	-11.014633	-0.24256897
1493856594978	-1.5024872	-12.049652	0.20649719
1493856595003	-0.07809448	-12.285568	-0.13192749
1493856595040	3.1304932	-11.572388	-0.2940216
1493856595063	3.9534454	-11.206879	-1.4137726
1493856595078	3.9783173	-12.034958	-1.6694946
1493856595098	5.203598	-14.324097	-1.4045868
1493856595119	4.4408264	-14.279419	-2.607605
1493856595140	1.1318054	-11.9878845	-3.10466
1493856595159	-1.6058655	-10.964935	-2.4374695
1493856595178	-1.8894653	-11.600952	2.6013794
1493856595198	-3.0066528	-14.107361	4.219406
1493856595217	-6.8367157	-16.74707	2.682602
1493856595241	-6.3967743	-16.438873	-1.1814575
1493856595255	-3.168335	-13.621689	-1.36203
1493856595275	-1.6212616	-12.167892	-0.81533813
1493856595294	0.82051086	-11.308914	0.47885132
1493856595314	3.236969	-9.417114	-1.711319
1493856595334	2.8863983	-8.204514	2.416153
1493856595356	2.0055237	-6.272827	2.7372894
1493856595377	1.1661682	-4.9127502	3.4654236
1493856595398	-0.34031677	-3.2239075	4.063919
1493856595414	-2.2499084	-2.2510223	3.9558563
1493856595435	-2.8936157	-2.160843	3.423172
1493856595456	-2.975769	-2.55867	2.3346863
1493856595477	-2.6715088	-3.0902863	0.8452301
1493856595496	-2.4508972	-5.280197	-1.7051849
1493856595515	-3.3163605	-10.487717	-6.845825
1493856595536	-4.9776917	-16.656998	-13.580978
1493856595557	-6.1812744	-17.49083	-14.78714
1493856595575	-4.9167023	-12.546616	-9.248276
1493856595595	-3.8512726	-8.730133	-5.167633
1493856595616	-6.2416534	-7.9691315	-4.877228
1493856595633	-7.046402	-12.583984	-6.0606995
1493856595656	-4.72641	-15.091797	-1.990982
1493856595673	-2.2978516	-9.414337	4.462784
1493856595694	-0.9289398	-5.3475494	6.2227173
1493856595712	-1.8300934	-7.007263	5.4376526
1493856595742	0.7309418	-9.469025	7.005661
1493856595751	3.2238617	-11.862152	7.957062
1493856595773	3.141861	-13.15538	2.8007507
1493856595789	2.9358826	-13.471527	-2.2923431
1493856595811	2.7274933	-12.712616	-1.5918579
1493856595830	0.43441772	-10.658539	0.48414612
1493856595852	-1.5156403	-8.068344	0.8817444
1493856595871	-1.5283508	-7.548691	-0.021697998
1493856595891	-1.0389557	-8.84375	-0.42453003
1493856595913	0.42160034	-9.329422	-0.75779724
1493856595931	1.5579376	-8.87175	0.16226196
1493856595953	0.37374878	-8.344528	1.3639374
1493856595973	-0.04598999	-8.163971	0.76519775
1493856595993	-0.36177063	-8.849579	-1.4392395
1493856596012	0.045318604	-9.850418	-1.3986206
1493856596033	0.90527344	-10.040863	-0.14671326
1493856596053	1.6519318	-9.853287	-0.44174194
1493856596072	1.8507233	-10.268524	-0.8127289
1493856596090	1.6978607	-11.978165	0.14665222
1493856596113	0.6127472	-12.990936	-1.4291992
1493856596131	2.5014954	-12.755737	-0.80197144
1493856596151	3.6717224	-11.981598	-1.2093658
1493856596171	3.164734	-11.639053	-2.7751617
1493856596191	5.1538086	-12.527557	-2.1904755
1493856596212	5.5049744	-14.033051	-1.9195709
1493856596227	3.15419	-12.711639	-1.4998016
1493856596248	-1.0943756	-11.27269	-2.9950104
1493856596278	-3.4233856	-11.643158	0.76519775
1493856596286	-2.9237213	-14.697052	5.19014
1493856596306	-5.574814	-17.360504	4.8667603
1493856596326	-7.9999847	-17.242035	0.62475586
1493856596346	-4.8562317	-14.728363	-1.9059143
1493856596371	-3.7446747	-13.134125	-1.3396912
1493856596406	-1.0926208	-11.596252	1.2819366
1493856596426	5.372879	-9.129425	0.1427002
1493856596448	1.6222076	-8.678024	1.1297455
1493856596472	1.1069794	-7.023163	2.2319946
1493856596488	0.7411957	-4.169174	3.6747284
1493856596508	0.30039978	-2.3973541	4.202881
1493856596528	-1.4649963	-1.6527252	3.471344
1493856596549	-2.1385345	-1.8860931	3.557724
1493856596567	-2.1355286	-2.6541138	2.596817
1493856596588	-1.9640961	-3.801361	1.4903412
1493856596609	-1.4667358	-5.0792236	0.11331177
1493856596627	-2.3838959	-9.326828	-5.010376
1493856596648	-4.191391	-15.872101	-14.120361
1493856596668	-6.167618	-17.841888	-14.754211
1493856596685	-6.1050262	-12.028473	-10.694351
1493856596706	-4.027054	-8.358261	-6.8092346
1493856596724	-4.1033173	-8.84552	-5.7789764
1493856596746	-7.5307617	-11.004791	-5.75766
1493856596775	-7.521332	-14.712433	-3.3401031
1493856596783	-3.469818	-12.2425995	1.7024536
1493856596803	-1.8967743	-8.362534	5.359543
1493856596823	-0.7782898	-5.824417	6.7657776
1493856596846	-0.35580444	-9.022812	6.200241
1493856596863	2.857193	-11.619415	7.58519
1493856596883	4.1760254	-12.631943	6.3669434
1493856596904	3.2617798	-12.47583	0.9064636
1493856596924	2.580597	-12.40834	-1.5057983
1493856596945	0.5989075	-11.13623	-0.10960388
1493856596966	-1.5630188	-8.673782	0.5986481
1493856596984	-2.4916077	-7.724472	0.11250305
1493856597004	-2.5230713	-8.54068	-0.7568512
1493856597024	0.26634216	-9.337128	0.08265686
1493856597045	2.5705566	-8.831116	1.3153381
1493856597063	2.4294891	-8.5321045	1.4659729
1493856597084	1.3988647	-8.565903	0.742157
1493856597104	0.055786133	-8.505386	-2.7033997
1493856597123	0.3193817	-9.803558	-2.3414764
1493856597142	1.2505951	-11.510178	0.023742676
1493856597165	1.3795624	-11.51712	-0.16874695
1493856597184	1.6225891	-10.503891	-0.53564453
1493856597203	1.35643	-10.229095	-0.70758057
1493856597223	0.27618408	-10.942657	-0.81274414
1493856597246	1.2921295	-11.543701	-0.5765686
1493856597260	2.5283356	-11.757828	-0.9158325
1493856597279	2.1621704	-11.88562	-1.8956299
1493856597298	3.6727295	-12.823532	-1.4640503
1493856597319	4.6062164	-13.7981415	-2.0614624
1493856597339	3.8271484	-12.678864	-2.5200653
1493856597362	0.43951416	-11.208893	-2.4927216
1493856597379	-1.5274353	-10.853867	0.6094208
1493856597397	-2.377411	-13.096222	3.5821533
1493856597418	-5.0670013	-16.090988	4.030884
1493856597438	-6.219818	-17.019379	0.6438904
1493856597460	-3.9047546	-15.214432	-1.2986298
1493856597480	-4.023041	-13.551514	-1.4233704
1493856597499	-1.7736206	-11.647842	2.4067383
1493856597522	4.9119873	-11.071426	-2.6608124
1493856597539	1.9221649	-10.782776	-0.75260925
1493856597560	1.7180023	-8.543549	1.9958191
1493856597579	1.2123413	-4.9931183	3.5440369
1493856597601	-0.3510437	-3.0678864	4.0073395
1493856597620	-2.0723877	-1.9439545	4.135727
1493856597639	-2.1613617	-1.9037323	4.109665
1493856597659	-1.7652588	-2.7178345	3.0886383
1493856597676	-1.5041809	-3.112259	1.7522888
1493856597698	-1.79039	-3.564865	0.12661743
1493856597719	-2.3444366	-6.151413	-2.0779266
1493856597737	-4.5015564	-12.812164	-12.217682
1493856597777	-3.8341217	-19.43927	-16.398834
1493856597795	-4.61467	-16.714127	-12.757538
1493856597813	-4.445633	-9.971024	-6.9937897
1493856597833	-4.040619	-7.8874207	-4.8401184
1493856597853	-6.264099	-7.15625	-5.138214
1493856597873	-6.9918213	-14.382935	-3.4351044
1493856597893	-3.7031097	-14.434326	0.5244751
1493856597917	-2.2923431	-9.447891	4.8144836
1493856597936	-0.27490234	-5.9723816	8.025269
1493856597954	-1.0888214	-8.412476	6.2287903
1493856597976	2.0856628	-11.285477	7.454376
1493856597995	4.050934	-13.473129	6.1049347
1493856598014	3.5055237	-13.049744	-0.35009766
1493856598035	3.0118408	-11.75679	-1.3340607
1493856598053	1.446106	-10.369812	0.9202728
1493856598077	-1.8338318	-9.204376	1.2938843
1493856598095	-2.6621094	-7.630432	-0.5717926
1493856598115	-1.4931793	-7.656143	-1.17659
1493856598136	-0.41441345	-8.887512	-0.6192932
1493856598155	1.0592194	-9.404953	-0.0040283203
1493856598176	2.3798523	-8.988586	0.21333313
1493856598194	2.2061005	-8.82782	0.54034424
1493856598212	1.6299438	-8.781509	0.26641846
1493856598232	0.8688965	-8.796768	-0.6820526
1493856598261	0.45594788	-9.593842	-0.60284424
1493856598273	0.37657166	-10.48851	0.1211853
1493856598291	0.6343231	-10.076416	0.29891968
1493856598313	0.8751373	-10.075714	-0.21559143
1493856598332	0.5180054	-11.72435	-0.40594482
1493856598350	0.22515869	-12.6436615	-0.8229065
1493856598372	2.0645447	-12.533585	-1.1609192
1493856598392	3.5701752	-12.219681	-0.714859
1493856598412	3.9027405	-12.658142	-1.9129333
1493856598431	5.006302	-13.532867	-2.1506958
1493856598452	4.665222	-13.517624	-2.5065002
1493856598476	2.189087	-12.919357	-3.2309875
1493856598494	-1.3038177	-11.531662	-2.9136353
1493856598513	-3.5321198	-10.56691	-0.33901978
1493856598535	-3.7153168	-12.368607	2.7213135
1493856598552	-5.309311	-15.570633	3.421936
1493856598574	-6.351288	-16.714157	0.0690155
1493856598593	-4.4143524	-15.127228	-2.3083038
1493856598613	-2.559494	-13.363312	-1.4097748
1493856598633	-0.9813843	-12.365784	1.490448
1493856598652	1.9525757	-10.506775	-0.6642914
1493856598674	2.6719055	-9.595261	-0.84194946
1493856598693	2.780426	-8.07132	0.52911377
1493856598713	1.6703491	-5.275818	2.419159
1493856598732	0.61061096	-3.1354828	3.8476868
1493856598758	-0.91404724	-1.7067719	3.7325287
1493856598769	-2.5285034	-1.2282257	3.5000763
1493856598788	-2.8441315	-1.4538727	3.1402435
1493856598808	-2.796524	-2.274292	1.6857605
1493856598828	-2.352356	-3.9098969	-0.25042725
1493856598848	-2.2773285	-7.352295	-2.7325134
1493856598869	-3.1424408	-14.889114	-12.25386
1493856598890	-5.7581635	-18.944122	-16.714905
1493856598912	-5.480591	-14.263931	-11.743362
1493856598932	-3.6946564	-9.365402	-6.137451
1493856598949	-4.5404053	-7.366638	-3.675949
1493856598971	-5.6411743	-5.1042786	-4.4461365
1493856598989	-8.063889	-9.483017	-3.2955933
1493856599011	-6.073288	-15.213394	-2.1881104
1493856599031	-4.67247	-16.23088	2.991272
1493856599050	0.79519653	-10.321823	5.121887
1493856599069	-0.9737854	-6.771393	5.3488617
1493856599089	0.30297852	-6.9677277	4.8619537
1493856599109	2.8856354	-9.934967	7.9078217
1493856599133	2.868332	-12.627182	5.308731
1493856599149	2.7170105	-13.128586	-0.5241699
1493856599192	3.449997	-12.91095	-2.386963
1493856599208	2.1670532	-11.463608	1.4231567
1493856599228	-2.2176208	-8.577362	0.12898254
1493856599245	-2.2463684	-6.9535217	-1.4551086
1493856599265	-1.5411072	-8.502792	-1.0406647
1493856599292	0.70544434	-9.51561	-0.770401
1493856599304	2.377945	-10.165955	-0.7619629
1493856599324	0.88749695	-9.128769	0.63708496
1493856599344	-0.6026001	-8.336563	-0.42070007
1493856599364	0.4466858	-8.357956	-1.2787933
1493856599385	1.4186707	-8.780869	-0.83361816
1493856599404	1.4631195	-9.601654	-0.1733551
1493856599423	1.2530518	-10.199875	-1.0827637
1493856599445	1.3190002	-11.141861	-1.1734314
1493856599465	0.76264954	-11.791092	0.09559631
1493856599487	-0.31080627	-11.1163025	-0.190979
1493856599507	-0.2806549	-11.597321	-1.0637207
1493856599526	2.0562744	-11.716278	0.27348328
1493856599547	3.000061	-12.053345	-0.5840912
1493856599567	2.6534576	-12.216415	-2.7392426
1493856599587	4.0690613	-12.821823	-2.7033691
1493856599606	4.0614166	-13.507172	-2.9521942
1493856599625	3.0002594	-12.373047	-2.6923676
1493856599645	0.4334259	-10.937027	-1.603653
1493856599665	-2.003296	-10.848679	0.34300232
1493856599684	-3.56398	-12.710037	3.6479187
1493856599705	-4.925766	-15.112091	4.1501923
1493856599724	-5.5516663	-15.229324	1.4437256
1493856599741	-3.7236328	-13.71489	-2.0216217
1493856599765	-2.1356049	-12.361954	-1.8744812
1493856599784	0.2096405	-11.213333	1.8507233
1493856599800	2.4244537	-10.534531	2.034546
1493856599822	1.5714569	-10.034378	0.39115906
1493856599840	0.43840027	-8.098785	1.3166809
1493856599860	-0.26585388	-5.6783295	2.120987
1493856599882	-0.2921753	-3.60495	2.9774628
1493856599901	-0.9249115	-3.0019684	3.2853394
1493856599922	-2.0097504	-3.0000763	3.2128906
1493856599942	-2.3894043	-3.218811	2.5716553
1493856599961	-2.5534363	-3.773697	1.3760986
1493856599984	-2.125702	-5.1132355	-0.5285187
1493856600004	-2.1448517	-7.979416	-4.458954
1493856600020	-2.2247162	-13.986069	-11.214233
1493856600042	-2.756363	-17.300125	-12.623306
1493856600059	-3.7727356	-13.387512	-9.797379
1493856600082	-3.5143433	-8.99762	-5.7249756
1493856600097	-3.088501	-7.624344	-3.3311157
1493856600115	-3.967163	-6.948517	-4.022766
1493856600136	-6.4099426	-10.237259	-6.02063
1493856600156	-6.2958984	-16.019638	-3.9817963
1493856600176	-3.44635	-15.384537	1.5877686
1493856600196	-1.2984161	-9.183945	4.080765
1493856600216	-1.8745728	-5.4311523	4.9167023
1493856600238	-2.033081	-5.7170563	5.5567474
1493856600257	1.7805786	-8.676453	7.0124207
1493856600275	3.0303802	-12.631439	6.048477
1493856600295	3.1124725	-13.735794	0.92767334
1493856600314	3.6896362	-13.037796	-1.6745605
1493856600335	1.7918854	-10.485565	0.63308716
1493856600359	-0.79600525	-8.55925	0.003829956
1493856600378	-2.3302765	-7.7392883	-0.33892822
1493856600397	-0.8628235	-8.181564	1.2450714
1493856600417	0.104034424	-9.419601	0.36886597
1493856600437	0.96591187	-9.509033	1.6424255
1493856600457	2.1077423	-9.716202	1.1599426
1493856600474	1.425293	-9.138855	0.27946472
1493856600494	-0.8303375	-8.574951	-1.242096
1493856600533	-1.0376587	-8.808716	-0.7989807
1493856600553	0.42808533	-9.498474	1.4097748
1493856600573	0.60816956	-10.254654	0.4021454
1493856600597	0.50064087	-10.599655	-1.0022583
1493856600613	0.9566803	-11.273895	-1.8917084
1493856600634	2.7787323	-11.93869	-0.6030121
1493856600656	2.6916656	-11.741074	-0.75549316
1493856600677	1.2401581	-11.364914	-1.5671997
1493856600695	2.8289032	-11.326523	0.06918335
1493856600716	3.123993	-11.68364	-1.1490784
1493856600734	3.9434357	-12.608414	-1.5169525
1493856600760	3.3717651	-13.785187	-2.4260254
1493856600773	1.8242035	-12.638107	-3.047409
1493856600793	-0.761322	-11.290436	-2.246109
1493856600813	-1.8495789	-10.777832	-0.14151001
1493856600833	-2.6178894	-11.794998	4.0691986
1493856600852	-5.8530426	-15.291534	3.495285
1493856600878	-7.369049	-17.247894	0.82276917
1493856600897	-4.5724487	-15.158951	-1.3311768
1493856600915	-2.156067	-12.9614105	-1.9911499
1493856600934	-0.28556824	-11.868149	-0.11495972
1493856600956	4.205246	-9.860886	-1.3008423
1493856600976	1.5041656	-8.9518585	-0.14863586
1493856600995	0.32795715	-7.241501	1.4561462
1493856601015	0.835968	-5.7883453	2.5816803
1493856601036	0.36384583	-4.0511017	3.2374268
1493856601054	-1.1427307	-2.9364166	3.751068
1493856601074	-2.4092255	-2.9138947	3.4418793
1493856601096	-2.4602814	-3.3405914	2.7722778
1493856601114	-2.1845856	-3.9872437	1.4523926
1493856601133	-1.7885895	-4.903351	-0.23242188
1493856601155	-2.0350647	-7.3363953	-3.48349
1493856601179	-3.1571198	-12.236832	-9.080521
1493856601191	-4.337143	-16.302155	-13.093338
1493856601214	-5.1417084	-13.572861	-11.338364
1493856601233	-4.9208527	-8.736496	-7.3414917
1493856601251	-4.336029	-8.645203	-4.5537415
1493856601269	-7.056778	-12.139603	-4.7933655
1493856601292	-8.29274	-16.664108	-6.1246185
1493856601310	-5.7615356	-14.54744	-2.0649414
1493856601329	-2.6107788	-7.047119	4.007904
1493856601349	-1.4481201	-3.785797	6.1629333
1493856601371	-1.7878418	-5.8683014	5.006256
1493856601393	0.80885315	-10.110001	6.249466
1493856601409	4.0915375	-13.2252655	7.5036163
1493856601430	4.0749207	-13.852402	3.069931
1493856601450	3.496399	-12.4232025	-1.1758118
1493856601473	1.659195	-11.0265045	-0.8072052
1493856601493	-0.26309204	-10.135468	0.8798065
1493856601512	-1.1055756	-8.854538	0.83044434
1493856601532	-2.342041	-8.132294	-0.3161621
1493856601551	-1.0905151	-8.436386	0.12593079
1493856601570	-0.10606384	-9.777756	-1.137497
1493856601594	1.2415161	-9.340958	-0.620636
1493856601611	2.0342712	-8.6102295	0.5710449
1493856601630	1.8038025	-8.816223	0.50294495
1493856601654	1.3105316	-9.067749	-0.70588684
1493856601669	0.8036194	-8.764221	-1.7558441
1493856601691	0.52282715	-9.599655	-0.058547974
1493856601709	0.37831116	-10.972504	-0.23719788
1493856601728	0.7977295	-10.978241	-0.01914978
1493856601755	1.3075714	-10.794144	-0.7812805
1493856601779	0.90315247	-11.104141	-0.8730774
1493856601787	0.3045807	-11.677322	-1.2314606
1493856601809	1.241394	-11.675278	-1.8732452
1493856601827	3.6555176	-11.322708	0.6766815
1493856601846	2.4046326	-11.807892	-1.0200958
1493856601866	3.1036835	-12.701904	-1.0333862
1493856601887	4.007065	-14.18692	-1.2515411
1493856601909	3.536728	-13.174149	-2.4494476
1493856601948	-0.08848572	-11.590225	-2.1983185
1493856601972	-2.827896	-9.9449005	-0.3161316
1493856601972	-3.24086	-11.296005	2.6665955
1493856602009	-4.952057	-14.244217	4.2727356
1493856602027	-8.41391	-17.161163	2.084732
1493856602049	-6.8841705	-15.249893	-0.7629852
1493856602066	-3.1257324	-12.663391	-1.5479431
1493856602088	-1.167984	-11.664703	0.8090973
1493856602109	3.8152008	-10.472351	4.0490723
1493856602126	2.0642548	-10.1298065	0.2319336
1493856602148	1.8773346	-8.412201	1.5438995
1493856602167	1.3109283	-6.4593964	2.065277
1493856602187	0.6838074	-4.72966	2.2556915
1493856602203	-0.32254028	-3.1620789	2.7295074
1493856602226	-1.8798523	-2.6716309	2.6641083
1493856602247	-2.3426056	-2.8649292	2.6378326
1493856602264	-2.3964386	-3.3153381	1.4619446
1493856602286	-2.1074371	-3.7778625	0.29551697
1493856602306	-1.9865417	-5.8098145	-1.8210907
1493856602322	-2.8859863	-10.224152	-6.746628
1493856602342	-4.2039185	-16.027466	-13.089905
1493856602362	-5.4361877	-17.829697	-14.347305
1493856602383	-4.9424896	-12.887924	-9.052673
1493856602407	-3.995346	-9.393173	-4.452118
1493856602424	-4.0678253	-6.8376007	-3.769226
1493856602441	-5.492279	-6.043869	-4.164566
1493856602463	-6.224472	-10.039291	-2.2887878
1493856602484	-5.0886536	-14.253204	-0.11087036
1493856602506	-3.0841675	-13.889114	1.914566
1493856602523	0.28845215	-9.393295	3.783249
1493856602543	0.6161041	-7.3732758	5.9068604
1493856602565	1.7755585	-8.676254	6.800522
1493856602587	3.026001	-10.723923	6.1737213
1493856602605	2.1004486	-12.181961	2.1650085
1493856602624	2.709137	-12.517471	-0.9951782
1493856602642	2.4444885	-12.133881	-0.26049805
1493856602664	-0.175354	-10.17868	0.3049469
1493856602683	-1.752182	-8.103683	-0.11065674
1493856602703	-1.9802856	-7.7579803	-0.5874939
1493856602723	-2.350418	-8.618988	-1.0975647
1493856602738	-0.6903229	-8.928116	0.7008209
1493856602764	1.7338257	-9.444046	0.9117584
1493856602781	2.3320618	-9.548218	0.4850006
1493856602801	1.5595398	-9.182739	-0.43278503
1493856602823	0.82192993	-9.03833	-1.8970795
1493856602839	0.7574005	-9.495758	-0.817749
1493856602859	0.8048401	-10.428101	0.022476196
1493856602878	1.0904541	-10.623001	-0.41711426
1493856602901	0.90740967	-10.547043	-0.7568512
1493856602920	0.26771545	-10.797958	-0.54351807
1493856602938	-0.063446045	-11.222168	-0.56336975
1493856602960	1.0810089	-11.163666	-1.2678986
1493856602979	3.1290894	-11.107239	-0.008071899
1493856603003	2.9434967	-11.348907	0.23587036
1493856603022	2.2908325	-12.346405	-1.1456757
1493856603039	3.2123413	-13.791214	-1.1102142
1493856603060	3.634079	-13.320038	-2.0260468
1493856603078	1.9906464	-12.328857	-2.8023376
1493856603102	-1.1463623	-11.0186	-1.991745
1493856603121	-2.3700104	-11.000931	0.85731506
1493856603141	-3.7373047	-12.712891	3.220047
1493856603162	-5.714859	-14.80069	3.3134003
1493856603180	-6.580612	-15.830521	0.79389954
1493856603199	-3.7768555	-14.527344	-1.6840973
1493856603222	-2.490219	-12.499435	-1.3834076
1493856603242	0.80296326	-11.384872	2.6496735
1493856603261	4.027939	-10.749619	-0.44688416
1493856603290	2.4558716	-9.515091	1.6465149
1493856603298	1.9922943	-8.145706	0.5821533
1493856603335	0.84558105	-6.1874847	2.54187
1493856603355	-0.013946533	-4.5874786	2.3064423
1493856603375	-0.57037354	-2.904541	2.9474487
1493856603396	-1.7843933	-3.112732	3.0111237
1493856603414	-2.5664825	-3.3288116	2.926941
1493856603434	-2.8048248	-3.7111816	1.6016235
1493856603454	-2.675537	-4.4397736	-0.11528015
1493856603475	-3.1206055	-6.041275	-1.2754211
1493856603494	-3.546875	-9.602112	-3.6248474
1493856603514	-4.0364227	-15.159897	-10.068985
1493856603534	-3.9928436	-18.618683	-14.448013
1493856603553	-4.1732025	-12.899719	-10.916809
1493856603572	-3.0805206	-8.967468	-6.447937
1493856603591	-2.4091644	-7.764923	-4.380142
1493856603611	-3.968216	-7.498352	-4.4088593
1493856603631	-5.8079376	-10.437195	-4.4577484
1493856603651	-6.0109863	-13.94162	-2.3762512
1493856603674	-3.569748	-12.321259	1.546524
1493856603693	-2.2152252	-9.208191	4.0365753
1493856603714	-1.8970184	-7.1103516	4.620529
1493856603734	-1.1553955	-7.799408	4.3648834
1493856603750	1.8331604	-9.925415	6.3055115
1493856603774	3.6661072	-11.772797	5.0610046
1493856603791	3.053131	-11.934921	1.2587585
1493856603813	3.1985474	-11.714325	-0.63108826
1493856603832	2.3001862	-10.988358	-0.012802124
1493856603850	-0.7161865	-9.3164215	-0.10595703
1493856603871	-2.2548676	-7.8513336	-0.90159607
1493856603891	-1.9717407	-8.276215	-0.35990906
1493856603913	-1.6516418	-9.424484	-0.34561157
1493856603933	-0.91482544	-9.412781	0.36621094
1493856603952	0.31715393	-9.258835	0.6472931
1493856603972	1.661972	-9.424072	0.11444092
1493856603992	2.0897827	-9.433777	-0.5627594
1493856604012	1.7167053	-9.444534	-1.7408752
1493856604031	1.5250854	-9.771606	-0.8379669
1493856604053	1.4433899	-10.094345	0.03855896
1493856604072	0.90031433	-9.761566	-0.15885925
1493856604092	0.053726196	-10.248718	0.035079956
1493856604114	-0.3209839	-11.454269	0.48994446
1493856604132	0.4153595	-11.848801	-0.7675781
1493856604151	2.7333832	-11.378891	-1.161087
1493856604171	4.0112915	-10.916092	0.77575684
1493856604192	2.260376	-11.095505	-0.49269104
1493856604209	2.1343231	-12.147598	-1.6960907
1493856604232	2.9651642	-13.355301	-2.407898
1493856604253	3.050583	-13.078217	-2.9175262
1493856604274	0.8144531	-11.960693	-2.1908722
1493856604291	-1.8650208	-11.064392	-0.7118683
1493856604307	-3.3390808	-11.959473	2.437851
1493856604327	-5.1773987	-14.177307	3.744522
1493856604347	-7.2256927	-15.796356	2.0075378
1493856604368	-6.0647736	-15.839615	-0.7459564
1493856604387	-3.745346	-13.136475	-2.0858917
1493856604409	-1.8171387	-11.620514	0.12545776
1493856604427	3.2375488	-10.170959	0.47143555
1493856604447	3.1723785	-9.536697	0.5985718
1493856604467	1.0404053	-8.743195	0.88420105
1493856604487	0.53100586	-6.5988617	1.5662384
1493856604511	0.38946533	-4.487442	2.1248474
1493856604530	-0.14518738	-2.8843231	2.5128326
1493856604549	-1.1530304	-2.6026611	2.3988037
1493856604571	-1.805893	-2.8852692	2.574463
1493856604588	-2.2589417	-3.6937714	1.7931061
1493856604609	-1.8664703	-4.6668243	0.39648438
1493856604628	-1.9478607	-5.8880005	-1.0345764
1493856604650	-2.940857	-8.920578	-3.6821136
1493856604668	-4.269806	-15.835098	-12.010529
1493856604687	-3.7050476	-19.417084	-15.523056
1493856604709	-4.0311737	-12.428329	-11.079742
1493856604746	-4.035141	-7.565796	-5.6986847
1493856604767	-2.8525543	-7.0408783	-2.8699799
1493856604785	-2.9760284	-6.8026276	-3.1312714
1493856604805	-5.3117523	-11.315887	-2.5974884
1493856604832	-5.6139526	-13.833389	-2.0712128
1493856604844	-4.3031464	-13.066116	-0.7814636
1493856604864	-0.23724365	-9.075272	2.6929474
1493856604883	-0.8336792	-6.4282837	4.414154
1493856604904	-0.7796631	-7.6867523	4.8217773
1493856604925	2.749115	-10.549057	5.56929
1493856604945	4.095749	-12.577087	3.4222412
1493856604965	3.8617249	-12.843918	-0.22106934
1493856604984	4.02063	-12.138031	-1.2220459
1493856605006	0.69592285	-10.818375	-0.23675537
1493856605025	-2.2005615	-9.031586	0.44177246
1493856605046	-3.2404327	-7.9208984	-0.38031006
1493856605067	-2.6582947	-8.328003	0.6395111
1493856605085	-2.248886	-9.451935	-0.2511139
1493856605106	-0.82710266	-9.113861	0.6608734
1493856605127	0.71507263	-9.13652	0.59532166
1493856605143	1.5262299	-9.064041	-0.16288757
1493856605165	1.1339874	-9.388031	-0.15037537
1493856605185	0.76690674	-9.372635	-0.71725464
1493856605204	0.6075897	-9.269318	-0.84661865
1493856605225	1.0736847	-9.643402	-1.475174
1493856605245	1.8217926	-9.983139	-2.2017517
1493856605264	2.0787048	-10.272903	-2.493225
1493856605281	1.8753204	-10.959579	-1.6778259
1493856605303	1.4690552	-11.767227	-0.7289734
1493856605331	1.3826141	-11.678757	-1.2129974
1493856605342	0.9520111	-11.044891	-2.0267944
1493856605360	0.65322876	-10.761765	-2.6218262
1493856605380	1.966919	-11.486649	-2.8838348
1493856605399	4.0478516	-12.485962	-2.0563812
1493856605422	3.7265625	-12.331436	-3.053238
1493856605440	0.14648438	-12.220291	-2.9391174
1493856605462	-1.97435	-12.280487	1.1501007
1493856605481	-2.824295	-13.192001	5.185547
1493856605500	-3.877182	-14.889572	5.0427094
1493856605524	-2.7424927	-15.0829315	1.0834961
1493856605542	-1.185669	-13.751892	-1.1097107
1493856605561	-0.8164215	-12.124985	0.029678345
1493856605581	-0.5081787	-10.429932	2.2639923
1493856605601	0.14494324	-9.463135	2.098816
1493856605623	1.1319427	-8.524475	1.0088806
1493856605642	0.38572693	-8.420029	1.3760986
1493856605662	-0.18507385	-7.931366	2.4070892
1493856605683	-0.21746826	-6.4421997	3.1295624
1493856605702	-1.0175781	-4.8481445	2.9610596
1493856605720	-0.95632935	-4.147995	1.9476776
1493856605741	0.2644806	-4.496292	1.5381012
1493856605758	0.6110687	-5.1227417	1.7073212
1493856605779	-1.1667938	-7.3205414	0.52653503
1493856605798	0.72387695	-12.171738	-7.9565277
1493856605827	2.8208313	-18.243515	-13.632141
1493856605837	-1.9703369	-14.5707855	6.219513
1493856605856	-6.6829376	-7.8645782	7.881317
1493856605877	-8.810867	-8.090836	2.77388
1493856605897	-8.419876	-6.9469757	-2.7112122
1493856605920	-3.445282	-10.366043	-7.1695404
1493856605938	15.645233	-18.453873	2.8451843
1493856605958	7.6750793	-17.037018	-5.4184723
1493856605980	0.59080505	-7.5925903	-0.010543823
1493856605999	0.609848	-7.3044586	3.1050873
1493856606018	0.19329834	-8.978897	2.0967102
1493856606038	-0.73864746	-10.412979	1.1164856
1493856606057	-2.066101	-10.403961	0.88331604
1493856606079	-2.8135376	-9.542007	1.8827667
1493856606098	-3.8434753	-9.016083	0.5816345
1493856606138	-4.583145	-8.545044	-0.14562988
1493856606139	-3.8510742	-8.224319	-0.04801941
1493856606157	-2.3329926	-8.4652405	0.24549866
1493856606198	-1.5389252	-8.886993	0.9191284
1493856606221	-1.1206512	-9.502853	1.2373505
1493856606238	-0.394516	-9.924805	1.3190613
1493856606256	0.68714905	-9.7595215	0.9871521
1493856606274	0.6694641	-9.82045	1.497406
1493856606295	0.25694275	-10.462402	1.8408203
1493856606325	-0.05293274	-10.604599	1.1291046
1493856606333	-0.3701477	-10.362015	0.57785034
1493856606353	-0.42063904	-10.797577	0.4698944
1493856606373	-0.2654419	-11.205414	-0.477005
1493856606392	0.09957886	-11.262894	-1.3437958
1493856606412	0.4552765	-11.481888	-2.2557526
1493856606432	1.022522	-11.711334	-3.1129303
1493856606453	1.052185	-13.17482	-3.6381989
1493856606473	-0.10760498	-14.427383	-4.103409
1493856606495	0.35853577	-12.440308	-3.994461
1493856606516	0.77449036	-10.535568	-3.6386108
1493856606537	0.6789551	-9.408386	-2.475586
1493856606552	0.30763245	-11.085403	-0.9479828
1493856606572	0.48020935	-14.005264	1.4225006
1493856606592	2.133072	-13.548111	1.8920898
1493856606612	2.4658203	-11.7460785	2.5945435
1493856606634	1.0881805	-11.634628	3.4558716
1493856606653	-1.2672577	-12.017029	2.2262573
1493856606673	-2.8367004	-11.578537	0.11262512
1493856606692	-1.0719757	-11.074356	-1.0522919
1493856606714	1.001831	-10.87207	-1.055191
1493856606732	-0.37147522	-9.697464	0.28146362
1493856606754	-1.6426849	-7.5697784	1.1964569
1493856606772	-1.519455	-6.87764	1.249466
1493856606792	-0.7825165	-6.598648	1.7375488
1493856606808	-1.1928558	-6.7705383	1.6825104
1493856606830	-2.2581177	-6.2321167	1.20401
1493856606849	-2.777893	-5.320648	0.544754
1493856606869	-2.8598633	-4.6777344	-0.28303528
1493856606889	-2.7714996	-5.060013	-2.1462555
1493856606912	-2.6153717	-7.3096313	-5.796997
1493856606933	-3.3684235	-10.052704	-8.714462
1493856606950	-4.5787354	-10.495804	-7.729492
1493856606969	-4.456772	-9.231094	-6.036316
1493856606992	-3.8368073	-8.7535095	-5.683014
1493856607012	-3.9711456	-8.698227	-5.634308
1493856607034	-7.242096	-10.058884	-6.455719
1493856607051	-9.236435	-16.461853	-7.493744
1493856607069	-6.70578	-17.647552	-2.0713348
1493856607091	-1.9893188	-7.4889984	5.2653503
1493856607109	-3.3767395	-2.9275055	4.669876
1493856607129	-4.8732605	-5.751465	1.9149933
1493856607150	-2.144699	-9.204071	7.838394
1493856607169	0.7540741	-11.929962	7.1465607
1493856607193	3.409912	-14.066864	0.54211426
1493856607208	3.4911957	-13.120697	-0.7309723
1493856607230	3.1800537	-10.9166565	0.025024414
1493856607252	2.832672	-10.3220215	-0.02670288
1493856607270	0.493927	-9.754211	0.0033416748
1493856607286	0.033111572	-7.5131683	0.20199585
1493856607310	-0.24057007	-7.7909546	-1.1240082
1493856607326	-0.59124756	-9.314545	-1.0643463
1493856607346	-0.81277466	-9.653366	-2.137558
1493856607365	0.08277893	-8.797714	-1.947525
1493856607386	-0.20689392	-8.078415	-0.17932129
1493856607406	-0.5738373	-8.05896	0.86868286
1493856607427	1.1322327	-8.548401	0.30552673
1493856607445	0.3731079	-8.812286	2.3383942
1493856607466	-0.2886963	-9.791611	0.20147705
1493856607489	0.30793762	-11.03624	-0.72395325
1493856607528	1.5522614	-12.496033	-1.5027313
1493856607549	2.71492	-14.098297	-3.1987762
1493856607551	2.294403	-13.878571	-2.6128845
1493856607588	1.4146881	-12.4761505	-2.1853027
1493856607607	2.476822	-12.163162	-1.84198
1493856607625	3.9111176	-11.902435	-3.5943909
1493856607647	4.8599854	-12.99115	-1.5142059
1493856607667	4.919525	-14.12291	-1.7517242
1493856607686	2.0980682	-11.800949	-0.596756
1493856607706	-1.8195648	-10.558411	-0.8639374
1493856607727	-3.0829773	-12.070862	3.3000336
1493856607747	-3.2250824	-15.245728	4.05365
1493856607766	-5.856674	-16.548248	2.4722443
1493856607787	-6.1152954	-15.489151	-0.3396759
1493856607807	-3.9464264	-13.25264	-1.2061005
1493856607822	-3.0608368	-12.224579	-0.044006348
1493856607842	-0.69052124	-10.807114	0.41090393
1493856607861	4.182251	-8.747696	-1.7805481
1493856607882	2.124176	-8.055832	1.6178436
1493856607902	0.908905	-5.946289	2.4287262
1493856607923	1.2210846	-3.658554	3.1066895
1493856607945	-0.35528564	-2.798767	3.6965942
1493856607965	-2.034607	-2.0676575	3.8287811
1493856607983	-2.2471619	-2.2250824	3.1862183
1493856608005	-2.2063751	-3.0065002	2.3190918
1493856608023	-1.7285309	-3.6925354	0.9869232
1493856608045	-1.458664	-6.1326904	-1.5729828
1493856608064	-2.3235016	-11.672943	-8.084091
1493856608084	-3.23172	-17.84497	-15.603424
1493856608104	-4.0265503	-15.986542	-14.688858
1493856608124	-4.0121613	-9.497284	-8.757599
1493856608144	-3.6203308	-7.6919556	-4.8924866
1493856608163	-6.1420135	-10.28949	-4.372925
1493856608183	-7.4963074	-15.34169	-4.9847717
1493856608203	-5.5705566	-15.708237	-1.1097412
1493856608225	-1.8833008	-8.418152	5.25029
1493856608243	-0.4363556	-4.5155945	8.051788
1493856608262	-2.6735535	-7.3798523	6.4722137
1493856608279	0.23443604	-10.619934	7.328003
1493856608304	3.357956	-12.965576	7.5279694
1493856608318	3.924942	-13.70488	1.1413574
1493856608339	3.339264	-12.746017	-2.5893707
1493856608358	2.4910278	-11.698502	-0.27226257
1493856608378	-0.2639923	-9.975555	-0.14303589
1493856608398	-1.294281	-8.1675415	-0.34983826
1493856608418	-0.94137573	-7.3805237	-0.19364929
1493856608438	-1.1270599	-8.915268	-0.55747986
1493856608456	0.29595947	-9.899963	-0.43370056
1493856608477	1.0752563	-8.866547	-0.6272888
1493856608497	0.8553467	-7.6375275	0.68540955
1493856608516	0.30656433	-8.062729	-0.081970215
1493856608537	-0.021621704	-8.59639	-1.870697
1493856608556	0.6843262	-9.566071	-0.20478821
1493856608576	1.7243652	-10.7660675	0.18315125
1493856608596	2.5923157	-10.72731	-1.1052704
1493856608615	3.4088593	-11.815323	-1.0310364
1493856608638	2.1946716	-12.62915	-1.1575928
1493856608655	1.7772675	-12.588089	-1.4036865
1493856608677	3.2347412	-12.475159	-1.5026245
1493856608696	3.1671753	-12.446686	-2.8710785
1493856608714	4.2384644	-12.558121	-2.13797
1493856608743	4.7718964	-13.797211	-2.2429657
1493856608760	3.3986511	-12.976227	-1.9474945
1493856608779	-0.89808655	-11.674744	-2.3844147
1493856608797	-3.3282166	-11.200714	0.5753174
1493856608822	-3.9007263	-13.706451	4.379486
1493856608837	-5.35083	-16.448914	4.1415863
1493856608855	-8.02533	-17.250397	0.15979004
1493856608874	-4.503235	-14.034607	-1.8009949
1493856608914	-2.1248016	-12.274353	-1.4074249
1493856608938	-0.3848877	-11.745468	2.1131287
1493856608938	2.7962036	-10.511993	-3.6149902
1493856608975	0.9365082	-8.550262	1.9837799
1493856608993	1.4509888	-6.0125885	2.4079285
1493856609014	0.9754181	-4.799774	2.697525
1493856609035	1.0187836	-3.1180573	3.7177124
1493856609055	-0.8056183	-2.0007477	3.5055847
1493856609074	-2.1793823	-1.9968872	3.7030945
1493856609095	-2.4394836	-2.874115	2.6997833
1493856609115	-2.2545166	-3.5391693	1.3974457
1493856609136	-2.062973	-4.686737	-0.27427673
1493856609157	-2.2627869	-8.344818	-3.9408875
1493856609174	-3.0928955	-15.068726	-12.054901
1493856609196	-4.499893	-18.2072	-14.745834
1493856609214	-5.4176636	-12.870056	-11.692871
1493856609236	-4.1969604	-9.521622	-7.0140533
1493856609256	-4.1176147	-9.853775	-4.7201996
1493856609273	-6.072296	-10.766586	-5.0404053
1493856609294	-6.682373	-14.459702	-3.6783447
1493856609319	-4.6739044	-11.830032	0.65293884
1493856609333	-2.7630005	-7.8581085	3.8771515
1493856609351	-0.8270416	-5.852173	6.393158
1493856609373	-1.2915955	-8.206284	6.293213
1493856609391	1.3115082	-10.599915	6.2881775
1493856609411	3.5495148	-12.077606	5.8907013
1493856609432	3.343155	-12.333176	1.616333
1493856609451	3.2587738	-12.172745	-1.1631317
1493856609472	2.6386566	-11.846115	-0.008728027
1493856609490	1.2328949	-10.306824	0.7823639
1493856609514	-0.20979309	-8.574158	0.13090515
1493856609534	-0.48060608	-8.241379	-0.16229248
1493856609554	-0.9719696	-8.939743	-0.7531891
1493856609577	-0.6913452	-9.310776	-0.09649658
1493856609589	-0.21765137	-8.738922	0.72410583
1493856609611	0.41194153	-8.202332	1.1057129
1493856609628	0.70176697	-8.327866	0.71980286
1493856609652	1.0360565	-8.646408	-1.1039429
1493856609670	1.084732	-9.22818	-1.6356506
1493856609689	1.2326813	-10.345459	-0.8683624
1493856609711	1.459198	-11.107315	-0.33807373
1493856609730	1.4766235	-11.367935	-0.28961182
1493856609753	1.2823792	-11.934845	-0.55688477
1493856609772	2.1738434	-11.644028	0.18673706
1493856609791	3.1449738	-11.049118	-0.37371826
1493856609817	2.406311	-11.263779	-1.233429
1493856609827	2.7234802	-11.694031	-1.886795
1493856609848	4.178192	-12.924255	-1.1073303
1493856609867	4.1210175	-14.082504	-1.9759979
1493856609885	1.7211456	-13.307083	-2.673996
1493856609907	-1.5558167	-11.392609	-2.0328522
1493856609928	-2.8267822	-11.697556	2.0326843
1493856609951	-3.4663544	-13.854553	4.2269135
1493856609972	-5.818695	-16.16951	2.777359
1493856609988	-6.17865	-16.98375	-0.38319397
1493856610009	-4.045059	-14.951874	-1.3186188
1493856610029	-2.9434204	-12.980576	-1.036087
1493856610049	-2.479782	-11.758408	1.1620331
1493856610069	2.9890137	-9.665054	-0.36802673
1493856610088	2.0680847	-9.259476	-0.21191406
1493856610112	1.9405212	-7.5816193	2.012619
1493856610131	2.0843506	-5.443054	2.776657
1493856610149	0.6275177	-3.5762024	3.9034576
1493856610169	-1.0537109	-1.8838348	3.5856323
1493856610189	-2.2482147	-1.6737976	3.608612
1493856610209	-2.2449799	-1.9429932	2.4440765
1493856610226	-1.7398987	-2.718872	1.6577911
1493856610248	-1.225708	-3.9463654	0.2937317
1493856610268	-1.714035	-6.58197	-1.5954895
1493856610292	-3.2825012	-12.221313	-8.142746
1493856610333	-5.301117	-19.424606	-14.064697
1493856610344	-5.844986	-17.043335	-14.150009
1493856610363	-4.5447845	-10.659576	-7.786911
1493856610383	-3.061554	-9.177628	-3.5062866
1493856610403	-4.7129364	-7.721695	-4.414963
1493856610423	-7.3310547	-11.755447	-6.58049
1493856610444	-6.536072	-16.832901	-4.001648
1493856610463	-3.1624756	-11.238678	4.5017548
1493856610483	-0.73402405	-5.3925934	5.676407
1493856610501	-1.5288696	-6.175232	7.1743164
1493856610525	-1.0860138	-8.936127	5.833069
1493856610546	3.4388885	-10.98909	7.94928
1493856610562	4.1911316	-12.921417	4.441513
1493856610585	3.5770721	-12.549484	-1.6326752
1493856610601	3.2084656	-11.289352	-1.5011139
1493856610621	2.0390625	-10.231384	1.0845184
1493856610640	-0.2889557	-8.814301	0.38090515
1493856610660	-0.86598206	-7.5189667	0.0022735596
1493856610679	-0.45870972	-8.668076	-0.16905212
1493856610701	-0.5198822	-9.3871	-0.31106567
1493856610721	-0.19161987	-9.539185	-0.5340729
1493856610742	-0.010131836	-8.906555	-0.19085693
1493856610762	0.19889832	-8.082382	0.85513306
1493856610780	0.42904663	-8.223633	0.95910645
1493856610802	0.51693726	-9.081009	0.11500549
1493856610821	1.226059	-10.297256	-0.10748291
1493856610845	2.175064	-10.308075	-0.30082703
1493856610861	2.0089874	-10.315689	-0.68865967
1493856610882	0.8103943	-11.446533	-0.5184479
1493856610900	0.85154724	-12.507309	-0.3898468
1493856610919	2.7449646	-12.737076	-0.41697693
1493856610938	3.401001	-12.518494	-1.188324
1493856610961	3.0859222	-12.36026	-1.9277344
1493856610979	4.329956	-12.841812	-1.5878448
1493856610998	4.7882385	-13.7348175	-1.8939362
1493856611018	3.6759644	-13.5286255	-3.021698
1493856611038	1.2688904	-12.196686	-2.2152405
1493856611062	-1.046402	-11.145004	-0.12150574
1493856611078	-1.881134	-11.871643	3.2985687
1493856611098	-4.228897	-14.559921	4.723053
1493856611119	-6.778412	-16.30243	2.368103
1493856611138	-5.9483337	-15.039078	-0.24604797
1493856611158	-3.9093475	-12.920319	-0.9494324
1493856611178	-4.089859	-11.878204	-0.42341614
1493856611198	-1.0232697	-11.337479	3.9125977
1493856611218	2.0042725	-9.473068	1.5767212
1493856611246	2.5236359	-8.4183655	0.45828247
1493856611257	1.8883667	-6.7855377	1.8427277
1493856611277	0.8289795	-4.9252777	3.0935822
1493856611293	0.016220093	-3.2681732	3.5437164
1493856611314	-1.4475403	-2.6777344	3.4630127
1493856611334	-2.199646	-2.7272186	2.930603
1493856611354	-1.9264679	-3.2312164	1.8979492
1493856611374	-1.4297333	-3.520172	0.92718506
1493856611393	-1.2611542	-5.1587524	-0.31489563
1493856611414	-2.8010712	-9.190292	-4.97435
1493856611437	-4.0133057	-15.873444	-13.091782
1493856611455	-5.2035065	-17.771606	-15.648697
1493856611477	-5.1151276	-11.787094	-10.143509
1493856611495	-4.009842	-8.881668	-3.5259552
1493856611515	-4.8308105	-8.68486	-2.5421753
1493856611534	-6.6601715	-14.801453	-8.12645
1493856611555	-4.6122437	-17.645279	-6.157135
1493856611577	-3.813614	-9.21405	2.0897064
1493856611597	0.13534546	-2.741516	10.71225
1493856611617	-4.1753845	-5.6477203	6.2686157
1493856611636	-2.6916962	-10.246841	5.1237793
1493856611656	2.1048584	-13.095947	8.983826
1493856611695	4.322586	-14.453583	2.812027
1493856611695	4.362152	-13.322449	-3.4651031
1493856611716	1.7913818	-11.024307	0.12063599
1493856611755	1.1967316	-10.534988	1.1614838
1493856611776	0.36431885	-9.056381	1.265274
1493856611795	-0.7066345	-8.117645	0.9935303
1493856611817	-0.41275024	-8.7397	-0.26161194
1493856611843	-0.9329834	-9.8281555	-2.069275
1493856611853	-0.7350006	-9.303619	-0.4381714
1493856611875	0.42793274	-8.507797	-0.41218567
1493856611892	1.0529175	-8.532166	0.08792114
1493856611912	1.1536865	-8.577667	0.62994385
1493856611932	0.7621002	-8.973831	0.011993408
1493856611954	1.2112274	-9.563263	0.18981934
1493856611974	1.0311432	-10.486343	-0.49554443
1493856611993	0.7966614	-11.217377	-1.2285461
1493856612013	1.4620819	-11.20845	-1.1777191
1493856612033	2.129425	-11.355408	-0.9498291
1493856612056	3.0721588	-11.713409	-0.76290894
1493856612074	2.836975	-11.628113	-0.7885437
1493856612092	1.2186279	-11.462967	-1.3063507
1493856612114	1.2413788	-11.535202	-1.9323578
1493856612135	2.9901733	-12.025711	-2.3663025
1493856612153	4.305084	-12.968582	-1.9114838
1493856612174	3.3642426	-12.795288	-1.447937
1493856612194	0.07069397	-12.08783	-0.27796936
1493856612214	-3.2808075	-12.284271	0.804657
1493856612234	-4.7006073	-13.322525	4.5728607
1493856612253	-6.1148834	-15.143631	4.2190247
1493856612274	-6.843399	-15.735672	1.3801575
1493856612293	-5.2339478	-14.803589	-1.1874847
1493856612310	-3.0977783	-13.587875	-1.096756
1493856612344	-1.5148468	-12.60817	1.6398163
1493856612350	1.352417	-11.02887	0.6071625
1493856612372	2.569336	-9.761719	-1.0989685
1493856612389	1.3920135	-7.981018	1.7790985
1493856612407	0.5133209	-5.2207794	3.392868
1493856612429	-0.27693176	-3.201706	3.6039124
1493856612448	-0.91116333	-2.1917572	3.5064697
1493856612473	-1.8127594	-2.0827484	3.262436
1493856612493	-2.131897	-2.488144	2.6561127
1493856612509	-1.9595642	-3.3727112	1.6710968
1493856612532	-1.8023682	-4.6088257	0.9883728
1493856612548	-2.3726196	-7.001343	-0.41127014
1493856612570	-3.4207	-12.291626	-8.537186
1493856612589	-4.3634033	-17.795532	-14.569092
1493856612610	-5.268463	-15.519226	-12.667175
1493856612627	-4.3814087	-10.123184	-8.175598
1493856612647	-3.304535	-8.48941	-4.892746
1493856612668	-4.345688	-8.365372	-4.362961
1493856612687	-5.4218903	-13.343536	-5.494507
1493856612707	-5.037506	-15.293411	-3.947525
1493856612729	-4.2276154	-10.713013	0.28941345
1493856612748	-1.2440796	-5.3706665	5.98674
1493856612769	-1.9722443	-5.161072	6.6136475
1493856612788	-2.818634	-8.380356	4.543503
1493856612807	1.7236328	-10.876511	7.262726
1493856612826	3.6628113	-13.587784	4.4964447
1493856612846	3.422989	-13.417984	-0.9999237
1493856612869	2.7797546	-11.605988	-0.68852234
1493856612885	2.089264	-10.86821	0.8249512
1493856612905	1.8333588	-9.726822	0.69940186
1493856612925	0.7714844	-8.563629	1.2859192
1493856612945	0.29759216	-8.611618	1.3071289
1493856612967	-0.680603	-9.029083	-0.4685974
1493856612987	-1.1780548	-9.328384	0.1892395
1493856613004	-1.1929932	-8.699692	-0.9771118
1493856613025	-0.4712677	-8.508972	-0.14552307
1493856613046	0.7939453	-8.496658	1.315979
1493856613068	1.5609436	-9.098923	0.18890381
1493856613088	1.2561798	-9.94368	-0.48849487
1493856613127	1.8203735	-10.844696	-0.44807434
1493856613147	1.577774	-11.34169	-1.1135864
1493856613166	1.8517456	-10.506546	-0.8278351
1493856613187	1.1615448	-10.965256	0.17712402
1493856613206	1.0790253	-11.384247	0.6592407
1493856613225	2.9161987	-11.603485	-0.6997833
1493856613244	2.7560883	-11.611664	0.14656067
1493856613265	0.5743103	-11.897797	-1.7290344
1493856613286	2.9082184	-12.44429	-2.3181
1493856613306	4.272476	-13.322479	-1.8401947
1493856613324	3.754959	-13.106003	-2.8439026
1493856613345	-0.011016846	-12.102951	-2.0959015
1493856613361	-2.9625397	-11.019577	-0.5681915
1493856613381	-3.77034	-12.108307	3.3365479
1493856613403	-4.868103	-14.616241	3.9964142
1493856613420	-7.0296783	-16.374924	1.9401703
1493856613441	-5.918228	-15.5896	-1.1931152
1493856613461	-3.163147	-13.221634	-1.6653137
1493856613481	-1.3772736	-12.00528	0.56596375
1493856613503	2.7135468	-10.905701	3.2003021
1493856613521	2.8804626	-10.669418	0.17512512
1493856613540	1.6876373	-8.541595	1.5952148
1493856613563	1.0079803	-5.722885	2.0298462
1493856613582	0.3332367	-4.083481	3.6732025
1493856613601	-0.8114166	-2.7138062	3.5363312
1493856613623	-2.061432	-2.1123657	3.3432617
1493856613641	-2.4703064	-2.2570648	2.9056702
1493856613663	-2.4596252	-2.8434143	2.0104523
1493856613684	-2.5539093	-3.8750916	0.65478516
1493856613703	-2.619049	-6.0189514	-1.4947205
1493856613719	-3.0869446	-10.770264	-7.239441
1493856613742	-4.082123	-16.89737	-14.431854
1493856613762	-4.824478	-16.292313	-14.249619
1493856613782	-4.46846	-11.181137	-9.353577
1493856613802	-4.0003357	-9.258591	-4.8993225
1493856613819	-6.2903137	-9.698715	-3.9308624
1493856613840	-7.500763	-13.995514	-5.448944
1493856613860	-5.1982727	-14.69046	-2.040619
1493856613883	-2.9468231	-8.935913	2.5196686
1493856613897	-1.0921631	-4.5893707	5.6111755
1493856613916	-1.6560822	-5.6810303	5.5838623
1493856613937	-0.5171814	-9.396835	5.5424347
1493856613958	2.911621	-12.048279	6.535904
1493856613981	3.8607025	-12.972275	3.1667938
1493856614002	3.1910095	-12.221283	-0.7998352
1493856614022	2.271881	-11.448044	-0.48373413
1493856614039	1.9137115	-11.256012	0.9858093
1493856614056	0.06515503	-9.668274	0.19018555
1493856614083	-0.4721527	-7.7652435	0.6051941
1493856614099	-1.5049286	-8.159103	0.21653748
1493856614118	-1.8445282	-9.1931	-0.6230011
1493856614142	-1.1648712	-9.555817	-0.5128021
1493856614158	-0.17503357	-8.749435	-0.32040405
1493856614180	0.7822113	-8.228943	2.040741
1493856614199	1.2411499	-8.636383	1.355133
1493856614218	0.7187805	-8.609909	-1.1681519
1493856614238	1.3787689	-10.38028	-0.12612915
1493856614258	1.9367828	-11.609512	-1.5571289
1493856614279	2.241455	-11.174805	-2.1620483
1493856614297	2.3770447	-10.184402	-0.32502747
1493856614316	1.0792084	-10.951767	0.28709412
1493856614336	0.9237976	-12.113022	-0.51612854
1493856614356	2.3480377	-12.349609	-0.582901
1493856614375	1.4241943	-11.642593	-1.0010376
1493856614394	1.3570099	-11.557022	-2.1519775
1493856614426	4.798523	-13.706589	-1.1147614
1493856614516	5.5063934	-14.843033	-2.5869293
1493856614516	1.6941833	-12.911682	-2.0470428
1493856614516	-1.9675446	-11.069336	-2.2997742
1493856614516	-2.6842346	-12.046127	2.835495
1493856614554	-3.9335785	-14.555435	4.4091797
1493856614554	-6.529358	-16.63556	2.7107391
1493856614571	-6.639694	-16.6176	-0.015533447
1493856614590	-4.169815	-14.377335	-1.2536926
1493856614611	-2.9620361	-12.883865	-0.29570007
1493856614630	-0.2715149	-11.859238	1.2579651
1493856614651	5.3218384	-9.3806	-0.5296936
1493856614670	2.5871887	-8.617752	2.1851044
1493856614690	1.302948	-6.2448273	2.6057281
1493856614709	1.1439819	-4.276001	3.1941986
1493856614730	-0.31071472	-3.1669006	3.44516
1493856614750	-1.3957825	-2.0420837	3.4039307
1493856614769	-2.2172852	-1.7346039	3.208908
1493856614789	-2.4292755	-2.201355	2.8172302
1493856614809	-2.0818024	-2.6890564	1.7844391
1493856614829	-1.8255463	-4.3685455	0.17504883
1493856614848	-2.4145355	-8.865234	-5.162781
1493856614869	-4.017044	-15.634857	-13.5512085
1493856614889	-5.5970917	-18.164124	-14.9583435
1493856614909	-5.3952484	-13.340088	-11.785721
1493856614928	-4.471344	-9.130783	-5.863983
1493856614948	-3.652542	-7.8812714	-3.0165253
1493856614967	-5.208481	-9.529266	-4.9864807
1493856614989	-5.9440613	-15.41243	-6.72847
1493856615008	-4.016449	-14.952896	-1.4831848
1493856615028	-1.7826843	-8.408997	5.730896
1493856615047	-1.5790558	-4.561798	6.3259125
1493856615066	-2.106186	-6.3152924	5.6940155
1493856615086	0.6168213	-9.337982	6.309311
1493856615106	3.1016693	-12.16304	6.115799
1493856615126	3.7008057	-13.578506	1.1391144
1493856615146	4.3447876	-13.261322	-2.3568573
1493856615166	2.8166046	-11.820602	-5.0354004E-4
1493856615185	-0.491333	-9.446838	1.4921112
1493856615205	-2.3059692	-7.5281525	1.0756226
1493856615225	-2.6724854	-7.3119965	0.061141968
1493856615245	-2.0562134	-8.59465	-0.76808167
1493856615266	-0.16238403	-9.767731	-0.43804932
1493856615285	0.7994385	-9.689209	-0.14305115
1493856615306	0.71961975	-8.821945	0.63009644
1493856615325	0.65374756	-8.558884	0.62698364
1493856615345	0.69117737	-8.806656	-0.3894043
1493856615365	0.99679565	-9.787857	0.061828613
1493856615384	1.4490509	-10.862869	-0.021911621
1493856615404	1.2332458	-10.918472	-1.5177917
1493856619304	0.41641235	-11.679047	-1.2887115
1493856619305	0.42973328	-12.181488	-0.12802124
1493856619305	1.6135559	-12.304565	-0.7653198
1493856619305	3.098175	-11.764862	-0.85002136
1493856619305	2.761963	-11.290863	-1.1616364
1493856619305	3.44812	-11.817871	-1.692749
1493856619306	4.763336	-13.090958	-1.4523773
1493856619306	4.2349854	-13.194733	-2.4803467
1493856619306	0.5112457	-12.224136	-3.1402893
1493856619306	-1.7519836	-10.571259	-1.9269562
1493856619306	-2.03656	-11.268005	1.8908081
1493856619306	-2.8961487	-13.958466	4.4825134
1493856619306	-6.1118317	-16.561447	3.5906372
1493856619307	-6.371277	-16.639954	-0.15219116
1493856619307	-3.702362	-14.060532	-1.3897858
1493856619307	-3.621643	-12.196411	-1.9241791
1493856619307	-1.9484711	-11.679672	3.0223694
1493856619307	2.2525787	-9.708221	-3.33609
1493856619307	1.2216797	-8.718704	1.1269073
1493856619308	1.7309265	-5.95549	1.7892303
1493856619308	1.3218536	-4.660309	2.6661682
1493856619308	0.03578186	-3.6905823	3.274231
1493856619308	-1.6906891	-2.60643	3.5631714
1493856619308	-1.9982452	-2.8404236	3.282074
1493856619308	-2.2588654	-3.4990997	2.0873413
1493856619308	-1.8010712	-3.86911	0.7515106
1493856619309	-1.238678	-4.506439	-0.4234314
1493856619309	-2.2012482	-7.6144257	-4.9700165
1493856619309	-3.444275	-14.699554	-13.266006
1493856619309	-4.041977	-17.723526	-14.508148
1493856619309	-4.481262	-11.340027	-9.875702
1493856619309	-4.4178925	-7.526123	-6.1617737
1493856619310	-4.8112946	-9.078751	-4.664215
1493856619310	-7.8532257	-13.228622	-6.706085
1493856619310	-6.972519	-18.467072	-4.846817
1493856619310	-3.4960022	-11.193298	3.1126862
1493856619310	0.22653198	-2.8029938	7.081711
1493856619310	-1.4685822	-3.5011902	6.938095
1493856619311	-2.123291	-8.428925	5.3152924
1493856619311	2.3789978	-11.8424225	7.5312653
1493856619311	4.123993	-14.412888	5.1167755
1493856619311	3.9443665	-14.041473	-2.1168823
1493856619311	2.7904358	-11.644028	-2.0035706
1493856619311	1.4363403	-10.073196	0.6401062
1493856619311	-0.30769348	-8.940704	1.2058411
1493856619312	-1.3246307	-7.3052216	0.60969543
1493856619312	-1.4382019	-7.8564453	-0.09915161
1493856619312	-0.8627014	-8.965591	-0.35798645
1493856619312	0.1360321	-9.51503	0.12315369
1493856619312	0.3581543	-9.131119	0.58880615
1493856619312	-0.20429993	-8.546158	1.4203796
1493856619313	-0.4693756	-8.660309	0.83462524
1493856619313	-0.4662323	-9.046677	-0.42907715
1493856619320	0.6177063	-10.271454	-0.07789612
1493856619321	1.7427979	-11.017929	-0.34140015
1493856619321	2.1189117	-10.942673	-1.0266876
1493856619321	1.7007446	-11.2339325	-1.121994
1493856619321	1.3749237	-11.640549	-0.8887024
1493856619321	1.7527161	-12.102478	-0.8863373
1493856619322	1.8883209	-11.955444	-1.3795013
1493856619322	2.4038086	-11.714981	-1.5615692
1493856619322	4.1254425	-12.806076	-1.0717468
1493856619322	4.715683	-14.343536	-1.7181549
1493856619322	2.7087555	-13.587433	-2.073349
1493856619322	-0.90405273	-11.866928	-2.6319427
1493856619323	-3.061386	-11.567001	-0.66986084
1493856619323	-3.7331543	-12.937454	2.6742706
1493856619323	-4.9243774	-15.23201	4.239624
1493856619323	-6.2823486	-16.167175	2.2837067
1493856619323	-4.1853333	-14.482925	-0.40830994
1493856619323	-2.36055	-12.749191	-0.9423828
1493856619324	-2.2430573	-11.9991455	1.3539124
1493856619324	0.8352051	-11.0295105	2.5162048
1493856619324	0.47340393	-9.525925	0.30026245
1493856619324	0.5061493	-8.014694	1.7839203
1493856619325	0.7214813	-5.7186584	2.2942657
1493856619325	0.5532532	-3.9610443	2.778473
1493856619325	-0.09423828	-3.1367188	3.4396515
1493856619325	-1.2442474	-2.4590912	3.6364288
1493856619325	-1.9983978	-2.9379272	2.811493
1493856619325	-2.0687256	-3.4473724	1.7323151
1493856619325	-1.4902344	-4.209244	0.7324829
1493856619326	-1.8014374	-7.112152	-3.1026154
1493856619326	-3.1815186	-13.369949	-12.453827
1493856619326	-4.3902435	-18.253113	-14.819794
1493856619326	-5.4906006	-13.43103	-11.103287
1493856619326	-4.9754486	-9.110443	-5.609024
1493856619327	-4.4794464	-8.393326	-3.6231842
1493856619327	-4.671692	-6.3170624	-4.726822
1493856619329	-7.625824	-11.781998	-7.147171
1493856619329	-4.6049194	-15.937119	-3.9092102
1493856619329	-3.7741547	-13.737061	2.2154388
1493856619329	1.2884369	-5.1721954	7.98024
1493856619330	-2.0920715	-5.442734	5.505188
1493856619330	-1.1336365	-8.348679	5.2858276
1493856619330	3.6476288	-11.597336	8.190933
1493856619331	2.860855	-14.06543	4.167816
1493856619331	4.1431274	-13.449341	-3.0359497
1493856619331	2.8298035	-12.060791	-1.5079803
1493856619331	0.6165619	-10.153824	2.1772919
1493856619331	-2.7892303	-8.391846	0.02798462
1493856619331	-2.842392	-6.7757263	-0.50442505
1493856619332	-2.2752686	-7.8958435	-0.81188965
1493856619332	-0.7288971	-9.068451	-0.05267334
1493856619332	1.6295013	-9.404953	0.6963959
1493856619332	1.8709717	-9.443527	-0.6465454
1493856619332	1.1863861	-9.123718	0.33322144
1493856619332	0.37908936	-8.896118	-0.02609253
1493856619333	0.66137695	-8.959747	0.22311401
1493856619333	0.6002197	-9.590637	0.7567444
1493856619335	0.55540466	-10.406128	-0.25405884
1493856619335	1.1505127	-11.098267	-1.4881134
1493856619335	1.494751	-11.880753	-1.1472473
1493856619335	1.1284027	-12.344849	-0.9748993
1493856619336	1.3672028	-12.397797	-1.2204132
1493856619336	2.927475	-12.289871	-1.2101898
1493856619336	4.1393585	-11.9543915	-1.3246918
1493856619336	4.6086273	-12.445816	-1.0508881
1493856619337	4.704956	-13.571472	-0.87927246
1493856619337	2.357544	-13.300827	-2.4516602
1493856619337	-1.1650391	-11.889786	-2.8105469
1493856619337	-3.021286	-11.228378	-0.4786682
1493856619338	-3.261322	-12.175858	2.6657104
1493856619338	-4.6615753	-14.12616	3.8153687
1493856619338	-6.5160217	-15.614151	2.0381927
1493856619338	-5.5802917	-14.735947	-0.37216187
1493856619338	-2.9830322	-12.6800995	-0.707077
1493856619338	-1.8618469	-11.761398	0.14717102
1493856619338	0.6369324	-10.702194	1.0790405
1493856619338	1.2424164	-9.278946	1.46315
1493856619338	0.35334778	-7.894272	1.134552
1493856619338	0.38264465	-5.9779053	1.789444
1493856619338	0.504776	-4.5743713	3.0112152
1493856619338	0.3498993	-3.7763672	3.121704
1493856619338	-0.9109192	-2.9731598	2.9817047
1493856619338	-1.7458649	-2.8273773	2.696869
1493856619338	-1.831253	-3.165207	1.8798218
1493856619338	-1.6140442	-4.220093	0.73417664
1493856619338	-2.035675	-6.796173	-1.5807648
1493856619338	-3.442154	-12.880402	-10.421921
1493856619338	-4.72789	-18.140915	-14.710403
1493856619338	-5.6095123	-13.703766	-11.944504
1493856619338	-5.006729	-8.342789	-7.498001
1493856619338	-4.072815	-8.166153	-4.0697784
1493856619338	-5.7991486	-9.506287	-4.889801
1493856619338	-6.956665	-16.092773	-7.1555634
1493856619338	-4.847183	-15.022461	-2.1977234
1493856619338	-2.0847626	-8.179886	3.9230347
1493856619339	-1.5911713	-3.9416351	7.4882507
1493856619339	-3.2732239	-5.5477448	2.9633026
1493856619339	0.21513367	-9.907181	5.0628357
1493856619339	4.0713196	-12.889923	6.7970886
1493856619339	3.3565369	-13.397354	2.419632
1493856619339	3.7999115	-12.605988	-1.1402588
1493856619339	2.7305298	-12.528336	-1.1117706
1493856619339	-0.124053955	-11.177399	-0.21394348
1493856619339	-1.2129669	-7.9223785	0.62457275
1493856619339	-2.1137085	-7.5083466	0.4490509
1493856619339	-1.8510742	-7.8560944	0.2918396
1493856619339	-2.5535126	-9.0385895	-2.1232147
1493856619339	0.36940002	-8.957764	-0.61976624
1493856619339	-0.03794861	-8.879898	-0.9994507
1493856619339	1.0078735	-8.340363	1.0313263
1493856619339	0.7877655	-8.858704	0.33781433
1493856619339	0.37945557	-8.59761	-0.6921234
1493856619339	-0.099487305	-9.5759735	-0.11407471
1493856619339	-0.19384766	-10.342743	1.1925507
1493856619339	0.6446533	-10.735092	-0.057144165
1493856619339	1.5895691	-11.53215	-0.48980713
1493856619339	1.1035156	-12.055496	-1.3502655
1493856619339	-4.272461E-4	-13.251953	-2.5781097
1493856619339	2.1507416	-13.187881	-1.7598114
1493856619339	3.4249573	-12.49498	-2.0484772
1493856619339	3.6232758	-12.173096	-2.3839874
1493856619339	4.706894	-13.106537	-2.4832916
1493856619339	4.960144	-13.96817	-1.5742035
1493856619339	2.3615723	-12.047821	-1.4092255
1493856619339	-1.535141	-10.629715	-1.3468933
1493856619339	-2.7207184	-11.390778	1.6856842
1493856619339	-2.7897034	-13.700302	4.3681946
1493856619339	-4.46434	-15.456848	3.657013
1493856619339	-5.1027985	-15.441177	0.7093048
1493856619339	-3.968048	-14.21933	-0.92510986
1493856619339	-3.0009918	-12.988144	0.24900818
1493856619339	-2.471115	-11.926575	1.6546936
1493856619339	0.41661072	-10.317825	0.06941223
1493856619339	2.4471588	-8.695114	-1.3481445
1493856619340	1.7041931	-7.406967	1.7594604
1493856619340	1.289154	-5.2192383	2.693451
1493856619348	0.3670044	-3.2761993	3.6666412
1493856619368	-0.8171692	-2.1366272	3.8026123
1493856619387	-1.7975006	-2.193863	3.6080322
1493856619408	-2.218521	-2.7566528	2.8158875
1493856619432	-2.0487976	-3.7689362	1.5210266
1493856619452	-2.1319275	-5.639633	-0.18017578
1493856619467	-3.7082977	-10.039429	-5.173233
1493856619491	-4.7854156	-16.477142	-12.018829
1493856619511	-4.2547913	-16.647476	-13.699402
1493856619528	-3.7430267	-10.748032	-9.748367
1493856619547	-2.9705505	-8.066879	-5.2044525
1493856619570	-2.3766632	-8.004593	-4.225464
1493856619587	-2.9371185	-6.9217834	-6.224716
1493856619607	-6.0283813	-12.3094635	-6.766861
1493856619631	-5.979294	-16.644928	-2.516159
1493856625206	-3.6038055	-13.256577	2.8379822
1493856625206	-1.5595703	-6.537964	5.5721436
1493856625206	-2.695938	-5.4559326	5.065674
1493856625206	-0.56666565	-7.7868347	6.2948
1493856625206	3.192627	-11.544113	7.9024506
1493856625206	3.1528473	-13.320816	4.5277557
1493856625206	3.3547974	-13.705185	-0.74227905
1493856625206	4.292389	-12.72084	-0.86354065
1493856625206	0.96876526	-10.48082	0.82984924
1493856625206	-2.121399	-7.9878693	1.0009918
1493856625206	-3.6024933	-6.837311	-0.28701782
1493856625206	-3.767929	-7.693817	-0.40359497
1493856625206	-2.1445007	-8.930298	-0.026153564
1493856625207	0.4970398	-9.746292	0.058761597
1493856625207	1.4644012	-8.990295	1.1125336
1493856625207	0.8520508	-9.097412	0.086639404
1493856625207	0.90270996	-8.374695	-2.0771027
1493856625207	0.98713684	-9.735596	-0.24649048
1493856625207	1.2905884	-11.022949	-0.04069519
1493856625207	1.4051208	-10.999283	-0.7113342
1493856625207	1.9632263	-10.790985	-0.7837219
1493856625207	1.1545258	-11.801361	-0.6593628
1493856625207	-0.022567749	-12.196152	-1.4212799
1493856625207	1.4544678	-12.488953	-1.526474
1493856625207	2.8775024	-11.778961	-1.6050262
1493856625207	2.905838	-11.214355	-1.9978638
1493856625207	4.611267	-13.062225	-0.9809418
1493856625207	5.37973	-14.736786	-1.9827576
1493856625207	2.386734	-12.722214	-1.4493103
1493856625207	-2.4824066	-10.866486	-2.4297638
1493856625207	-3.7343445	-12.154083	1.4325867
1493856625207	-3.4642334	-14.087082	4.8995667
1493856625207	-5.4365845	-15.7586975	3.2789917
1493856625207	-6.0141296	-15.47583	0.29374695
1493856625207	-3.7480774	-13.814178	-0.99069214
1493856625207	-1.9729462	-12.358231	0.09439087
1493856625207	-1.2050171	-11.458862	1.0406342
1493856625207	2.680893	-10.210876	1.9685974
1493856625207	0.5637207	-9.064896	-0.41479492
1493856625207	1.7853088	-6.725479	1.66716
1493856625207	1.4983063	-4.6719055	2.4657745
1493856625208	0.8177948	-3.5435944	3.4583588
1493856625208	-0.3668518	-2.464981	4.101715
1493856625208	-1.7907104	-2.398117	3.7578583
1493856625210	-2.1118927	-2.7370605	3.0784454
1493856625210	-2.0436554	-3.4860382	2.1128845
1493856625210	-2.1990814	-5.1477814	0.15042114
1493856625210	-2.9140778	-9.132935	-5.5662537
1493856625210	-4.3478546	-15.685425	-12.509232
1493856625210	-5.2868805	-17.29573	-13.511017
1493856625210	-5.655411	-11.7304535	-10.8520355
1493856625210	-4.2108	-8.40123	-6.793045
1493856625210	-3.700821	-8.660843	-5.048828
1493856625211	-6.3220673	-11.595032	-6.258133
1493856625211	-7.0481415	-15.542404	-6.3278046
1493856625211	-5.1093903	-12.956619	-0.99676514
1493856625211	-2.4184875	-6.1419983	5.0846405
1493856625211	-1.622406	-3.860077	6.4140625
1493856625211	-2.3101501	-6.9609833	4.9987946
1493856625211	0.87857056	-10.875534	6.2358093
1493856625211	3.0216522	-12.9760895	6.4832153
1493856625211	3.6804657	-13.370865	2.8836823
1493856625211	3.8750305	-13.603378	-0.3232422
1493856625211	2.5375671	-13.074249	-0.7144623
1493856625211	-0.15344238	-10.37146	-0.056732178
1493856625211	-2.0245056	-7.864868	-0.10914612
1493856625211	-2.18898	-7.606079	-0.37217712
1493856625211	-1.7684784	-8.83197	-0.7303009
1493856625211	-0.067108154	-9.283112	-0.15583801
1493856625211	0.43180847	-8.88147	-0.5364685
1493856625212	0.44577026	-8.268814	0.50434875
1493856625212	0.4940338	-8.43898	0.8197937
1493856625212	0.6787567	-8.586945	-0.545105
1493856625212	0.37365723	-9.542679	-0.55737305
1493856625212	0.55693054	-10.258896	-0.08503723
1493856625212	1.248764	-10.0724945	-1.473053
1493856625215	2.1284943	-10.434708	-1.5430603
1493856625215	1.4195862	-11.806534	-0.9570923
1493856625215	-0.57414246	-12.902908	-1.9565735
1493856625215	-0.108444214	-12.732361	-2.0068054
1493856625215	2.2792969	-12.03595	-0.27279663
1493856625215	3.8575287	-11.527725	-1.3595428
1493856625215	5.2845306	-14.18306	-1.2457123
1493856625215	5.3081512	-14.317749	-1.8308716
1493856625215	2.3683624	-11.967468	-2.4604034
1493856625215	-1.5506439	-10.2956085	-2.7250519
1493856625215	-2.092575	-11.779175	0.98150635
1493856625215	-1.4668274	-13.974182	4.277115
1493856625215	-4.006134	-15.921371	4.2099
1493856625215	-5.7084045	-15.920929	1.0457458
1493856625215	-4.2162476	-14.491989	-0.710083
1493856625215	-2.7136078	-12.890305	-0.021133423
1493856625215	-2.4183655	-11.814392	0.91278076
1493856625215	3.6492157	-9.89975	4.7882843
1493856625215	2.6941986	-8.715927	-0.72473145
1493856625216	2.3581696	-7.506607	1.6649628
1493856625216	2.3049316	-5.405472	3.0977783
1493856625216	0.425766	-3.797882	3.9506836
1493856625216	-0.08996582	-2.1028748	4.284561
1493856625216	-1.7221527	-2.104309	4.043625
1493856625216	-2.9757385	-2.2078552	3.2357483
1493856625216	-2.8729553	-3.0126495	1.6765442
1493856625216	-2.5213165	-5.100601	0.21870422
1493856625216	-3.5096283	-8.9691925	-2.2748108
1493856625216	-5.428894	-15.131836	-8.768051
1493856625216	-5.5132294	-18.11377	-14.180145
1493856625216	-4.45076	-13.035263	-11.30545
1493856625216	-2.9845276	-9.698746	-6.37236
1493856625216	-2.8356628	-8.704071	-4.293091
1493856625216	-4.847061	-8.350891	-5.788559
1493856625216	-6.5545197	-11.386826	-5.9823914
1493856625216	-5.3398438	-14.351288	-2.3428497
1493856625216	-2.4045258	-11.639267	2.129654
1493856625216	-1.2182465	-7.4045563	5.533325
1493856625216	-1.6630859	-6.234146	4.6163177
1493856625216	-0.068603516	-8.296661	5.4381866
1493856625216	2.6447906	-11.094009	6.4711
1493856625216	2.4803314	-13.282593	3.70401
1493856625216	2.8575592	-14.330841	0.16783142
1493856625216	3.0648956	-13.484833	-0.9964905
1493856625216	0.7229309	-10.401688	0.052001953
1493856625216	-2.0368805	-7.932083	0.81799316
1493856625216	-2.7813568	-7.29393	0.79304504
1493856625216	-2.641632	-7.764618	-0.10206604
1493856625217	-1.7828674	-8.567215	-0.69221497
1493856625217	-0.014633179	-9.15802	0.2945404
1493856625217	1.1261292	-9.238831	0.93382263
1493856625217	1.259903	-8.987305	0.11097717
1493856625217	0.86242676	-8.515427	-1.5793304
1493856625217	0.3530426	-8.780273	-1.7424927
1493856625217	0.15452576	-9.892471	-0.37721252
1493856625217	0.6301117	-10.106369	0.7544098
1493856625217	1.3430481	-10.255447	0.20909119
1493856625217	1.3999939	-10.927612	-0.42738342
1493856625217	0.72221375	-11.649399	-0.855896
1493856625217	0.96099854	-11.838577	-0.7148285
1493856625217	1.9918823	-12.019836	1.0381775
1493856625217	1.3603516	-12.574539	-0.31987
1493856625217	0.7963562	-12.255432	-2.028305
1493856625217	2.656372	-12.742279	-0.8045807
1493856625217	4.306793	-12.339264	-1.6881561
1493856625217	3.213684	-11.59465	-2.5485992
1493856625217	-0.60910034	-10.944611	-3.11026
1493856625217	-2.3006592	-10.928345	-0.15827942
1493856625217	-2.8893585	-12.093475	2.7418365
1493856625217	-3.4660797	-14.123306	3.8266296
1493856625217	-4.5934296	-15.036819	2.7133636
1493856625217	-4.484024	-14.416275	-0.10177612
1493856625217	-3.381485	-13.4348755	-1.440094
1493856625217	-3.8151093	-12.5256195	0.292511
1493856625217	0.28482056	-10.517654	3.0636597
1493856625217	4.7665405	-8.963852	-1.227066
1493856625217	2.012619	-8.36618	0.61294556
1493856625218	0.052734375	-7.1411285	1.9293671
1493856625218	-0.37095642	-4.168625	1.8235016
1493856625218	-0.7672272	-3.4548645	2.337906
1493856625218	-0.81643677	-3.0249329	2.1659546
1493856625218	-1.3663788	-3.4049072	1.7671967
1493856625218	-2.5610962	-4.3473816	1.176239
1493856625218	-2.4104614	-5.5095215	1.0878754
1493856625218	-1.6915283	-7.2286987	-0.939209
1493856625218	-2.7299042	-10.383682	-5.200012
1493856625218	-3.1219788	-14.649872	-12.556046
1493856625218	-3.9165344	-16.179733	-14.271973
1493856625218	-4.2647247	-8.510101	-8.394028
1493856625218	-2.5194855	-8.684677	-4.6799774
1493856625218	-1.904892	-10.402817	-4.587204
1493856625218	-4.5420227	-10.396072	-4.358612
1493856625219	-4.9931946	-13.152695	-2.8423615
1493856625219	-4.644989	-11.883118	-1.2337646
1493856625219	-1.4395905	-9.936844	1.8242798
1493856625219	0.24778748	-7.0704803	5.6166687
1493856625219	0.54829407	-7.994583	6.99765
1493856625219	0.50509644	-11.187317	5.6692963
1493856625219	0.4120636	-12.638458	3.7881775
1493856625219	0.7395935	-12.508545	2.152588
1493856625219	1.8126221	-12.468445	-0.022384644
1493856625219	2.8709412	-11.720383	-0.7944641
1493856625219	1.3205719	-10.893951	0.40475464
1493856625219	-0.19985962	-9.5252075	0.013641357
1493856625219	-1.3299713	-8.77179	-0.19754028
1493856625219	-1.8453217	-8.446716	-0.46336365
1493856625219	-1.4924164	-7.8239594	-0.877655
1493856625219	-1.6651306	-8.444702	-0.4605713
1493856625219	-1.2013245	-9.43808	1.1893005
1493856625219	0.38671875	-8.642807	0.0069732666
1493856625220	0.09461975	-8.150284	-1.62854
1493856625221	-0.99383545	-8.470428	-0.7279663
1493856625221	-0.51145935	-9.514908	0.31689453
1493856625221	0.1995697	-10.433228	1.0659485
1493856625221	0.8399811	-10.318039	0.041885376
1493856625221	1.3925934	-10.281296	0.04258728
1493856625221	1.3194885	-10.88147	-0.34072876
1493856625221	2.5704803	-9.930954	-0.85902405
1493856625221	2.0376892	-10.869522	-0.30308533
1493856625221	0.09811401	-11.639313	-0.20620728
1493856625222	-1.1990051	-11.039429	-2.832962
1493856625222	-1.9059143	-11.272064	-4.1467743
1493856625222	0.7026062	-15.961761	-2.0411377
1493856625222	1.8742371	-14.028473	2.2167206
1493856625222	-1.4909058	-8.570801	3.1671143
1493856625222	-4.0736847	-8.448303	2.4351501
1493856625222	-4.551758	-10.002609	2.1055908
1493856625222	-3.8835297	-11.762512	3.142746
1493856625222	-2.1676483	-10.475082	2.9455414
1493856625223	-1.197052	-8.712738	2.943039
1493856625223	-2.144226	-9.465363	1.749527
1493856625223	-4.6763306	-9.486679	2.3967133
1493856625223	-6.0094147	-10.59613	2.0526428
1493856625223	-4.448883	-11.161118	0.49372864
1493856625223	-2.3663483	-10.479385	1.1162262
1493856625223	-0.844223	-10.770691	2.9815674
1493856625223	1.0821533	-11.48909	2.6089325
1493856625223	1.0901031	-12.888306	1.7300873
1493856625223	-0.020935059	-13.6896515	0.8982086
1493856625223	0.32678223	-8.543182	1.9885559
1493856625223	-3.8184357	-9.519104	1.7385712
1493856625223	2.4048462	-9.872269	-1.8471832
1493856625223	2.1207886	-10.289886	-4.945404
1493856625223	2.6425018	-12.167847	-2.4556732
1493856625223	1.7689056	-8.642105	-1.5265198
1493856625223	-9.9518585	-18.94629	3.1467743
1493856625223	13.470749	-2.9154205	0.83940125
1493856625223	-2.651474	-12.04071	-1.0666809
1493856625223	-0.97447205	-4.8503113	-1.0895233
1493856625223	1.3267059	-8.1085205	5.3274536
1493856625223	-0.033096313	-11.257523	2.1030426
1493856625223	2.2340393	-14.499313	-1.4123535
1493856625224	4.166397	-13.002563	0.47798157
1493856625224	6.751587	-10.999496	6.168625
1493856625224	15.644821	-11.1258545	-6.1691284
1493856625224	11.955536	-11.404587	9.458923
1493856625224	10.524429	-9.140198	6.257004
1493856625224	8.189072	-8.476349	5.0631256
1493856625224	6.770706	-7.054016	9.163422
1493856625224	6.197647	-5.7652283	12.956665
1493856625224	4.366272	-4.6097107	13.811035
1493856625224	1.0191803	-4.5812836	11.336609
1493856625224	-1.9816895	-3.8748322	9.148544
1493856625225	-4.352768	-3.9271698	7.3426514
1493856625225	-5.3768463	-3.627945	5.9245453
1493856625225	-5.185562	-3.3351898	4.5469666
1493856625225	-4.4284515	-2.542099	3.6533966
1493856625225	-3.8019867	-2.4769135	4.0587006
1493856625225	-3.7797241	-3.2842712	5.699814
1493856625225	-3.2247467	-3.5765686	8.295624
1493856625225	3.0456696	-3.1343384	8.851517
1493856625225	8.890625	-0.19308472	9.315338
1493856625225	-3.752243	-2.079605	9.058441
1493856625225	-5.5895233	-2.8470001	6.4759827
1493856625225	-0.18577576	-0.60494995	1.6728058
1493856625225	5.30748	2.834488	6.9908447
1493856625225	4.6893616	1.3534698	9.011719
1493856625225	3.1888275	0.5200348	10.313751
1493856625225	2.6954803	0.76945496	10.524551
1493856625225	0.69641113	0.5037384	9.507874
1493856625225	-1.1263885	0.34150696	7.96933
1493856625225	-1.6769257	0.7796936	6.972183
1493856625225	-0.25476074	1.6726532	8.040894
1493856625225	1.2504272	1.72435	9.189178
1493856625225	1.3175354	1.6363373	9.037674
1493856625225	0.7477112	1.8523712	9.018341
1493856625225	0.586792	1.9018707	8.992844
1493856625225	0.9332428	1.8821259	9.047821
1493856625225	1.2067108	1.7470398	9.320847
1493856625226	1.8218689	1.6224823	9.805389
1493856625226	1.3256531	2.073059	10.192856
1493856625226	0.4803009	2.075058	10.232071
1493856625226	-0.17315674	1.742569	10.269363
1493856625226	-1.1579742	1.5549927	10.998566
1493856625226	-0.0016784668	1.2285461	10.707153
1493856625226	2.1054382	1.9867401	10.545166
1493856625227	1.0310669	2.4478607	9.62413
1493856625227	-0.5699768	2.8258057	8.956558
1493856625227	-0.9035797	2.85495	9.447327
1493856625227	-1.3559875	2.7201233	10.635529
1493856625227	-0.2412262	2.9086761	10.217834
1493856625227	0.06376648	3.0363922	9.414749
1493856625227	0.3965912	2.578537	8.613449
1493856625227	-0.16828918	2.4646454	8.99231
1493856625227	-0.98869324	2.035431	9.138489
1493856625227	-1.4241943	2.2594452	8.717392
1493856625242	-1.4115753	2.2206573	9.299759
1493856625262	-0.54652405	2.3473206	9.343765
1493856625282	-0.1975708	2.4835968	9.891663
1493856625301	-0.1966095	2.2602386	9.787399
1493856625320	-0.2984314	2.1112823	9.847916
1493856625342	-0.45394897	2.110138	9.877853
1493856625361	-0.22506714	1.9273376	10.099899
1493856625381	-0.4776001	1.8037109	10.207764
1493856625402	-0.60849	1.9212036	9.88472
1493856625423	-0.55552673	2.221115	9.671677
1493856625461	-0.4567566	2.243805	9.2960205
1493856625481	-0.9348297	2.2476044	9.416473
1493856625501	-0.96965027	2.167862	9.403595
1493856625520	-0.82302856	2.3900452	9.733734
1493856625541	-0.62901306	2.0614777	9.602798
1493856625560	-1.0073853	2.1802368	9.7556
1493856625582	-1.0124207	2.3798676	9.327316
1493856625600	-0.84465027	2.3895416	9.322876
1493856625620	-0.90057373	2.4393158	9.288208
1493856625640	-0.8191376	2.4914093	9.377869
1493856625660	-0.6435394	2.3999329	9.414871
1493856625679	-0.46401978	2.237671	9.590637
1493856625699	-0.58447266	2.0421906	9.988342
1493856625719	-0.62190247	1.9336395	10.050079
1493856625739	-0.5660248	1.9668579	9.7868805
1493856625759	-0.53305054	2.0828552	9.6241455
1493856625779	-0.35435486	1.9372101	9.703751
1493856625799	-0.36512756	1.8824921	9.781494
1493856625819	-0.39352417	1.8902435	9.820084
1493856625838	-0.39744568	1.9056702	9.741974
1493856625858	-0.16264343	2.2400513	8.490372
1493856625878	0.1307373	2.793869	6.7947235
1493856625898	-0.6560669	2.5303345	8.4711
1493856625918	-0.78427124	2.8379517	8.139526
1493856625937	-0.7438507	2.5260925	8.641693
1493856625957	-0.38136292	1.8709717	9.9808655
1493856625977	-0.46029663	1.8864899	10.493271
1493856625997	-1.0563049	1.8642426	10.285263
1493856626017	-0.7879181	1.7592316	10.3085785
1493856626037	-0.8930359	2.1155853	9.877396
1493856626061	-0.97875977	2.4784393	9.443771
1493856626076	-0.92378235	2.451126	9.258575
1493856626096	-0.8012848	2.4285126	9.191879
1493856626118	-0.8140869	2.392807	9.323975
1493856626137	-0.78045654	2.3536072	9.441376
1493856626156	-0.69107056	2.3069916	9.422379
1493856626175	-0.6465149	2.2497253	9.520325
1493856626195	-0.5213165	2.167511	9.602661
1493856626215	-0.39814758	2.0641327	9.636505
1493856626235	-0.3630829	2.0044403	9.700165
1493856626255	-0.3849945	2.0147552	9.797104
1493856626275	-0.3547821	1.985321	9.88205
1493856626295	-0.29936218	1.9607697	9.903107
1493856626315	-0.32347107	2.0388794	9.838608
1493856626335	-0.37443542	2.1664124	9.733887
1493856626355	-0.37698364	2.2192688	9.702393
1493856626374	-0.34490967	2.1828918	9.674774
1493856626394	-0.39404297	2.1449585	9.773636
1493856626414	-0.39204407	2.0634918	9.8181
1493856626433	-0.40597534	2.089203	9.741135
1493856626454	-0.4958496	2.1132965	9.782303
1493856626474	-0.48620605	2.1241302	9.712021
1493856626493	-0.55107117	2.0664673	9.804718
1493856626513	-0.50097656	1.9736328	9.826248
1493856626532	-0.49871826	2.02565	9.679382
1493856626553	-0.5181122	2.0802612	9.662033
1493856626573	-0.4880371	2.0830383	9.718353
1493856626593	-0.42884827	2.0998993	9.679092
1493856626614	-0.5009918	2.189087	9.551285
1493856626632	-0.44760132	2.2269287	9.553345
1493856626652	-0.38334656	2.2187805	9.570435
1493856626672	-0.44517517	2.2626343	9.604492
1493856626692	-0.5355072	2.3744354	9.444229
1493856626712	-0.5740814	2.4151917	9.451614
1493856626731	-0.6302185	2.44664	9.493637
1493856626751	-0.7042999	2.4529572	9.532623
1493856626771	-0.8281708	2.5461578	9.580658
1493856626791	-0.910614	2.7238922	9.29155
1493856626830	-0.9452057	2.8313751	9.192154
1493856626851	-0.93330383	2.7924957	9.317535
1493856626870	-1.0687866	2.871811	9.3199005
1493856626890	-1.1221008	2.9241486	9.378769
1493856626910	-1.042038	2.821869	9.299957
1493856626930	-0.9990082	2.7232056	9.628952
1493856626950	-1.0471191	2.8282013	9.57486
1493856626970	-1.0878601	2.9109497	9.375793
1493856626990	-1.0825958	2.9235992	9.415253
1493856627010	-1.0716553	2.9805145	9.319672
1493856627029	-1.1610107	3.0637665	9.149597
1493856627049	-1.2202759	3.1559143	9.14003
1493856627069	-1.1943054	3.2264404	9.090195
1493856627089	-1.1631165	3.1399536	9.262451
1493856627109	-1.1993256	3.11026	9.433334
1493856627129	-1.2449493	3.1296997	9.514847
1493856627148	-1.2663879	3.145584	9.488373
1493856627168	-1.4257965	3.313385	9.539322
1493856627188	-1.6450653	3.5817719	9.451065
1493856627208	-1.2607422	3.351944	8.686218
1493856627228	-1.1667938	3.4548492	8.539093
1493856627248	-1.2628326	3.3913422	8.8324585
1493856627268	-1.3943329	3.3751373	9.191605
1493856627286	-1.5974274	3.4460907	9.389038
