accelerometer_timestamp	accelerometer_x_data	accelerometer_y_data	accelerometer_z_data
1493787064364	-1.6129608	4.3679047	8.950348
1493787064383	-1.634552	4.3352356	8.539215
1493787064404	-1.5748444	4.380081	8.37027
1493787064424	-1.4968109	4.404022	8.533783
1493787064443	-1.4414215	4.4046326	8.55426
1493787064463	-1.3356628	4.443512	8.656982
1493787064483	-1.4297485	4.4052124	8.661423
1493787064502	-1.5813446	4.346817	8.596497
1493787064522	-1.6088562	4.295395	8.58606
1493787064542	-1.606781	4.2678375	8.567978
1493787064562	-1.5818329	4.2896576	8.656403
1493787064582	-1.5351563	4.2793884	8.883179
1493787064602	-1.5122528	4.277527	8.934525
1493787064621	-1.4852295	4.3039246	8.617447
1493787064641	-1.4389191	4.325409	8.425812
1493787064661	-1.4433746	4.2822876	8.508575
1493787064681	-1.4385223	4.275528	8.3927
1493787064701	-1.5195007	4.247223	8.178085
1493787064720	-2.0214539	3.9463348	8.030365
1493787064740	-2.1827087	3.7160797	7.698471
1493787064760	-1.500946	3.8992004	7.6104584
1493787064780	-0.23472595	4.3115234	7.7897186
1493787064800	0.6766968	4.7075653	8.042114
1493787064820	0.58561707	4.5972595	8.068375
1493787064839	0.019363403	4.3289948	7.947693
1493787064859	-0.9703522	3.542328	7.6542664
1493787064879	-0.5187988	3.9371338	7.4878387
1493787064899	0.56492615	3.985794	7.5665894
1493787064919	0.852829	3.8204193	7.9108734
1493787064939	0.9099121	3.4406738	7.796097
1493787064958	1.2839355	3.1909027	6.7540283
1493787064978	1.6032257	2.6414795	5.048401
1493787064998	0.9009094	1.5097046	3.1508484
1493787065018	1.6332703	1.1914063	2.966156
1493787065038	2.92276	0.6897278	3.4886322
1493787065057	4.943527	0.37353516	4.600937
1493787065077	4.770645	-0.11846924	4.428589
1493787065097	4.85054	-0.7268219	3.3384094
1493787065117	6.9140625	-2.3292236	2.3531036
1493787065137	9.340195	-3.9717102	4.4320984
1493787065156	7.9516907	-5.0824585	5.462082
1493787065197	6.980652	-5.4313507	3.923996
1493787065216	8.100464	-5.9009705	4.1777344
1493787065236	8.928238	-5.9864044	4.6299896
1493787065255	10.323074	-5.864441	5.6277924
1493787065275	11.340134	-5.6168976	5.967514
1493787065295	12.23111	-5.8487854	5.6712646
1493787065317	13.020493	-5.6012726	6.35376
1493787065335	14.081314	-5.073532	6.254654
1493787065355	14.590164	-4.6050415	4.8546143
1493787065374	14.869858	-4.3088226	4.10083
1493787065394	15.638641	-3.8814392	3.897644
1493787065415	16.299576	-3.3180237	3.3384857
1493787065434	16.367706	-3.1135406	1.9177094
1493787065454	16.034485	-3.03125	1.2716522
1493787065474	15.253372	-2.9009094	1.015152
1493787065493	13.763519	-3.1183472	0.37638855
1493787065513	12.134888	-3.7537842	0.42518616
1493787065533	11.502457	-4.03537	0.6096802
1493787065553	11.665039	-3.887207	0.574234
1493787065573	11.672546	-3.6988068	0.042541504
1493787065593	11.409317	-3.5849915	-0.85188293
1493787065612	10.7771	-3.9749756	-1.0924988
1493787065632	10.082794	-4.2160187	-1.1304321
1493787065652	9.907379	-3.9063263	-2.152237
1493787065672	8.700363	-3.8940735	-3.7020721
1493787065692	6.0746307	-4.640503	-2.3348083
1493787065712	5.603256	-5.0067596	0.31332397
1493787065731	7.5493317	-3.699112	2.5177307
1493787065751	8.762863	-3.3062744	2.44664
1493787065771	7.2859955	-3.9263153	0.09654236
1493787065791	7.4068604	-3.6766968	0.5172119
1493787065811	7.794449	-3.5922852	1.4375916
1493787065831	8.956528	-3.2943115	4.04158
1493787065850	8.028259	-3.9575958	3.881256
1493787065870	5.783676	-4.331192	1.2245636
1493787065890	5.8635406	-3.6641693	-0.49525452
1493787065910	6.597519	-3.242508	-0.39793396
1493787065930	7.0352173	-3.262268	1.5350342
1493787065950	6.9154663	-3.407837	1.5581207
1493787065969	6.2467194	-3.3998413	1.2888794
1493787065989	5.5245056	-4.539093	1.5519257
1493787066009	5.2246094	-5.328827	0.71591187
1493787066029	5.833252	-5.2591248	0.33454895
1493787066048	7.0174255	-5.1200256	0.026809692
1493787066068	9.049896	-6.1730347	0.78959656
1493787066088	9.812805	-9.124207	3.3868713
1493787066108	9.491821	-10.444519	2.2973175
1493787066128	7.3077393	-9.620911	0.0390625
1493787066148	5.221512	-8.5807495	0.20361328
1493787066167	3.0999298	-4.204193	-2.5647278
1493787066187	9.208008	-7.3404083	-0.5797882
1493787066207	8.895279	-7.702942	4.0893097
1493787066227	-3.417511	-7.207428	0.47294617
1493787066247	2.4804382	-6.873474	1.6733704
1493787066267	4.3162994	-6.589279	5.1530914
1493787066286	3.073639	-7.9360657	1.1049957
1493787066308	4.7993164	-7.9081116	1.1182556
1493787066326	5.966812	-8.5598755	0.25967407
1493787066346	7.261261	-8.837097	0.40164185
1493787066366	5.996933	-10.099503	-1.0349579
1493787066386	5.0717773	-10.131302	0.5589905
1493787066406	7.534073	-8.673599	-0.5211792
1493787066425	8.082123	-8.646408	-0.19247437
1493787066465	-0.103637695	-8.992645	1.262146
1493787066485	-1.3547974	-10.586227	2.152542
1493787066504	3.221222	-7.7450714	1.9851685
1493787066524	4.2716827	-7.597748	0.46897888
1493787066544	3.480606	-7.736847	1.2106018
1493787066564	1.4150848	-6.9115295	0.8752899
1493787066584	-0.27252197	-7.842697	1.6558228
1493787066603	1.4774933	-4.3658447	-1.6091614
1493787066624	1.5678711	-2.8778992	0.740448
1493787066643	0.86828613	-3.1972961	1.9546356
1493787066663	0.043304443	-5.5853577	1.8812256
1493787066683	-0.80229187	-8.913116	2.5943604
1493787066703	2.9452057	-12.69931	5.818878
1493787066723	-1.6616974	-19.474823	2.2094574
1493787066742	-4.965149	-17.462341	-6.8375854
1493787066762	4.5608673	-9.8658905	3.5317383
1493787066782	-3.0101166	-6.977249	-0.960907
1493787066802	-5.2573547	-7.1083374	0.0031585693
1493787066822	-4.4114532	-7.6541595	-0.8313446
1493787066842	-3.3180695	-8.30603	-1.8592834
1493787066861	-1.6178589	-8.772705	-0.5085602
1493787066881	-1.2995148	-9.042191	-0.5599823
1493787066901	-1.9602661	-9.137985	-0.26106262
1493787066921	-3.103363	-8.99147	0.902771
1493787066941	-3.9463196	-9.555557	1.5467987
1493787066960	-4.764694	-10.733475	1.4971161
1493787066980	-4.4595184	-11.0286255	0.92541504
1493787067000	-3.7585144	-11.088181	-0.51148987
1493787067020	-2.5630798	-10.739639	-1.1884766
1493787067040	-1.0669708	-10.70137	-1.2723389
1493787067059	-0.531662	-10.665451	-1.0978394
1493787067079	-1.3109131	-10.225571	-1.0448456
1493787067099	-2.0273743	-9.542404	-0.37797546
1493787067119	-2.2626038	-8.8459015	-0.22471619
1493787067139	-2.7098694	-8.229492	-0.577652
1493787067159	-2.9639893	-7.706421	-0.46098328
1493787067178	-2.95755	-7.3038177	-0.15689087
1493787067198	-3.197937	-7.0643463	-0.1850586
1493787067218	-3.4088593	-6.8771057	-0.4313202
1493787067238	-3.5602112	-6.7756805	-0.70402527
1493787067258	-3.5854034	-6.7225037	-1.1312866
1493787067278	-3.532013	-6.716812	-1.8558655
1493787067299	-3.4885101	-7.0330353	-2.867813
1493787067318	-3.5738068	-7.4590607	-3.6903076
1493787067337	-3.2488098	-8.367325	-4.2682495
1493787067357	-3.154068	-9.144669	-5.053482
1493787067377	-3.4859161	-9.420197	-5.6400757
1493787067397	-3.9244995	-9.470367	-6.1664124
1493787067417	-4.1744843	-9.541702	-6.105484
1493787067436	-4.388214	-9.210327	-5.25354
1493787067456	-4.185501	-8.213165	-4.689026
1493787067476	-4.226166	-6.445923	-3.7222748
1493787067496	-5.8634186	-6.881775	-3.1378326
1493787067517	-8.281906	-11.241531	-2.070404
1493787067536	-9.902527	-14.7933655	-2.694397
1493787067556	-8.408981	-13.886139	-1.7709961
1493787067575	-4.039978	-8.784058	2.0046692
1493787067595	-1.6854858	-5.1428833	5.3547516
1493787067615	-3.1643982	-4.7944336	5.769577
1493787067635	-2.8049316	-5.4939117	4.4540405
1493787067655	-0.4746704	-9.031631	2.428955
1493787067674	3.0806427	-13.983368	0.60650635
1493787067694	3.2978973	-14.305481	-0.10119629
1493787067734	0.76153564	-10.976181	0.8407135
1493787067754	-2.668991	-9.321442	1.3715057
1493787067773	-5.376404	-8.275757	-0.3305664
1493787067794	-4.8269653	-8.481873	0.16786194
1493787067814	-2.5266876	-9.853409	0.374115
1493787067833	-2.471634	-9.781876	-0.11407471
1493787067853	-1.481247	-9.675354	-0.034088135
1493787067873	-1.5659027	-9.613144	-0.7821808
1493787067893	-0.90719604	-9.559326	-0.523407
1493787067913	-0.6280823	-9.415314	0.67549133
1493787067933	-0.70466614	-9.275986	0.7236023
1493787067952	-1.4282379	-9.005173	0.93148804
1493787067972	-2.4755402	-9.116623	0.92204285
1493787067992	-3.556305	-9.193695	0.7921295
1493787068012	-4.110092	-9.0660095	0.29447937
1493787068031	-3.5916138	-9.692886	-0.36564636
1493787068051	-2.3796997	-10.694855	-0.6832733
1493787068071	-1.3428192	-10.967087	-0.5492401
1493787068091	-0.6790619	-10.813904	-0.80700684
1493787068111	0.22572327	-10.793457	-0.82632446
1493787068130	1.7268677	-11.352631	0.41075134
1493787068151	0.5366516	-12.225601	0.79649353
1493787068170	-2.1574554	-12.741852	-0.6204529
1493787068190	-1.756424	-12.132385	-1.4701996
1493787068210	0.53796387	-11.843414	-1.4192352
1493787068230	1.9712219	-12.41774	-1.7086792
1493787068250	0.61491394	-12.639069	-2.7930756
1493787068269	-1.876831	-11.718094	-2.5440674
1493787068289	-3.2726135	-10.207626	-0.81233215
1493787068310	-4.5680237	-9.482025	-0.044692993
1493787068328	-5.721344	-9.992279	1.05867
1493787068349	-6.330948	-11.430374	2.5687103
1493787068369	-6.4560394	-12.224457	2.3602142
1493787068388	-5.4336243	-11.222763	0.86224365
1493787068409	-3.488739	-10.108093	-0.5899658
1493787068428	-2.2115326	-10.238541	-1.2189484
1493787068448	-1.1333008	-10.180435	-0.5739136
1493787068468	-1.1041107	-10.2443695	0.24493408
1493787068488	-2.8640137	-9.968704	0.03895569
1493787068507	-3.4960632	-8.262848	0.48454285
1493787068527	-3.427246	-6.7197266	0.96362305
1493787068548	-3.0034027	-5.7171783	1.1105957
1493787068567	-2.7571716	-5.3503265	1.2239685
1493787068587	-2.8968964	-5.2191315	1.1437378
1493787068607	-3.4282532	-4.925003	0.65193176
1493787068627	-3.966217	-4.5810394	-0.13214111
1493787068647	-4.5596924	-4.446747	-1.1019592
1493787068667	-4.7343597	-5.018112	-2.013733
1493787068687	-4.6631165	-6.9499664	-3.623001
1493787068706	-4.457794	-10.43457	-7.4240875
1493787068726	-4.0766754	-13.12886	-11.100082
1493787068746	-4.2656555	-12.097961	-10.3919525
1493787068766	-4.271469	-9.877182	-7.2261353
1493787068786	-3.650406	-8.63118	-4.442108
1493787068805	-3.6061554	-7.425873	-4.3187866
1493787068826	-6.1375732	-7.23938	-3.3156586
1493787068845	-8.797485	-12.641571	-3.4108887
1493787068865	-8.324844	-14.531296	-0.59303284
1493787068884	-5.0608673	-11.241562	1.9000702
1493787068905	-1.9232025	-6.9958344	4.491745
1493787068925	-2.5958405	-6.4964447	5.173874
1493787068944	-2.023346	-6.8222656	5.6484375
1493787068964	-0.8916626	-9.78595	2.928543
1493787068983	1.1193085	-12.0390625	0.915802
1493787069023	1.5004883	-12.201614	0.092163086
1493787069043	0.15597534	-11.402191	-1.2330933
1493787069063	-2.0206757	-10.020691	-0.5160217
1493787069082	-4.193054	-8.774918	-0.6081238
1493787069103	-4.344803	-8.465103	-0.93666077
1493787069123	-3.2414246	-9.559204	0.26350403
1493787069142	-2.7649078	-9.683365	-0.31619263
1493787069162	-0.51620483	-9.593765	-0.34509277
1493787069182	-0.2876587	-9.842804	-0.74191284
1493787069203	-0.05682373	-9.8745575	-1.5271606
1493787069222	-0.48727417	-9.4392395	-1.1291962
1493787069241	-0.83461	-9.177673	-0.83576965
1493787069261	-1.2698822	-8.925659	-0.5248718
1493787069281	-1.6075745	-8.915268	-0.5118561
1493787069302	-1.4054718	-8.925064	-0.52542114
1493787069321	-1.5208588	-8.953369	-1.0569916
1493787069347	-2.0644531	-9.408417	-1.0003815
1493787069362	-2.078003	-10.31279	-0.66171265
1493787069382	-1.0656586	-10.627762	-0.8076782
1493787069402	0.088272095	-10.864914	-1.3809814
1493787069425	0.37893677	-10.984726	-1.7045441
1493787069441	-0.3605194	-11.100327	-1.9949799
1493787069466	-0.9877014	-11.662308	-2.56221
1493787069484	-0.32833862	-12.652359	-2.9880066
1493787069506	1.1942596	-13.411621	-2.839981
1493787069525	2.1513367	-13.382263	-2.2119446
1493787069547	0.28903198	-12.376633	-0.8947449
1493787069566	-4.4304504	-10.228149	-0.31295776
1493787069585	-7.4252625	-9.413254	0.34326172
1493787069605	-8.231384	-11.232895	2.991684
1493787069624	-6.306717	-12.912064	3.1419983
1493787069655	-2.743805	-12.598526	1.0474701
1493787069660	-0.60842896	-11.127258	-0.65953064
1493787069682	-0.85098267	-10.534973	-1.7546692
1493787069701	-1.9120331	-10.808807	-0.9667816
1493787069720	-2.1391296	-10.785843	-1.042923
1493787069741	-1.5989685	-9.531158	-1.7159729
1493787069761	-1.5455627	-8.453018	-1.60672
1493787069781	-1.9886932	-8.031464	-1.1153259
1493787069803	-3.1078491	-7.74263	-0.43417358
1493787069823	-3.8689575	-7.919647	0.09988403
1493787069847	-4.2696686	-8.056183	-0.46229553
1493787069866	-4.2225647	-7.8576355	-1.7336121
1493787069878	-4.331787	-7.8075256	-2.7310028
1493787069897	-4.1868744	-7.878113	-3.3018494
1493787069917	-4.0394135	-8.055878	-3.4979248
1493787069940	-3.7785187	-7.742981	-3.2400208
1493787069957	-3.5029297	-7.4633484	-3.3330078
1493787069978	-3.3458405	-7.0689697	-3.0485992
1493787069999	-3.8696594	-6.6215515	-3.0660248
1493787070018	-4.7031403	-6.1923523	-3.6156616
1493787070039	-4.7850494	-6.5289307	-3.9498444
1493787070058	-4.8140564	-6.730179	-4.1235657
1493787070077	-4.101944	-6.645233	-3.8512268
1493787070096	-3.765976	-6.121826	-3.5967865
1493787070117	-3.7163544	-5.7134247	-3.382141
1493787070136	-3.7739868	-5.576477	-3.175003
1493787070156	-3.7582397	-5.6987305	-2.8047028
1493787070178	-4.7390137	-5.963196	-2.489334
1493787070196	-5.345764	-6.436035	-2.871109
1493787070216	-5.5468445	-7.278412	-3.2929535
1493787070235	-5.8353577	-7.5856323	-3.6506195
1493787070276	-6.158188	-7.6384277	-3.5796356
1493787070293	-6.1483917	-7.831314	-4.022537
1493787070316	-6.636444	-7.868576	-4.2377014
1493787070338	-6.8155823	-7.2960052	-3.1477509
1493787070356	-6.281952	-6.44812	-2.6605988
1493787070371	-6.3575134	-8.064102	-1.8627167
1493787070391	-7.5232086	-14.412186	-1.0585327
1493787070411	-7.6596985	-17.716644	-5.104828
1493787070431	-3.0563202	-13.609589	-6.7099915
1493787070455	1.8148804	-10.47551	-3.3007355
1493787070472	3.8779755	-7.659546	4.554199
1493787070492	1.441803	-7.0693054	5.4680023
1493787070514	-0.7141266	-8.105499	5.2204437
1493787070532	-1.7398834	-9.837799	1.8576202
1493787070552	-2.2457428	-11.476608	-0.84375
1493787070574	-2.3327332	-12.087479	-1.1851349
1493787070594	-2.796753	-9.997284	2.0452576
1493787070614	-1.1113586	-9.173111	3.4796295
1493787070634	-0.6591034	-9.098251	2.1010132
1493787070652	-0.8703613	-9.513687	-0.14587402
1493787070674	-0.80778503	-10.674408	-0.17658997
1493787070693	-0.18103027	-10.910645	0.9268036
1493787070713	1.6458282	-10.60173	0.24110413
1493787070733	2.9399261	-9.956131	0.033813477
1493787070752	1.9837799	-9.271805	0.9289551
1493787070773	0.021316528	-8.837463	0.3556671
1493787070797	-0.6125488	-9.14357	-1.0957947
1493787070813	-1.1370544	-9.761749	-0.88830566
1493787070830	-1.925766	-9.745285	-0.03236389
1493787070854	-2.6425781	-9.184402	0.74723816
1493787070869	-2.916748	-9.415955	0.5579071
1493787070888	-1.9302368	-10.04512	0.2532959
1493787070908	-0.8584137	-10.688538	-0.038894653
1493787070928	-0.18569946	-11.426331	-0.044387817
1493787070950	0.31732178	-11.766937	0.001953125
1493787070970	0.4795227	-11.856049	-0.12634277
1493787070991	0.12075806	-11.794647	-0.4005432
1493787071010	-0.30464172	-11.714157	-1.1086578
1493787071033	0.5891571	-12.256866	-1.3562317
1493787071052	1.2283173	-12.93158	-1.778717
1493787071072	1.037735	-12.768005	-2.643753
1493787071091	-0.118927	-11.817902	-2.6360168
1493787071113	-2.6567078	-10.158676	-1.4989166
1493787071131	-5.846817	-9.893204	0.06864929
1493787071150	-8.883759	-12.123489	1.916275
1493787071170	-10.4830475	-14.844177	2.5927887
1493787071190	-8.701263	-14.021103	1.4226685
1493787071214	-5.686554	-12.571625	-0.77508545
1493787071230	-2.954956	-12.045959	-1.5819702
1493787071250	0.758255	-11.438889	-0.29415894
1493787071270	0.71543884	-11.775986	-0.39546204
1493787071288	-0.8311157	-9.805176	0.11973572
1493787071307	-1.7770538	-7.4692383	0.3492279
1493787071333	-2.6767578	-5.9564667	1.9191132
1493787071346	-2.4364471	-4.620865	2.274231
1493787071367	-2.1527557	-3.469635	2.279892
1493787071385	-2.5765686	-3.0482635	2.118393
1493787071405	-2.6203766	-2.6930695	1.729126
1493787071424	-1.9886475	-2.8110962	0.6810913
1493787071446	-2.3849792	-3.4140778	-0.9652252
1493787071462	-2.9231415	-4.0367584	-1.9545593
1493787071500	-4.0391846	-5.9619293	-4.1719666
1493787071521	-5.995102	-10.759918	-9.877106
1493787071540	-7.427658	-14.548523	-13.09697
1493787071560	-6.9937744	-14.747971	-12.009766
1493787071584	-5.739151	-10.608551	-7.985733
1493787071603	-3.888214	-8.0346985	-3.9206543
1493787071624	-4.557068	-6.4500427	-4.984894
1493787071643	-7.8656006	-6.1041565	-2.4366913
1493787071662	-10.170166	-10.956329	-3.152649
1493787071681	-9.5477295	-15.875122	-2.4498749
1493787071702	-5.890732	-13.999237	-2.2042542
1493787071722	1.0523987	-6.2223053	8.775574
1493787071742	-0.9298248	-6.4886475	6.185425
1493787071760	0.44226074	-8.110199	7.0263214
1493787071780	0.951416	-10.766144	4.708267
1493787071800	0.60246277	-12.684891	1.3207092
1493787071821	0.40975952	-13.313553	-0.87802124
1493787071841	-0.79156494	-11.911621	-0.5548401
1493787071860	-3.1916656	-9.291748	-0.16438293
1493787071880	-4.69133	-7.6188965	0.41481018
1493787071899	-4.2781525	-7.289795	1.1225739
1493787071919	-4.064804	-8.210159	0.7806549
1493787071942	-2.6277618	-9.300629	0.92129517
1493787071962	-0.15031433	-10.013596	1.64151
1493787071982	1.3591309	-10.055756	1.4230042
1493787072003	0.67207336	-9.879227	-0.51542664
1493787072028	0.31048584	-10.261337	-1.8995361
1493787072043	0.120224	-10.464127	-1.4104309
1493787072065	-0.0736084	-10.315872	-0.3985138
1493787072083	-0.49734497	-9.850662	-0.19351196
1493787072102	-0.85284424	-9.469025	-0.7244415
1493787072123	-2.03096	-9.56427	0.03819275
1493787072142	-2.7638245	-9.594498	0.82058716
1493787072160	-1.871582	-9.750076	0.42634583
1493787072183	-0.46562195	-10.209732	0.87705994
1493787072201	-0.1234436	-10.337784	1.695221
1493787072217	-1.285141	-10.209595	1.5691223
1493787072243	-2.3661804	-10.094116	0.35307312
1493787072260	-2.5033264	-10.0522	-0.76908875
1493787072281	-1.5319977	-10.143723	-1.1535645
1493787072301	-0.24456787	-10.585159	-0.90805054
1493787072319	0.6912689	-12.177795	-0.15635681
1493787072341	1.3751831	-13.524185	-0.36312866
1493787072355	0.644516	-13.293732	-0.94859314
1493787072375	-3.0999146	-10.668167	-1.159729
1493787072395	-5.904587	-9.356934	-0.5823364
1493787072415	-6.0913696	-11.319061	1.6327362
1493787072434	-5.3549805	-13.104721	3.842743
1493787072456	-4.817749	-12.990921	1.9754181
1493787072476	-4.6118317	-11.841339	-0.13574219
1493787072496	-4.741287	-11.084274	-0.30812073
1493787072516	-4.33432	-10.375336	-0.04135132
1493787072540	-4.0410156	-9.770859	0.61309814
1493787072557	-4.327606	-8.955231	0.60647583
1493787072577	-3.2245789	-7.8372955	0.52449036
1493787072597	-1.3304138	-7.2878113	0.49690247
1493787072617	0.11222839	-7.2809143	0.63764954
1493787072637	-0.022766113	-7.4227448	0.6339569
1493787072656	-0.5456238	-6.822693	0.835083
1493787072674	-1.3887177	-6.300644	0.81973267
1493787072696	-2.090454	-5.9636993	0.33638
1493787072715	-1.8046722	-6.507843	-0.4031067
1493787072736	-1.5316467	-7.4834595	-1.2432404
1493787072756	-1.6615143	-9.099884	-2.3731232
1493787072796	-2.4929047	-11.204315	-4.502121
1493787072813	-2.9494019	-12.587204	-6.018738
1493787072834	-2.8039093	-12.131622	-5.2285004
1493787072856	-4.3137665	-11.02446	-3.1319885
1493787072874	-4.532303	-9.292297	-1.1363373
1493787072892	-4.8335266	-8.036484	-0.92518616
1493787072910	-4.1285706	-7.7698517	0.033065796
1493787072930	-4.472946	-8.001846	2.2947998
1493787072953	-4.962204	-8.322556	2.7480164
1493787072974	-4.6264496	-9.290863	3.4553375
1493787072994	-2.897583	-10.333481	3.7758179
1493787073013	-2.9218292	-11.464142	2.4051971
1493787073034	-2.924942	-12.168747	0.9279175
1493787073053	-2.1526794	-11.702072	0.99694824
1493787073073	-1.3854523	-9.962875	0.7314148
1493787073094	-0.98046875	-8.44046	0.6999054
1493787073112	-1.3764038	-8.074142	0.941864
1493787073133	-1.7206421	-8.243347	0.5483551
1493787073152	-1.865097	-8.854691	-0.23356628
1493787073174	-1.9989624	-9.676132	-0.998703
1493787073192	-1.5237274	-10.519516	-1.1271667
1493787073210	-1.8872223	-11.058151	-1.1362
1493787073232	-2.7917328	-11.380417	-1.3002014
1493787073253	-3.1330261	-10.969711	-1.3929749
1493787073272	-2.8771973	-10.176224	-1.0534515
1493787073292	-1.9964142	-9.74765	0.22814941
1493787073313	-1.7845612	-9.7126465	1.4474792
1493787073330	-2.0919495	-9.493225	2.130783
1493787073348	-2.1408691	-9.286072	2.2971191
1493787073373	-1.869278	-9.235779	1.8626251
1493787073389	-1.389679	-9.26947	1.0776825
1493787073406	-1.0421143	-9.541229	0.882782
1493787073425	-1.0870667	-9.793671	0.95999146
1493787073445	-1.2552338	-9.820236	0.8451996
1493787073466	-1.3866119	-9.751709	0.8433075
1493787073488	-1.5155945	-9.68158	0.86834717
1493787073506	-1.837143	-9.673004	1.0091095
1493787073527	-2.1912842	-9.680466	0.8894501
1493787073547	-2.0799408	-9.631287	0.5287628
1493787073567	-1.8594818	-9.636871	0.5370636
1493787073591	-1.8149261	-9.636749	0.41244507
1493787073608	-1.7597351	-9.583878	0.6178131
1493787073628	-1.9043884	-9.560577	1.0076752
1493787073648	-1.9740753	-9.4002075	1.1575012
1493787073667	-1.9002838	-9.256058	1.2746582
1493787073688	-0.6492615	-9.298447	1.1557922
1493787073707	-1.3387756	-8.73111	0.513031
1493787073727	-3.94133	-8.864548	-0.10774231
1493787073747	-4.96463	-9.321976	-1.6014557
1493787073766	-2.761856	-9.788971	-2.7324524
1493787073786	0.29722595	-10.553009	-2.306015
1493787073806	2.6268616	-11.198715	-0.90049744
1493787073823	1.762146	-11.461166	0.82714844
1493787073843	-2.1175385	-10.715881	1.9900665
1493787073866	-5.142624	-9.956482	-0.39152527
1493787073890	-5.177994	-9.271561	-2.8208466
1493787073901	-4.943802	-11.067139	-4.1334534
1493787073920	-4.611435	-12.474014	-4.80101
1493787073941	-4.027649	-12.3701935	-4.434677
1493787073963	-3.8888092	-12.006744	-3.2163086
1493787074005	-3.701233	-11.276688	-1.9803772
1493787074005	-2.5947266	-10.212204	-1.2683868
1493787074044	-1.7364044	-10.211227	-0.32525635
1493787074064	-1.2626495	-9.68689	1.2434387
1493787074083	-1.5371552	-9.170578	2.1103516
1493787074104	0.07215881	-9.25827	1.5236359
1493787074123	1.9749908	-9.446091	1.1461182
1493787074144	0.28982544	-9.839188	-1.0904083
1493787074163	-1.3644257	-9.538681	-0.9244385
1493787074183	-2.607315	-9.46463	-0.6764984
1493787074203	-2.906662	-8.839066	-0.5851593
1493787074225	-2.8688507	-8.884048	-1.015686
1493787074243	-2.8427582	-8.699814	-0.92640686
1493787074262	-3.1869354	-8.228806	-0.8202362
1493787074282	-3.5401611	-7.769516	-0.5475769
1493787074302	-3.7994995	-7.33165	-0.5561981
1493787074322	-3.9094696	-6.893875	-0.6200409
1493787074342	-4.072647	-6.489319	-0.8549347
1493787074358	-4.0717773	-6.58374	-1.4395447
1493787074382	-4.2846985	-7.3695984	-2.2156372
1493787074404	-4.4654236	-8.342041	-3.6461182
1493787074416	-4.7336273	-8.893768	-4.7204437
1493787074436	-5.1611633	-8.947449	-5.0836487
1493787074456	-5.278946	-8.490784	-4.7605133
1493787074476	-4.7531586	-7.8510895	-4.3331146
1493787074497	-4.48732	-7.459137	-4.123657
1493787074516	-4.8272705	-7.838684	-4.6732635
1493787074539	-6.4150543	-10.65123	-5.5404663
1493787074558	-7.655899	-14.942108	-5.540741
1493787074575	-6.0036163	-14.343613	-3.4219666
1493787074598	-3.1309357	-9.057358	0.09190369
1493787074617	-1.9912109	-5.1444855	3.4577637
1493787074637	-2.0229034	-4.6288605	4.9266357
1493787074658	-1.2752686	-6.39505	4.807068
1493787074676	-0.9819031	-9.6453705	3.9366302
1493787074697	-1.3714447	-12.276413	2.5213623
1493787074716	-1.0279083	-12.532242	0.8032837
1493787074739	-0.81430054	-11.638168	-0.20570374
1493787074758	-1.7234344	-10.767471	-0.06277466
1493787074777	-2.8875732	-9.336014	-0.018722534
1493787074798	-2.3548126	-9.034317	0.8147125
1493787074817	-1.59375	-9.981918	1.8424072
1493787074837	-1.7204285	-10.563965	0.6560211
1493787074855	-1.9950714	-9.660782	0.407547
1493787074882	-1.6717224	-9.140411	-0.14979553
1493787074903	-1.1968994	-9.145325	0.20236206
1493787074912	-1.3049469	-8.590012	0.0014953613
1493787074932	-1.616684	-8.601334	0.6465759
1493787074952	-1.8653412	-8.864243	0.6048584
1493787074975	-3.1136017	-8.71814	-0.032791138
1493787074994	-3.363739	-8.770035	-0.24932861
1493787075013	-2.5303192	-9.066498	0.39146423
1493787075033	-2.5497894	-9.388138	1.0913696
1493787075053	-2.9207916	-10.232544	1.0393982
1493787075075	-2.3167877	-11.104218	0.5804596
1493787075094	-0.7112274	-11.855743	-0.3152008
1493787075115	0.6239319	-12.724442	-0.6238556
1493787075135	0.83654785	-12.97374	-0.5290222
1493787075155	0.13502502	-12.951996	-1.5711823
1493787075174	0.47088623	-13.083618	-2.172821
1493787075193	2.0503235	-13.97847	-1.1786499
1493787075213	1.9759064	-13.894562	-1.7171631
1493787075236	1.0854034	-12.35611	-3.5945282
1493787075254	0.034866333	-9.999817	-2.5014954
1493787075273	-1.2999573	-9.110687	-0.5895691
1493787075313	-2.1842194	-10.135834	0.8377838
1493787075333	-4.589676	-12.764038	2.9295197
1493787075351	-8.288162	-15.463181	4.24382
1493787075374	-8.520538	-13.835297	2.6113892
1493787075389	-6.021347	-11.391373	-0.2555542
1493787075408	-4.681793	-11.658936	-0.44995117
1493787075428	-0.6769104	-11.578705	-0.7448273
1493787075447	3.3996887	-12.296799	-3.4786377
1493787075467	-0.30332947	-11.387955	-2.338028
1493787075488	-1.4854736	-8.227386	1.3546295
1493787075511	-1.6915741	-6.335846	1.8949127
1493787075528	-2.539917	-5.487732	2.0649872
1493787075549	-2.6823883	-4.4868927	2.2429047
1493787075573	-2.8026123	-4.1340637	2.163086
1493787075589	-3.2114258	-3.3521576	1.8193207
1493787075611	-3.5456238	-3.102539	0.8579712
1493787075631	-3.5612335	-3.3105927	-0.5394287
1493787075650	-2.9636078	-4.306015	-2.4940643
1493787075670	-2.9523926	-6.0270996	-5.640625
1493787075691	-3.3073425	-8.110733	-8.792465
1493787075710	-4.063095	-9.300674	-9.7070465
1493787075729	-4.883011	-10.2986145	-9.143372
1493787075751	-5.09877	-11.331894	-7.6466217
1493787075769	-5.928482	-11.835144	-7.3605957
1493787075790	-8.8541565	-11.339966	-6.3099976
1493787075810	-10.922745	-12.701447	-4.2537384
1493787075828	-6.791641	-13.364746	-2.5499878
1493787075848	-2.6917267	-9.336487	2.6644897
1493787075866	-2.7493744	-6.1219025	6.6922913
1493787075892	-4.468979	-7.1806335	5.934906
1493787075905	-2.59581	-10.728531	4.4151917
1493787075923	1.2060547	-13.639816	3.2459564
1493787075943	2.992569	-15.103363	0.7807617
1493787075962	1.7203064	-13.855576	-0.20565796
1493787075983	-0.59121704	-11.481628	0.38168335
1493787076004	-1.5850525	-10.651703	-0.05671692
1493787076024	-4.458618	-9.32988	-1.4925995
1493787076044	-5.6320343	-8.201248	-1.0373535
1493787076064	-4.180023	-7.813492	-0.28224182
1493787076086	-3.0346527	-8.247498	-0.9268799
1493787076106	-1.5201416	-8.699005	-1.2478638
1493787076125	-0.60910034	-9.127594	-1.5543976
1493787076145	-0.24084473	-8.593246	-1.572052
1493787076165	-0.3510437	-8.053741	-1.1358643
1493787076185	-0.9078369	-8.275497	-0.77627563
1493787076206	-1.6316986	-8.4921875	-0.24868774
1493787076223	-2.0016632	-8.593475	0.5249481
1493787076245	-1.786911	-9.071991	0.7475281
1493787076264	-2.1930084	-9.590591	-0.049697876
1493787076284	-2.4431	-10.223236	-1.21492
1493787076304	-2.4468536	-10.604279	-1.1706085
1493787076324	-2.822998	-11.004227	-1.0425262
1493787076341	-2.5201874	-11.299347	-1.3383179
1493787076363	-1.0882568	-11.843018	-1.091156
1493787076392	0.5502167	-12.343292	-1.1431885
1493787076406	0.60754395	-11.9118805	-1.3430634
1493787076421	-0.34866333	-12.012939	-1.9557343
1493787076437	-0.21495056	-12.066269	-2.8056793
1493787076478	0.4974823	-13.321228	-3.1065826
1493787076498	2.2599945	-14.631073	-3.7061157
1493787076517	3.9121246	-13.190811	-1.7769775
1493787076536	1.7130737	-11.290894	0.09938049
1493787076557	-3.3342438	-10.232407	0.38739014
1493787076576	-5.0624237	-9.317886	1.8929291
1493787076599	-3.877121	-10.673279	4.394272
1493787076621	-1.1912842	-12.026886	2.5805054
1493787076642	2.1403198	-12.699753	0.8161011
1493787076661	2.1829376	-12.781067	1.7976227
1493787076680	1.2980194	-12.919418	-0.10424805
1493787076702	-0.4308014	-12.804749	-1.6484528
1493787076720	-3.23938	-10.907776	0.20410156
1493787076740	-2.384369	-9.1493225	0.5647583
1493787076762	-2.1828766	-8.340317	0.9763489
1493787076778	-2.1833801	-7.996292	1.046051
1493787076798	-2.537094	-6.96315	1.58844
1493787076821	-3.1765137	-6.176956	2.1059113
1493787076839	-3.4772797	-5.624237	2.319336
1493787076859	-3.607193	-4.8602753	2.103592
1493787076875	-3.8441162	-4.0929565	1.2488403
1493787076900	-4.231476	-4.145584	-0.13294983
1493787076915	-4.476532	-4.9137573	-1.4026031
1493787076934	-4.466873	-6.4556427	-3.3867645
1493787076954	-4.4454346	-9.030548	-6.6517944
1493787076973	-4.817459	-10.83522	-9.034836
1493787076994	-5.118271	-10.963577	-9.157654
1493787077018	-4.9986725	-10.825256	-8.044586
1493787077037	-4.8859406	-10.800766	-6.604889
1493787077057	-4.6533203	-9.616653	-6.255783
1493787077077	-6.5258484	-9.07019	-6.5478516
1493787077095	-9.998306	-13.328781	-5.075287
1493787077117	-9.574341	-15.198456	-1.1616516
1493787077136	-6.195984	-9.6375885	1.9358215
1493787077156	-2.949829	-4.4711456	4.1188354
1493787077176	-1.5173035	-4.6011353	6.286545
1493787077194	-0.43826294	-7.870819	7.718521
1493787077216	1.4206085	-11.383896	7.9269714
1493787077236	1.1591492	-13.852936	3.0233917
1493787077255	-0.022003174	-13.653351	-2.813034
1493787077275	-0.388031	-11.584366	-2.2781372
1493787077294	-1.5773468	-10.067459	0.12124634
1493787077315	-2.8801422	-8.575516	1.2547607
1493787077334	-3.0626678	-7.81221	1.4539948
1493787077354	-1.901825	-8.53511	0.7925873
1493787077373	-0.756897	-9.137268	0.9792633
1493787077400	-1.2315063	-9.8207855	-0.9390259
1493787077412	-0.56547546	-8.840347	1.1350098
1493787077429	-0.4140625	-8.872482	0.56259155
1493787077451	-0.035614014	-9.197266	-0.27371216
1493787077469	-0.5482788	-9.380661	-1.1385345
1493787077491	-0.6993103	-10.153793	-0.6873474
1493787077510	-0.35559082	-10.169067	0.37239075
1493787077528	-0.3683014	-10.209137	0.3440094
1493787077548	-0.8303833	-10.483444	-0.054779053
1493787077570	-2.17276	-10.875	-1.2115784
1493787077587	-1.7115173	-11.464981	-0.7920227
1493787077606	0.6841736	-12.083069	0.09902954
1493787077625	1.5469513	-12.334854	0.30612183
1493787077645	1.0796814	-12.245972	0.25376892
1493787077670	-0.5639801	-12.291092	-1.3446655
1493787077688	-0.11325073	-12.401047	-2.2427063
1493787077708	0.58914185	-12.573364	-2.519928
1493787077748	2.5143127	-13.43306	-3.6702576
1493787077767	2.3371124	-12.275055	-2.28714
1493787077790	-0.5012512	-11.3594055	-1.3545837
1493787077808	-5.5036163	-9.9574585	0.3303833
1493787077831	-6.973282	-11.947449	3.5030975
1493787077849	-9.76355	-15.506378	4.4200897
1493787077870	-10.245041	-15.744614	2.7530365
1493787077886	-7.574356	-13.08757	-0.19746399
1493787077909	-6.0707397	-11.843628	-1.9486694
1493787077930	-3.1353912	-10.75354	-0.3365326
1493787077945	1.3249359	-10.693024	-0.13339233
1493787077965	0.72262573	-10.779526	-1.1241455
1493787077984	0.018829346	-7.5608673	0.46281433
1493787078007	-0.5337677	-6.0421295	2.5511627
1493787078029	-1.0293884	-3.774002	3.4948883
1493787078048	-1.7398071	-2.285904	3.2814484
1493787078068	-2.0615234	-1.8005524	2.8650665
1493787078088	-2.697815	-1.637619	2.2831116
1493787078107	-2.4492493	-2.4091797	0.8985748
1493787078128	-2.5629425	-3.342163	-0.79190063
1493787078147	-3.253662	-4.9508667	-2.5511322
1493787078167	-4.7123566	-8.722168	-5.5300293
1493787078187	-7.1823883	-14.076981	-10.535034
1493787078207	-8.376984	-16.569534	-13.769684
1493787078227	-7.0564117	-13.3284	-10.451767
1493787078245	-5.488434	-9.167053	-5.1959534
1493787078266	-5.7812195	-8.001129	-3.4088593
1493787078286	-8.061203	-10.278305	-5.5803223
1493787078306	-9.27063	-13.511429	-5.778473
1493787078326	-7.9177246	-10.902344	-1.0936432
1493787078345	-4.210129	-6.136215	5.2029114
1493787078365	-2.3371582	-5.35997	6.928055
1493787078384	-2.3864746	-7.82399	4.6459656
1493787078403	0.19862366	-10.264587	5.1944733
1493787078421	2.7376251	-12.327789	4.928894
1493787078444	2.3244934	-13.021072	0.6865692
1493787078462	0.9365845	-11.994858	-1.385025
1493787078480	-0.5435791	-10.981796	-0.09831238
1493787078500	-0.99928284	-10.43544	0.375885
1493787078521	-3.1138306	-8.689957	-0.42433167
1493787078543	-4.8949585	-7.7770386	0.18701172
1493787078563	-3.682724	-8.825073	0.58177185
1493787078583	-1.170227	-9.873901	0.9901123
1493787078603	-0.5666199	-9.419052	0.844635
1493787078623	-0.3315277	-9.142181	1.4438171
1493787078643	-0.5491791	-8.948151	0.9432373
1493787078662	-0.7918854	-8.84436	-0.7239685
1493787078683	0.103652954	-9.06102	0.20097351
1493787078703	0.27827454	-9.70256	-0.09434509
1493787078721	-0.49450684	-9.761002	-0.7120056
1493787078742	-1.142456	-9.965759	-0.5543213
1493787078762	-1.6741791	-10.530762	-1.4206848
1493787078782	-1.7610779	-11.244659	-1.424118
1493787078801	-0.9027252	-11.627609	-1.4628754
1493787078822	0.90078735	-11.97319	-1.0706024
1493787078841	2.304367	-11.955719	0.19018555
1493787078862	1.1036987	-11.658615	0.0664978
1493787078881	-0.31059265	-11.81395	-1.8835449
1493787078897	0.33805847	-13.416855	-1.6565094
1493787078924	1.3275604	-13.288406	-2.2801666
1493787078944	1.5012665	-12.716339	-2.7139282
1493787078975	-2.5283356	-10.017731	-1.0616608
1493787078995	-5.1192474	-9.595245	-0.5412445
1493787079017	-6.3711243	-12.230133	2.7055511
1493787079039	-8.625717	-15.179581	3.8939667
1493787079058	-8.421997	-14.59584	2.2113647
1493787079081	-6.7021027	-12.196259	-0.1973114
1493787079098	-5.669647	-11.750381	-1.5384827
1493787079116	-5.3543854	-11.186325	-0.6674652
1493787079137	-2.442047	-10.578369	1.0359802
1493787079158	0.0026245117	-9.98613	-1.0781708
1493787079178	-0.5289154	-9.445328	-0.1975708
1493787079197	-2.1526947	-7.422043	0.41574097
1493787079215	-1.6440887	-5.6706085	2.218338
1493787079236	-1.6213074	-4.953842	2.3661957
1493787079257	-1.7585449	-3.925293	2.2202148
1493787079277	-1.9754028	-3.3944244	1.865799
1493787079297	-2.0755615	-3.074707	1.1073608
1493787079318	-2.0493164	-3.5499268	-0.2685852
1493787079337	-2.4019623	-4.4482117	-1.5764313
1493787079356	-3.2666626	-6.018524	-3.3212585
1493787079376	-4.99115	-9.682007	-7.3000183
1493787079395	-6.382599	-13.000763	-10.718811
1493787079415	-6.365387	-11.925766	-10.554474
1493787079442	-5.9414215	-9.597275	-7.9362793
1493787079451	-5.259247	-9.07019	-5.5830536
1493787079472	-4.526001	-9.445602	-4.526184
1493787079491	-5.5555267	-8.551346	-5.4166718
1493787079512	-8.473099	-8.975021	-5.1326294
1493787079533	-9.754517	-12.161163	-2.3263855
1493787079553	-8.098022	-13.060272	-0.29574585
1493787079572	-4.057068	-9.617752	0.65164185
1493787079593	-0.11024475	-6.3676605	4.34935
1493787079612	0.81088257	-6.610855	7.398636
1493787079633	0.9272766	-9.091583	6.9628754
1493787079652	1.7247925	-11.596176	4.8645782
1493787079672	1.7026215	-13.148941	0.7771301
1493787079692	0.7665558	-13.105591	-2.2466583
1493787079711	-0.77641296	-11.402649	-1.2279816
1493787079732	-2.6190033	-9.295105	0.66230774
1493787079751	-2.96698	-8.061142	1.8739624
1493787079771	-3.3020172	-8.637482	1.3184662
1493787079792	-2.7828217	-9.63855	1.1170654
1493787079811	-1.2715454	-9.830246	1.8608398
1493787079830	-0.33740234	-10.108902	1.2944794
1493787079851	0.48216248	-10.103363	1.0207672
1493787079870	1.1261902	-9.881699	0.5903473
1493787079891	0.97914124	-9.218597	-0.61265564
1493787079906	0.84347534	-8.943634	-0.71110535
1493787079928	1.0223999	-9.458542	0.07929993
1493787079947	0.6600189	-10.02005	-0.11003113
1493787079967	-0.6672058	-10.083466	-0.07495117
1493787079986	-1.7210541	-10.190567	-0.6163635
1493787080006	-1.3403168	-10.6586	-0.72320557
1493787080030	-0.10499573	-10.994812	-0.5059662
1493787080050	1.2489166	-11.256683	0.037612915
1493787080069	1.948761	-11.360367	0.86854553
1493787080090	0.35884094	-11.558701	0.38864136
1493787080109	-1.5149231	-11.405182	-0.83184814
1493787080126	-1.7140045	-11.372787	-1.9371643
1493787080149	-0.08326721	-12.170883	-1.6581268
1493787080168	2.0471191	-13.385178	-2.0307617
1493787080189	2.6952057	-13.114883	-1.975235
1493787080208	0.7284851	-12.090332	-1.3898163
1493787080248	-5.661316	-10.210007	-1.7352295
1493787080267	-7.8451385	-11.339172	0.61987305
1493787080288	-10.030441	-13.831131	3.4981995
1493787080307	-9.801895	-14.690491	3.482132
1493787080324	-5.178589	-12.010162	-0.26631165
1493787080348	-3.22435	-11.95459	-3.018631
1493787080367	-0.8022156	-11.399094	-0.45463562
1493787080387	1.5780792	-11.625534	0.6467438
1493787080404	-1.7586212	-11.103287	-0.11289978
1493787080429	-2.1622772	-8.6371765	0.7961426
1493787080443	-1.3352814	-7.150955	1.367218
1493787080462	-1.607544	-5.3394012	2.1540833
1493787080482	-1.7641144	-4.504196	2.4645844
1493787080501	-2.3064728	-3.7098846	2.2535706
1493787080520	-2.4859009	-3.3917084	1.9904175
1493787080544	-2.7955322	-3.4699707	1.0564728
1493787080560	-2.7408142	-3.8926086	-0.27197266
1493787080583	-2.7621002	-4.458267	-1.4842529
1493787080599	-3.2414398	-5.6556244	-2.729309
1493787080618	-4.837387	-9.069473	-6.635788
1493787080638	-6.135971	-13.451126	-12.23082
1493787080658	-6.1650696	-14.710693	-13.723129
1493787080678	-5.620224	-12.032715	-9.536102
1493787080698	-4.554428	-9.308685	-5.010559
1493787080722	-4.657486	-8.189224	-3.2279358
1493787080741	-6.739502	-10.476685	-4.978348
1493787080761	-8.155045	-13.862244	-4.079468
1493787080781	-6.7640686	-11.002762	1.2171936
1493787080800	-4.84671	-6.8067474	4.434143
1493787080821	-2.888153	-5.266876	4.597122
1493787080838	-0.61660767	-6.654312	6.091629
1493787080862	1.3911896	-10.138702	7.080063
1493787080881	2.074646	-13.140961	4.892288
1493787080903	1.1923981	-13.871613	-1.1966858
1493787080927	0.5020294	-11.859528	-2.438919
1493787080938	-0.8390503	-10.0616455	-0.21054077
1493787080957	-3.0214996	-8.419861	0.6996765
1493787080978	-4.292862	-7.456711	0.9447479
1493787080997	-3.4875336	-8.665451	0.088027954
1493787081017	-1.7712097	-10.011047	0.70895386
1493787081042	-0.7236786	-10.362061	0.6963959
1493787081061	0.36793518	-9.974777	0.48846436
1493787081082	-0.09370422	-9.344727	0.19630432
1493787081101	-1.2244415	-9.031509	0.116363525
1493787081120	-1.2727814	-8.965683	0.21595764
1493787081142	-0.34547424	-9.355789	0.24356079
1493787081160	-0.15223694	-9.611908	-0.6123657
1493787081180	-0.8737793	-9.87941	-1.1263123
1493787081202	-1.1640015	-10.05545	-0.48554993
1493787081219	-1.3613586	-10.431335	-0.26789856
1493787081238	-0.67137146	-11.306549	-0.5322571
1493787081258	1.0514984	-11.957855	-0.7446594
1493787081278	2.0531006	-11.970428	0.007736206
1493787081299	0.34231567	-11.498566	-0.2050476
1493787081318	-0.885376	-11.115921	-1.2462158
1493787081335	0.06907654	-12.1137085	-1.9624176
1493787081358	1.2735901	-13.376572	-1.94104
1493787081380	1.9471283	-13.718826	-2.3277588
1493787081397	-0.0993042	-12.567627	-2.1051025
1493787081414	-4.054825	-10.398041	-1.9794769
1493787081454	-6.2028656	-9.932663	-0.0018615723
1493787081472	-7.344406	-12.012512	2.9662323
1493787081493	-8.426193	-14.013901	3.7042236
1493787081512	-6.260391	-13.494125	0.7589874
1493787081536	-4.6260223	-12.45726	-1.5057678
1493787081557	-3.5410004	-11.729523	-1.2625275
1493787081575	-1.7471161	-11.338898	0.15560913
1493787081596	0.8217621	-11.137024	0.9808197
1493787081615	-1.226181	-10.344772	-0.08595276
1493787081636	-1.3304291	-8.203369	0.14012146
1493787081656	-1.2124634	-6.434738	1.2051392
1493787081675	-1.3835144	-4.5777435	2.0179138
1493787081695	-1.423706	-4.324768	2.1822052
1493787081715	-1.6558075	-3.9190674	2.5431213
1493787081733	-2.2427368	-3.3168182	2.7036285
1493787081755	-2.7395477	-3.1199493	1.5898285
1493787081774	-3.1968079	-3.4075317	-0.002746582
1493787081795	-3.3534546	-4.6239777	-1.6041107
1493787081814	-3.8923645	-8.3116455	-4.8141327
1493787081833	-4.684143	-13.998642	-11.206558
1493787081854	-5.8142853	-15.735306	-13.363464
1493787081873	-5.958786	-11.54335	-10.240997
1493787081894	-5.2046814	-8.473282	-6.393463
1493787081916	-4.5048676	-7.8239136	-3.3336182
1493787081942	-4.6492157	-7.298401	-3.7426453
1493787081952	-6.0400085	-7.1543427	-4.3377533
1493787081971	-7.776947	-10.738663	-3.5842896
1493787081988	-7.821213	-14.573547	-1.2813721
1493787082008	-6.185791	-12.9552765	0.9448395
1493787082027	-2.9598083	-8.313934	2.5954285
1493787082050	-1.2675629	-5.5911713	5.6635895
1493787082070	-0.9512329	-5.938156	6.615082
1493787082089	0.7134857	-9.388458	5.56073
1493787082109	2.147812	-12.841385	3.2308197
1493787082132	2.4988708	-13.689636	-0.8926697
1493787082152	1.4261475	-12.332809	-1.8107452
1493787082171	-1.2046509	-10.210266	0.057281494
1493787082192	-3.7138214	-8.20932	0.09223938
1493787082211	-4.822769	-7.8307343	-0.50219727
1493787082229	-3.935913	-8.509338	0.5611267
1493787082249	-1.7186737	-9.882431	0.7238922
1493787082270	-0.25442505	-10.229385	0.32337952
1493787082290	0.021759033	-10.101959	0.13935852
1493787082312	-0.49519348	-9.679428	-0.07284546
1493787082327	-1.2145996	-9.128052	-0.24520874
1493787082350	-1.1394653	-9.205093	0.4881134
1493787082369	-0.5947113	-9.709076	0.35862732
1493787082389	-0.4507904	-9.9396515	-0.96520996
1493787082407	-1.2444153	-9.956848	-1.5578918
1493787082425	-1.8634796	-9.99501	-0.8176422
1493787082444	-1.6755676	-9.932983	-0.364151
1493787082467	-1.1895752	-10.459564	-0.28868103
1493787082483	-0.39653015	-10.825287	-0.95111084
1493787082503	0.76420593	-11.154999	-0.09867859
1493787082523	0.09210205	-11.074554	0.44747925
1493787082546	-1.737442	-10.783768	-1.2932129
1493787082565	-0.714859	-11.638824	-2.314865
1493787082583	1.4043732	-13.457993	-2.1243134
1493787082605	2.6714478	-13.927109	-2.3234558
1493787082624	2.6001434	-12.955078	-1.0216064
1493787082644	-2.8580475	-10.709717	-1.7501373
1493787082666	-6.7330627	-10.125137	-0.8329315
1493787082684	-7.449234	-11.085602	2.1622162
1493787082707	-7.474121	-12.894775	3.093277
1493787082726	-5.4661713	-12.864975	1.6191711
1493787082766	-3.8416748	-12.23616	0.029678345
1493787082784	-3.3355408	-12.05986	-1.4516144
1493787082806	-2.5869904	-10.738953	0.39311218
1493787082825	-0.23545837	-10.819199	1.8501434
1493787082844	-0.7688446	-11.064835	-0.23852539
1493787082865	-1.5483093	-9.106415	-0.13801575
1493787082884	-1.4336395	-6.854492	0.4909973
1493787082905	-1.7974243	-5.064621	1.4131317
1493787082922	-2.1098633	-4.355591	1.9164886
1493787082946	-2.3041687	-4.0112305	2.267273
1493787082960	-2.5060577	-3.8635406	2.219757
1493787082979	-2.6368408	-3.8480988	1.5434265
1493787083001	-3.1975098	-3.7879486	0.20046997
1493787083019	-3.631958	-4.5590973	-0.88838196
1493787083037	-4.0351563	-7.3100433	-2.7893066
1493787083061	-4.914551	-12.539322	-7.6647186
1493787083079	-5.0049286	-16.690338	-13.04895
1493787083100	-5.2805786	-14.323135	-13.250748
1493787083119	-5.2001038	-9.077667	-8.525116
1493787083137	-4.2884674	-7.5020905	-4.2633667
1493787083161	-3.2104034	-7.2734833	-2.7168427
1493787083180	-3.779831	-6.9099426	-3.187851
1493787083200	-5.495941	-8.781906	-3.6018677
1493787083220	-6.5989075	-12.6586	-2.542984
1493787083238	-6.295395	-14.132126	0.36447144
1493787083260	-3.9785461	-11.401001	1.1980591
1493787083279	-2.422104	-7.2492065	2.499176
1493787083299	-3.0290527	-5.1159363	5.2802277
1493787083319	-1.7406158	-6.3951416	6.1920013
1493787083337	0.58602905	-10.823303	4.1128387
1493787083359	2.5385742	-13.990662	1.0383301
1493787083383	3.5080109	-14.032547	-1.9201202
1493787083400	1.2016144	-11.56282	-2.2577057
1493787083418	-3.2846375	-8.558823	-0.4064026
1493787083436	-4.8588257	-7.749405	0.81355286
1493787083456	-4.371704	-8.106003	1.1257019
1493787083475	-3.3403473	-8.90863	0.3718872
1493787083495	-1.5049438	-9.471695	-0.059020996
1493787083514	-0.69781494	-9.599411	-0.20210266
1493787083534	-0.59529114	-9.428772	-0.5298462
1493787083555	-0.8271637	-9.368179	-0.34025574
1493787083575	-1.315033	-9.411957	0.29086304
1493787083594	-1.4312744	-9.471695	1.0717316
1493787083615	-1.187973	-9.7966	0.22769165
1493787083634	-0.39387512	-10.138931	-0.9680786
1493787083653	-0.13090515	-10.411087	-1.9057007
1493787083676	-0.21740723	-11.06749	-1.4647827
1493787083696	-0.21617126	-11.484009	-0.6798401
1493787083716	-0.47309875	-11.366974	-1.3794556
1493787083735	-0.5748749	-11.236908	-1.9114685
1493787083755	0.6793823	-11.107315	-0.7144623
1493787083775	1.0332031	-11.400787	-1.5733185
1493787083794	0.514328	-13.113403	-2.0212708
1493787083815	0.6913147	-14.4409485	-2.7396545
1493787083834	0.93829346	-12.208923	-2.1412811
1493787083854	0.5852051	-10.332275	-0.7017975
1493787083875	-1.925705	-11.270157	-0.19654846
1493787083893	-4.4344635	-10.403748	2.520172
1493787083915	-5.8046265	-12.268173	3.9094086
1493787083935	-5.54628	-13.297577	3.9167023
1493787083983	-4.4429626	-12.486771	1.170044
1493787083990	-3.1938477	-11.63031	-0.2880249
1493787084010	-3.1668243	-10.968796	0.28300476
1493787084031	-2.0859375	-10.409424	0.07019043
1493787084050	-1.2506409	-9.371384	0.52467346
1493787084073	-1.4268036	-7.8893585	-0.024337769
1493787084093	-1.6945343	-7.2281036	0.7999115
1493787084113	-1.0869598	-6.813278	1.0880585
1493787084133	-0.6645355	-6.9611664	1.5490723
1493787084153	-1.390091	-6.6671295	1.718338
1493787084173	-2.258667	-6.0561676	1.5023956
1493787084192	-2.5857391	-5.7832794	0.6738281
1493787084213	-2.2249908	-5.97818	-0.3710785
1493787084232	-2.262436	-7.188217	-1.877945
1493787084251	-2.4571075	-9.526794	-4.073822
1493787084272	-2.6002045	-12.739502	-8.087311
1493787084291	-1.6987762	-13.754135	-9.774673
1493787084314	-0.91667175	-11.779755	-6.639328
1493787084331	-1.9275055	-9.76944	-0.3155365
1493787084350	-5.561981	-7.9993134	7.9448395
1493787084373	-7.4987946	-4.8689575	6.692642
1493787084391	-8.109024	-4.9798737	3.3337402
1493787084411	-5.805023	-7.970764	1.4464111
1493787084430	-1.2452087	-13.358902	2.4835968
1493787084452	-0.2375946	-16.732574	0.6179657
1493787084466	-1.5033569	-14.084412	0.06524658
1493787084485	-1.1163788	-11.251343	1.8560333
1493787084505	0.10343933	-11.164825	1.016861
1493787084525	-0.40966797	-11.095398	-0.5543213
1493787084544	-2.0426636	-10.103195	-0.648407
1493787084567	-2.9632874	-9.19458	-0.05899048
1493787084584	-3.18779	-8.908249	-0.044036865
1493787084604	-2.6867218	-8.610657	0.08364868
1493787084622	-1.7026215	-8.362946	0.15539551
1493787084641	-0.9037781	-8.588165	0.006149292
1493787084665	-0.57707214	-8.86467	-0.019210815
1493787084685	-0.75315857	-9.04808	0.48738098
1493787084705	-1.3057709	-9.26857	0.69644165
1493787084725	-2.1728668	-9.875427	0.6627197
1493787084744	-3.0112457	-10.693054	0.73487854
1493787084765	-2.722763	-11.095428	0.53538513
1493787084784	-2.239502	-11.443344	-0.098724365
1493787084804	-1.6025238	-11.296555	-0.3419037
1493787084824	-0.8846283	-10.748245	0.106277466
1493787084841	-0.5205841	-10.410538	0.2556305
1493787084865	-0.0066375732	-10.19696	0.21720886
1493787084884	0.48260498	-10.215622	0.12713623
1493787084904	0.9168854	-10.189362	0.23617554
1493787084925	0.26974487	-10.790665	0.26098633
1493787084947	-0.7394104	-11.546097	-0.360672
1493787084968	-1.2284088	-10.810745	-1.6182098
1493787084982	-2.8936462	-9.431076	-2.3821259
1493787085000	-4.5069885	-9.464233	-2.7550507
1493787085021	-4.6170044	-10.624283	-2.9288177
1493787085042	-4.6026764	-11.813248	-1.8328857
1493787085060	-4.37088	-13.044601	-1.1399384
1493787085083	-1.8952026	-13.42334	-1.5951233
1493787085102	-0.6678772	-11.378525	-1.1492004
1493787085122	2.513321	-11.085297	-0.92700195
1493787085141	4.134491	-10.720673	0.6990509
1493787085162	3.0331879	-11.203293	-0.530365
1493787085184	0.6772003	-11.11705	-0.44189453
1493787085202	-1.6607056	-10.016617	0.7059784
1493787085242	-2.9709778	-8.134949	1.4520721
1493787085260	-4.499237	-7.385559	1.8590393
1493787085283	-5.0955505	-6.9474487	1.4065399
1493787085301	-4.595749	-7.0302734	-0.6238098
1493787085322	-4.2572937	-7.774582	-0.92445374
1493787085343	-4.3838196	-7.7217712	-1.2657471
1493787085362	-4.0817566	-7.201599	-1.6162109
1493787085382	-3.85112	-6.439804	-1.6701202
1493787085401	-3.9937744	-5.967102	-2.0411835
1493787085422	-4.1520233	-5.881851	-2.469864
1493787085439	-4.600815	-6.7502594	-2.8158112
1493787085457	-4.8887634	-8.331238	-3.5640717
1493787085477	-5.3250732	-9.465744	-4.5464783
1493787085500	-5.843231	-9.683411	-5.5496216
1493787085516	-5.7377167	-8.640396	-5.6605377
1493787085536	-5.361328	-7.729141	-5.2190094
1493787085555	-5.1904755	-7.750229	-4.948288
1493787085576	-5.171753	-8.25647	-4.661148
1493787085597	-5.6234283	-8.159897	-3.9234772
1493787085617	-7.1083527	-8.0563965	-1.1829071
1493787085637	-8.679062	-10.926331	1.938446
1493787085656	-7.0402374	-13.214478	1.5151978
1493787085679	-2.5414734	-11.155746	0.6073303
1493787085698	-0.15014648	-8.396347	1.6907654
1493787085718	-0.6686096	-6.378418	4.729431
1493787085738	-1.8047028	-6.7651367	4.900009
1493787085756	-1.6390991	-9.0168	3.3656006
1493787085778	-0.15110779	-10.829483	0.29881287
1493787085797	1.9417725	-11.891434	-1.2373657
1493787085817	1.1991272	-11.8111725	-0.59173584
1493787085836	-0.77227783	-10.138443	-0.043518066
1493787085856	-1.4608765	-8.801727	-0.36817932
1493787085877	-1.7009583	-8.758453	0.08560181
1493787085897	-1.9289093	-9.538834	-0.31263733
1493787085916	-1.6095123	-9.632278	-0.4335327
1493787085937	-1.4094849	-9.667816	-0.10418701
1493787085956	-1.0713501	-9.811707	-0.17959595
1493787085982	-0.77389526	-9.518997	0.4306488
1493787085992	-0.5463867	-9.785873	0.4519043
1493787086011	-0.039749146	-10.071091	0.60513306
1493787086031	-0.096725464	-10.104279	0.7572937
1493787086051	-1.4380035	-10.362762	-0.098526
1493787086071	-2.3086853	-10.992203	-0.52186584
1493787086094	-2.4847412	-11.821548	-0.9870148
1493787086115	-1.7995605	-12.474701	-2.1123047
1493787086135	-0.17781067	-12.172272	-1.147644
1493787086154	1.0402374	-11.901733	-0.34620667
1493787086174	0.96643066	-11.743805	-1.1427002
1493787086194	0.75128174	-11.686218	-2.5828094
1493787086213	1.3318176	-12.607727	-2.8678436
1493787086234	1.9815369	-12.873688	-3.0064697
1493787086253	1.0437927	-12.121063	-2.8333893
1493787086270	-1.2845612	-10.558899	-1.8864136
1493787086293	-3.8210754	-9.846527	0.14102173
1493787086313	-5.670349	-11.839767	2.9106445
1493787086332	-8.646912	-14.886215	4.8908997
1493787086349	-7.7101746	-13.874084	1.8926392
1493787086368	-6.1675415	-12.19104	-0.55384827
1493787086386	-5.0597534	-11.4253235	-1.9313202
1493787086426	-3.2138977	-11.433334	0.1724701
1493787086446	-1.9600372	-10.46637	0.7472992
1493787086465	0.1890564	-8.911224	0.79447937
1493787086485	-0.51290894	-8.330582	-0.4779663
1493787086505	-0.41722107	-6.994217	0.25016785
1493787086525	-1.2641144	-5.9701843	0.8832855
1493787086544	-1.7937164	-4.953491	1.9425659
1493787086568	-2.0497284	-4.1663513	2.058548
1493787086590	-2.3140564	-3.7611084	1.7558594
1493787086605	-2.8871918	-3.5634613	1.000824
1493787086625	-3.4912262	-3.7073517	-0.055877686
1493787086645	-3.4315643	-4.957718	-1.3741913
1493787086663	-4.1516266	-7.6199646	-4.535141
1493787086688	-5.2759705	-10.855484	-9.276627
1493787086707	-5.907242	-11.671341	-10.971939
1493787086728	-5.347046	-10.129364	-8.115463
1493787086748	-4.701309	-9.301117	-5.513687
1493787086766	-4.4216003	-9.406158	-4.9171295
1493787086788	-5.621887	-9.241119	-5.570877
1493787086807	-8.030106	-10.530258	-4.6565094
1493787086825	-9.24588	-13.138138	-2.8677826
1493787086843	-6.3183746	-11.573578	-0.3837738
1493787086861	-1.7963562	-8.17601	1.6247101
1493787086885	0.90441895	-6.490692	6.3128815
1493787086905	-0.7544861	-7.57135	7.3764954
1493787086925	-0.47636414	-10.072266	5.69606
1493787086944	0.6493225	-12.03093	2.1970978
1493787086963	0.455719	-12.594711	-0.119522095
1493787086981	-0.46133423	-12.702377	-0.5150299
1493787087000	-2.4694061	-11.490799	0.3482666
1493787087020	-4.0983734	-9.332016	1.143631
1493787087040	-3.8509521	-8.521088	1.2898712
1493787087063	-3.2447357	-8.591049	0.840683
1493787087084	-2.884903	-8.623398	0.73501587
1493787087106	-1.5691681	-9.118027	0.46369934
1493787087125	0.5601959	-9.526932	0.042892456
1493787087146	1.3361969	-9.307175	-0.28770447
1493787087165	1.0531769	-9.14151	-0.7895813
1493787087185	0.6002197	-9.01828	-0.29315186
1493787087205	-0.09939575	-8.789337	0.3738861
1493787087225	-1.0964966	-9.36142	0.1171875
1493787087245	-1.4977875	-9.934433	-0.23248291
1493787087262	-1.6461182	-10.291397	-0.48275757
1493787087280	-1.9054718	-10.755646	-0.3203888
1493787087304	-1.5469666	-11.087097	-0.13916016
1493787087325	-0.27500916	-11.522614	-0.6517639
1493787087344	0.99302673	-11.633057	0.08363342
1493787087363	1.0362549	-11.423126	0.99868774
1493787087384	-0.8006134	-11.460846	-0.48571777
1493787087403	-0.8875885	-11.608337	-1.9863892
1493787087423	0.59158325	-12.22757	-1.8121185
1493787087443	1.8498383	-12.93396	-2.699646
1493787087465	2.8189697	-12.9423065	-2.980667
1493787087480	1.140152	-12.143433	-1.8189392
1493787087502	-2.9278412	-11.171036	-1.3774261
1493787087517	-5.6913757	-11.368286	1.3019562
1493787087537	-7.7409363	-12.931915	3.9753876
1493787087557	-8.452927	-13.684708	3.0947876
1493787087576	-7.0221405	-12.845337	-0.034210205
1493787087601	-5.323105	-12.206146	-2.0003357
1493787087619	-3.815567	-11.722458	-1.389267
1493787087643	-1.115036	-11.441162	0.6618347
1493787087660	0.94755554	-9.945816	0.48139954
1493787087702	-0.8924713	-9.308838	-0.25283813
1493787087718	0.7283783	-7.9217377	0.13523865
1493787087740	-0.44355774	-6.7829437	1.9866486
1493787087760	-1.6187744	-4.408554	2.957779
1493787087777	-1.9262695	-4.155014	2.3251343
1493787087800	-2.3140259	-3.6806183	2.3754425
1493787087821	-2.8002625	-3.384735	2.1251678
1493787087839	-3.329712	-3.5123444	0.8299713
1493787087858	-3.8219757	-4.0498962	-0.743042
1493787087880	-4.1132507	-5.3357697	-1.8550873
1493787087899	-4.465317	-8.808731	-4.8490906
1493787087918	-5.0374146	-13.061203	-9.800461
1493787087938	-5.7710876	-15.22258	-13.119339
1493787087957	-5.5990753	-12.128891	-10.657791
1493787087975	-4.6892853	-9.742218	-5.992859
1493787087996	-4.437088	-8.487595	-3.3920288
1493787088017	-4.99852	-6.4801636	-4.181305
1493787088033	-6.3963013	-7.3388367	-5.487274
1493787088053	-7.9845276	-12.748276	-4.3552856
1493787088072	-6.2955475	-13.481323	0.5258484
1493787088095	-4.170868	-9.255676	4.3957214
1493787088113	-2.626175	-6.379547	5.6578064
1493787088138	-2.1609955	-6.3927917	6.621933
1493787088152	0.0650177	-8.66864	6.522461
1493787088175	1.7322235	-12.095978	4.0438995
1493787088193	2.0640259	-14.148056	0.55226135
1493787088212	2.0475006	-13.745468	-1.776535
1493787088236	0.57496643	-11.371414	-1.2938538
1493787088255	-2.318283	-8.839508	-0.12542725
1493787088272	-4.578354	-7.5006104	-0.004135132
1493787088292	-4.5941467	-7.7806854	-0.34977722
1493787088311	-2.8119354	-9.004761	-0.03036499
1493787088334	-0.7173462	-9.66716	0.925827
1493787088354	-0.22077942	-9.646469	0.47236633
1493787088373	-0.7963562	-9.227386	-0.3456726
1493787088393	-1.3726807	-9.037811	-0.24787903
1493787088412	-1.4872742	-9.424286	0.31292725
1493787088433	-1.0897827	-9.603546	0.7556305
1493787088452	-0.823822	-9.265961	0.29870605
1493787088472	-0.9990387	-9.477646	-0.95199585
1493787088496	-1.0841064	-10.602753	-0.99942017
1493787088511	-0.6573334	-11.069031	-0.5338898
1493787088528	-0.45637512	-11.424484	-0.7067566
1493787088548	-0.04788208	-11.749649	-1.2793884
1493787088568	1.1648407	-12.06752	-0.9686127
1493787088588	1.6210175	-12.102219	-0.08831787
1493787088609	-0.04145813	-12.146057	-1.1759949
1493787088631	-0.27877808	-12.709885	-2.5661163
1493787088650	1.0518341	-13.632019	-3.269287
1493787088669	1.9711304	-13.350983	-3.3768158
1493787088690	0.44155884	-11.637863	-1.4102478
1493787088711	-3.1553192	-10.112808	-1.7064819
1493787088730	-5.8838806	-10.700882	0.7309418
1493787088753	-7.128128	-13.060135	3.0773315
1493787088770	-7.6368103	-14.405243	3.1192474
1493787088787	-6.5465393	-13.738846	0.37812805
1493787088812	-5.1155243	-12.485489	-1.2042999
1493787088829	-1.5616455	-11.177689	-0.039794922
1493787088850	3.109253	-12.480408	-0.43295288
1493787088869	-0.42477417	-12.499084	-1.6017761
1493787088909	0.7812958	-9.663818	-0.07723999
1493787088928	-0.12734985	-7.0861053	1.929245
1493787088949	-1.3675079	-5.244583	2.0239258
1493787088967	-2.1288452	-4.0411377	2.7013855
1493787088984	-2.6394653	-3.5178375	2.3557587
1493787089006	-3.0857239	-3.2474976	1.9441376
1493787089025	-3.4575043	-2.983368	1.2252655
1493787089044	-3.5900116	-3.3161926	0.09603882
1493787089063	-3.664215	-4.2454376	-1.0104218
1493787089084	-3.8331604	-5.512558	-2.041275
1493787089106	-4.415451	-7.692169	-4.603363
1493787089125	-5.0421906	-10.103928	-7.6016846
1493787089144	-5.7703705	-11.49411	-9.513168
1493787089164	-5.235489	-11.031265	-8.534424
1493787089183	-4.52182	-9.805328	-6.491867
1493787089203	-3.9117737	-8.874634	-5.852478
1493787089227	-4.5630035	-8.1532135	-5.93338
1493787089240	-7.3417206	-10.713715	-5.4428406
1493787089260	-8.523956	-15.965561	-5.351349
1493787089279	-5.5713654	-13.732956	-2.6846008
1493787089300	-2.719635	-8.623138	2.359146
1493787089319	-1.3586884	-5.444992	5.5343018
1493787089339	-2.0213013	-5.9483643	5.860779
1493787089358	-0.78215027	-8.78772	5.5186615
1493787089379	1.1382446	-12.169907	4.225464
1493787089398	1.6838531	-13.468414	0.9391632
1493787089418	1.4783478	-12.835922	-0.6603546
1493787089438	-0.6442871	-11.619507	0.3922882
1493787089457	-3.9013672	-9.878342	0.5014496
1493787089477	-4.7094727	-8.102814	0.40272522
1493787089498	-4.0357056	-7.7944183	0.6508484
1493787089517	-3.9487457	-8.93689	-0.21192932
1493787089537	-2.0860443	-9.64534	-0.46038818
1493787089557	0.31288147	-9.707977	0.36924744
1493787089576	0.7255554	-9.440735	-0.09587097
1493787089597	0.063827515	-9.036026	-1.0032959
1493787089616	-0.7865448	-8.957062	-0.80397034
1493787089636	-1.668335	-8.915512	0.06956482
1493787089661	-2.194458	-8.913467	0.5480499
1493787089680	-2.3963318	-9.304459	0.09861755
1493787089696	-2.1048737	-9.996063	-0.26426697
1493787089716	-1.6563873	-10.434952	-0.3347473
1493787089735	-1.2270508	-11.082794	-0.55892944
1493787089755	-0.56259155	-11.719574	-0.9997711
1493787089775	0.44960022	-11.934158	-1.3582458
1493787089794	1.0115662	-12.009186	-1.0791626
1493787089816	1.1476898	-11.8780365	-0.12664795
1493787089836	0.084243774	-11.605423	0.35058594
1493787089855	-0.93258667	-11.871002	-0.5787201
1493787089874	-0.39213562	-12.648468	-1.695221
1493787089896	0.61920166	-12.441544	-3.2377625
1493787089915	1.0734863	-11.62207	-3.2945404
1493787089934	-0.122543335	-10.016525	-1.5231628
1493787089960	-2.8914642	-9.701233	-2.6549683
1493787089975	-4.4778137	-10.815262	-0.57173157
1493787089996	-5.989029	-13.460876	2.0573273
1493787090013	-5.5786743	-13.989502	3.89888
1493787090032	-5.26268	-13.984756	2.024231
1493787090052	-4.2884827	-13.155838	-0.21281433
1493787090074	-3.7190857	-12.277527	-0.7292633
1493787090095	4.7892456	-11.811356	0.35876465
1493787090135	-0.018325806	-12.942856	-3.9111328
1493787090156	-0.65859985	-10.535538	-1.312561
1493787090171	-2.124405	-7.7192535	1.4341736
1493787090196	-2.1436768	-5.935425	1.8834991
1493787090217	-2.1266785	-5.4042053	2.2880554
1493787090236	-2.256256	-5.237015	2.332672
1493787090256	-2.66185	-4.8430634	2.3520355
1493787090276	-3.3692627	-3.9792938	2.1496887
1493787090296	-3.309082	-3.2318115	1.4019012
1493787090314	-3.2482147	-2.907486	0.5940857
1493787090335	-3.6167908	-3.3371887	-1.0267181
1493787090355	-4.2195587	-4.5059967	-2.337082
1493787090375	-5.094452	-6.8825226	-4.428253
1493787090396	-5.806656	-10.904617	-8.279816
1493787090416	-5.903549	-14.473145	-10.27153
1493787090435	-5.983246	-14.209625	-9.32695
1493787090456	-4.5658264	-10.527588	-7.3262024
1493787090474	-3.2714233	-8.19754	-6.0122375
1493787090492	-4.294052	-8.455093	-6.7878876
1493787090511	-6.68309	-13.071487	-6.933365
1493787090534	-6.2840424	-16.038177	-3.8790588
1493787090552	-2.9574432	-10.416367	1.6129913
1493787090570	-2.5316467	-5.650528	4.230194
1493787090589	-3.3405151	-4.5877686	5.425064
1493787090613	-3.311676	-6.7286224	5.165436
1493787090633	-0.78504944	-10.424561	4.3399963
1493787090653	1.4557648	-13.996201	2.3808136
1493787090673	1.2028198	-14.187714	-0.18408203
1493787090693	0.812027	-11.910553	-0.8703308
1493787090713	-0.68930054	-10.064575	-0.060577393
1493787090732	-2.6814423	-8.870056	0.41732788
1493787090752	-3.4837952	-8.174789	0.5888977
1493787090773	-3.1173553	-8.659058	0.71655273
1493787090792	-2.1141205	-9.482651	0.23855591
1493787090811	-1.2939606	-9.526428	-0.5414429
1493787090832	-0.77908325	-9.218414	0.52033997
1493787090853	-0.8847351	-8.952499	0.09812927
1493787090872	-0.8906708	-8.914505	-0.7986603
1493787090891	-1.0546265	-9.119705	-0.19941711
1493787090913	-1.3769379	-9.390457	0.24169922
1493787090931	-1.4189453	-9.439957	0.39187622
1493787090947	-1.7023773	-9.370972	-0.044128418
1493787090972	-1.9689789	-9.496933	-0.21138
1493787090987	-1.9147949	-10.278	0.22148132
1493787091007	-1.2921753	-11.409576	0.10990906
1493787091030	-0.6741791	-11.655243	-0.76457214
1493787091045	0.13606262	-11.449661	-1.180542
1493787091066	0.8164978	-11.456909	-0.25112915
1493787091085	0.16506958	-11.363846	0.39926147
1493787091105	-2.0265198	-11.232101	-0.6495514
1493787091129	-2.9215698	-10.822845	-2.4859924
1493787091148	-1.2671814	-11.612045	-2.3460693
1493787091169	1.8638611	-12.471878	-1.9476166
1493787091188	3.282547	-12.598465	-2.8054657
1493787091208	2.4727173	-11.725464	-1.7081299
1493787091228	-1.5752869	-10.326584	-1.5545654
1493787091248	-5.054489	-11.044144	0.5722046
1493787091268	-7.1171265	-13.401871	2.0588074
1493787091287	-7.202469	-15.122833	3.498886
1493787091304	-5.526001	-13.432953	1.5396729
1493787091327	-3.9087067	-12.151901	-0.92697144
1493787091345	-3.2513123	-11.846497	-1.2696991
1493787091367	-0.866333	-10.716995	1.189621
1493787091386	0.49658203	-11.647888	0.11193848
1493787091427	-0.12670898	-10.92012	-1.9437866
1493787091443	-0.04612732	-8.745819	1.1002808
1493787091463	-0.49996948	-5.8443604	1.8109894
1493787091482	-1.0619049	-4.903412	2.2955017
1493787091499	-1.780014	-4.0686035	2.1305084
1493787091519	-2.173111	-4.013687	2.3469696
1493787091539	-2.6427002	-4.191223	1.8414612
1493787091559	-3.1294708	-3.9512024	0.9164429
1493787091578	-3.5394592	-4.149124	-0.5809021
1493787091603	-3.9354553	-5.1736145	-1.5520172
1493787091624	-4.2377014	-7.8296967	-3.1999207
1493787091643	-4.851486	-12.313477	-7.1180725
1493787091664	-4.994095	-16.768051	-12.209259
1493787091683	-5.198395	-15.008606	-12.133987
1493787091701	-4.560135	-9.638214	-7.0826416
1493787091723	-3.5332947	-7.1736755	-3.7600555
1493787091742	-2.9791718	-5.9922485	-3.8061676
1493787091763	-4.4614105	-6.8965607	-4.6776733
1493787091782	-6.9635468	-12.491455	-5.1608276
1493787091801	-6.472687	-15.521347	-2.2474518
1493787091822	-3.7617035	-11.452484	1.5942078
1493787091841	-2.3472443	-6.9208984	3.3102722
1493787091861	-2.6253204	-4.556793	5.6511536
1493787091881	-2.8358765	-5.829544	5.8167877
1493787091902	-0.93003845	-9.727814	4.4332275
1493787091921	1.2484589	-13.195206	1.7899933
1493787091940	2.404663	-13.571121	0.0854187
1493787091960	1.7338715	-12.03949	-0.12236023
1493787091977	-0.3494568	-10.276337	-0.5167999
1493787091994	-2.46875	-8.828232	-0.40826416
1493787092015	-3.807495	-8.175781	0.16824341
1493787092034	-3.834198	-8.850433	-0.017990112
1493787092054	-2.6792145	-9.292297	-0.14630127
1493787092074	-1.2459717	-9.315613	-0.7757263
1493787092098	0.39707947	-9.429367	0.12713623
1493787092121	0.5466614	-9.636917	0.3529663
1493787092141	-0.3193817	-9.565521	-0.16781616
1493787092160	-0.9107666	-9.222153	0.27253723
1493787092180	-1.3902893	-9.194992	0.65771484
1493787092199	-1.5493011	-8.991089	0.5361786
1493787092220	-1.9124756	-9.01767	-0.274292
1493787092239	-2.0035095	-9.622818	-0.76530457
1493787092261	-1.4978027	-10.373749	-0.7490692
1493787092279	-0.17170715	-11.178955	-0.868927
1493787092298	1.0256958	-11.718964	-1.0503693
1493787092319	1.4880829	-11.897827	-0.50427246
1493787092338	0.5941925	-11.317841	0.30667114
1493787092358	0.25068665	-11.510147	-0.4235077
1493787092378	0.20567322	-13.027313	-1.1455536
1493787092397	-0.35134888	-13.661545	-2.7766876
1493787092417	0.10873413	-13.21077	-3.1257935
1493787092437	-1.0503387	-11.9518585	-1.918457
1493787092456	-4.048462	-10.822174	-1.3820801
1493787092477	-6.3642273	-9.748703	0.47494507
1493787092493	-8.311462	-10.615158	1.4487915
1493787092515	-10.2018585	-15.041489	1.7796783
1493787092532	-7.976349	-15.018494	2.1909027
1493787092551	-4.380432	-10.955429	0.21299744
1493787092572	-2.49263	-9.938065	-1.9787903
1493787092614	-2.2598114	-9.267288	-1.2483826
1493787092634	0.42514038	-9.510468	0.6235962
1493787092652	0.014297485	-9.542847	-1.1223145
1493787092673	-1.9771423	-7.92511	-0.98139954
1493787092692	-1.5150604	-7.130371	0.26805115
1493787092709	-1.2376709	-6.515747	0.57121277
1493787092731	-1.5655212	-5.4552765	0.72817993
1493787092748	-2.1739044	-4.133972	0.8831482
1493787092768	-2.1908875	-3.9787903	0.89707947
1493787092788	-2.0726624	-4.573883	0.44773865
1493787092807	-2.1735687	-5.676483	-0.5318146
1493787092827	-2.4386902	-6.8023376	-2.0345612
1493787092847	-2.8292542	-7.764038	-3.5195313
1493787092871	-3.2668304	-9.237808	-5.7540894
1493787092891	-3.4497375	-11.200638	-8.686035
1493787092909	-4.181885	-11.640442	-10.250351
1493787092931	-4.3952637	-9.295975	-9.127426
1493787092952	-4.048584	-8.582062	-6.4004974
1493787092970	-3.643753	-9.129211	-4.544037
1493787092990	-3.1858215	-9.840942	-4.342987
1493787093014	-3.5903168	-8.3497925	-3.7925262
1493787093028	-4.758148	-5.993683	-3.1280823
1493787093049	-6.7982483	-5.5652466	-2.6124573
1493787093067	-9.125763	-9.448395	-2.5724945
1493787093087	-8.857254	-15.715042	-3.8867035
1493787093107	-6.042557	-16.0327	-3.7952423
1493787093129	-2.6468658	-10.071335	1.2138672
1493787093149	-1.7132568	-5.7438354	6.9357147
1493787093170	-3.12294	-5.3633575	5.766342
1493787093188	-2.841568	-7.1423645	4.0997925
1493787093207	-0.44932556	-9.213181	3.8740387
1493787093232	0.89601135	-11.722992	2.4786377
1493787093250	0.14379883	-13.327454	0.3861084
1493787093270	-0.6985779	-12.390366	0.78359985
1493787093292	-1.9175262	-10.647156	1.8356171
1493787093307	-2.7059784	-9.282166	1.5170135
1493787093329	-2.7300568	-8.620819	0.80892944
1493787093350	-2.4268036	-9.246643	0.84802246
1493787093369	-1.3521271	-9.800339	2.1154022
1493787093389	-0.5161438	-10.108322	2.8341522
1493787093408	-0.14639282	-10.23967	2.062683
1493787093429	1.4634094	-10.578918	1.4193573
1493787093448	2.4583588	-11.146545	2.0424347
1493787093468	1.6729736	-10.382721	1.1975555
1493787093486	0.61257935	-9.644043	-0.6796112
1493787093504	0.19244385	-9.427017	0.049362183
1493787093523	0.046051025	-9.52681	0.049102783
1493787093545	-0.49893188	-9.26001	0.27978516
1493787093563	-0.79156494	-9.065704	1.0663605
1493787093583	-0.7518921	-9.732254	0.8548279
1493787093602	-0.026641846	-9.9366	0.26890564
1493787093626	0.8891449	-10.191513	0.018478394
1493787093646	1.0780792	-10.484009	-0.13319397
1493787093665	0.78752136	-10.691986	-0.48849487
1493787093686	0.7802887	-10.657608	-1.2289124
1493787093705	1.2909698	-11.099091	-1.359436
1493787093725	1.2071381	-11.478958	-0.9397125
1493787093745	0.362854	-11.291122	-1.1071167
1493787093766	-0.6156006	-11.089447	-2.6038208
1493787093785	-0.47447205	-11.170273	-4.072235
1493787093804	0.85858154	-12.296051	-3.125183
1493787093823	0.90930176	-12.990448	-2.7581024
1493787093864	0.18495178	-12.135056	-1.9267578
1493787093864	-1.9601288	-12.276825	-0.8158722
1493787093903	-6.0475464	-13.638901	0.063308716
1493787093923	-8.6528015	-14.608948	2.570221
1493787093944	-8.559158	-14.280594	3.393219
1493787093962	-7.544098	-14.029465	-0.4038849
1493787093984	-3.0066528	-13.042496	-2.92865
1493787094005	4.038925	-12.532776	0.036712646
1493787094020	2.771881	-12.768921	-1.8927155
1493787094040	-1.3698578	-11.150909	0.034301758
1493787094061	-2.7660675	-8.73259	1.5522919
1493787094078	-2.6092224	-6.426361	3.403305
1493787094098	-1.8222046	-4.811844	3.016098
1493787094116	-1.1401978	-3.6110687	3.3000946
1493787094140	-1.7992859	-2.806488	2.373413
1493787094189	-2.2024078	-2.7333984	1.5331726
1493787094189	-2.4681244	-3.1921692	0.33337402
1493787094197	-2.456604	-3.8020782	-0.8913727
1493787094214	-2.7442627	-4.475296	-2.1161652
1493787094253	-3.2309875	-5.579178	-3.821457
1493787094255	-4.1789246	-8.643158	-7.3179474
1493787094275	-4.7517395	-12.669647	-10.779083
1493787094294	-5.366852	-13.834534	-10.8042755
1493787094313	-5.421585	-11.020859	-8.312775
1493787094334	-4.361679	-8.3785095	-5.8366547
1493787094354	-4.162857	-6.6470184	-4.8609924
1493787094373	-6.197113	-6.2397614	-4.6208344
1493787094393	-9.283859	-10.644638	-4.3325195
1493787094415	-9.514114	-16.032074	-4.155716
1493787094433	-6.437729	-14.337555	-2.1123962
1493787094452	-2.3194733	-7.551895	3.5655365
1493787094472	-1.562088	-4.585663	7.078842
1493787094492	-2.8151703	-6.9543304	5.516266
1493787094512	-0.62857056	-10.419479	5.1042633
1493787094532	1.7392578	-13.345596	3.4235382
1493787094552	2.2358398	-14.228378	-0.5571594
1493787094571	1.4417572	-12.616043	-1.6869202
1493787094592	-0.682312	-10.612366	-0.2927704
1493787094613	-3.3010712	-8.829712	-1.2632904
1493787094633	-2.885254	-7.738617	-0.86672974
1493787094653	-1.9340363	-8.495041	2.3180542
1493787094671	-2.2196198	-9.325424	3.2633667
1493787094691	-3.333847	-7.808075	0.053497314
1493787094711	-4.6302185	-8.261856	-0.071746826
1493787094730	-0.9364624	-9.695984	-2.2647095
1493787094758	2.635025	-10.6931	-0.58135986
1493787094770	2.2343292	-10.64003	-0.08050537
1493787094789	0.95396423	-9.830643	-0.5262604
1493787094809	0.15065002	-9.610718	-0.6925354
1493787094831	-0.50245667	-9.858688	-1.0464478
1493787094849	-1.0367737	-9.818924	-1.1345673
1493787094872	-1.4104004	-9.410294	-0.6178894
1493787094892	-1.4952545	-9.55394	0.7179718
1493787094912	-1.4857178	-10.450897	0.95544434
1493787094932	-0.2701416	-11.063782	1.0063934
1493787094952	0.25315857	-11.0967865	1.515274
1493787094970	-1.2844849	-11.296234	1.4513855
1493787094990	-2.4161377	-11.607986	-0.9840851
1493787095009	-0.40072632	-12.787048	-1.4935303
1493787095033	0.78349304	-13.127335	-1.198822
1493787095048	1.2111511	-13.039505	-2.3202515
1493787095088	2.0849	-12.94606	-2.7107697
1493787095106	-1.063324	-11.726044	-2.8572998
1493787095126	-3.0644073	-9.1418	-0.98017883
1493787095146	-3.8121185	-8.348175	-0.0947876
1493787095166	-5.382599	-10.316818	2.032257
1493787095185	-7.5981903	-13.204666	2.33432
1493787095205	-6.2605133	-13.33223	1.3629761
1493787095225	-4.538681	-12.084396	-0.27999878
1493787095245	-4.0911255	-11.770981	-1.8673248
1493787095265	-2.6974335	-11.233994	-0.93930054
1493787095285	-1.749588	-9.9848175	-0.27259827
1493787095304	0.06347656	-9.176285	-0.88464355
1493787095323	0.07827759	-9.264954	-1.4979248
1493787095344	-0.7561493	-8.376587	-0.094833374
1493787095364	-1.1817017	-6.9774475	0.40151978
1493787095389	-1.4802399	-5.6054993	1.1000519
1493787095409	-1.2084503	-4.8974457	1.3205566
1493787095427	-1.1969147	-4.5680695	1.3174438
1493787095445	-1.4470062	-4.631134	0.75361633
1493787095467	-1.5814514	-5.2733307	-0.46948242
1493787095485	-1.5997772	-6.303543	-1.9119415
1493787095511	-1.9244995	-8.227554	-4.0713654
1493787095527	-2.6684418	-11.254547	-7.995468
1493787095549	-3.1126099	-12.706558	-10.206177
1493787095568	-3.4146118	-11.562164	-9.337158
1493787095588	-3.2720795	-9.6923065	-6.5750427
1493787095607	-3.3218994	-9.558121	-3.893402
1493787095628	-3.9245605	-8.866516	-0.43936157
1493787095648	-4.7855835	-6.1637573	1.3092194
1493787095667	-5.5454254	-8.698288	-2.4867249
1493787095687	-2.6363068	-15.522125	-3.188858
1493787095707	-1.0106506	-16.722977	-0.2593689
1493787095725	-1.2432251	-11.602982	2.0210571
1493787095746	-1.1282501	-6.6815796	5.2597046
1493787095766	-1.9025726	-7.381897	3.8333282
1493787095786	-0.84983826	-10.032913	1.8097992
1493787095806	0.353714	-12.312103	0.85472107
1493787095825	0.28694153	-12.368149	0.69218445
1493787095844	-0.9213104	-10.531433	0.88835144
1493787095864	-1.9398346	-9.164856	0.44677734
1493787095885	-2.6218872	-8.835587	-0.14801025
1493787095905	-3.3155823	-8.837845	-1.1749573
1493787095924	-3.7684631	-8.713348	-2.0536041
1493787095945	-2.9165955	-9.249161	-2.9053955
1493787095964	-1.5350647	-9.759232	-2.6707153
1493787095984	-0.44363403	-9.646484	-1.1474915
1493787096004	-0.8739624	-9.775009	-0.05857849
1493787096023	-1.5623474	-9.985291	0.2851715
1493787096044	-1.9984894	-9.804779	0.6153259
1493787096063	-2.7340393	-9.654953	0.43621826
1493787096083	-3.2691345	-9.717026	0.20692444
1493787096103	-2.8585358	-9.70282	0.46392822
1493787096122	-1.5394287	-9.5694275	1.152771
1493787096142	-0.9443207	-9.360519	1.7003021
1493787096162	-0.57315063	-9.2668915	1.8949738
1493787096182	-0.7812195	-9.124893	2.1038208
1493787096202	-1.1871643	-9.289978	1.7465057
1493787096222	-1.7068481	-9.782028	0.7321167
1493787096239	-1.7616119	-10.181137	0.8526459
1493787096261	-1.7884369	-10.367798	1.122879
1493787096280	-2.2564545	-10.299789	0.48510742
1493787096301	-2.554123	-10.091278	-0.5432129
1493787096323	-2.292923	-9.869308	-0.80895996
1493787096360	-1.8520203	-9.520676	-1.0249786
1493787096376	-0.7505646	-9.818817	-1.076355
1493787096403	0.08099365	-10.187225	-0.92567444
1493787096420	-3.4225922	-9.055969	-1.1681213
1493787096437	-2.6147614	-9.5108795	-1.8197479
1493787096462	-1.9367523	-10.470673	-2.0697174
1493787096477	-2.6453094	-11.310059	-2.6844635
1493787096501	-3.2071075	-11.85054	-2.916626
1493787096521	-2.8182526	-11.887985	-2.7115784
1493787096539	-2.649109	-11.563202	-2.1248627
1493787096559	-3.0070343	-11.043533	-1.7038269
1493787096578	-3.3093567	-11.29863	-1.6634827
1493787096599	-2.948639	-11.551056	-1.4453125
1493787096618	-2.9328156	-11.692352	-1.728653
1493787096636	-2.210434	-10.977676	-1.8099213
1493787096658	-0.8122711	-10.388763	-0.957428
1493787096677	0.2177124	-10.665024	0.64064026
1493787096698	1.497467	-10.236542	2.505539
1493787096717	2.461853	-10.792358	2.2254486
1493787096736	1.433258	-10.600708	0.98287964
1493787096757	-0.65426636	-9.924164	0.0071868896
1493787096776	-3.238205	-8.784729	0.69055176
1493787096796	-4.34816	-7.4659576	0.2810669
1493787096816	-4.3189697	-7.3805847	-0.08042908
1493787096837	-3.6048584	-8.289505	-0.33732605
1493787096856	-3.0005035	-8.670334	-0.6585846
1493787096876	-2.726471	-8.026932	-0.9911499
1493787096896	-2.986618	-7.4468536	-1.1714478
1493787096916	-3.4752045	-6.9134674	-1.5636902
1493787096933	-3.7722015	-6.7500153	-2.5771942
1493787096955	-4.0495453	-6.6640625	-3.6252747
1493787096975	-4.531311	-6.8444366	-4.3861847
1493787096995	-4.825882	-7.414551	-5.044815
1493787097015	-4.90477	-8.134216	-5.410187
1493787097033	-5.227829	-8.503326	-4.7704315
1493787097054	-6.4765778	-9.291061	-4.169052
1493787097074	-7.5239563	-12.889557	-4.1693573
1493787097094	-5.8183594	-13.632431	-1.9753876
1493787097114	-2.4441986	-8.74202	2.455902
1493787097133	-2.06839	-5.5352936	4.2246704
1493787097154	-3.837906	-6.374527	3.1647034
1493787097173	-3.6986542	-8.652817	3.789215
1493787097193	0.368515	-11.483215	2.4914703
1493787097213	3.2940063	-13.796692	-0.3715515
1493787097232	3.3766785	-14.7724	-1.2059479
1493787097252	1.040451	-13.322311	0.12013245
1493787097268	-1.6945953	-10.027588	0.5145416
1493787097288	-4.502838	-8.472168	-0.12651062
1493787097306	-3.7847595	-9.015732	-0.01159668
1493787097326	-3.65625	-9.847519	-0.3816223
1493787097346	-2.59404	-9.427017	0.27911377
1493787097366	-3.028885	-9.010345	0.34658813
1493787097385	-1.8049011	-8.700577	-0.3738861
1493787097405	-0.7121277	-9.177338	-0.43069458
1493787097425	-0.84880066	-9.054947	-0.13200378
1493787097445	-0.7253113	-8.868805	0.16514587
1493787097464	-1.0521545	-8.634796	0.7223816
1493787097484	-1.5666199	-8.676025	1.1948395
1493787097504	-1.4346313	-8.729355	1.309021
1493787097544	-1.002945	-8.574127	1.0736237
1493787097564	-1.0832977	-8.776779	0.6578369
1493787097583	-1.8177338	-10.037979	-0.35569763
1493787097603	-2.9851227	-11.554962	-1.7268982
1493787097623	-2.5245056	-11.680908	-1.8022156
1493787097643	-0.8838959	-11.415268	-0.36123657
1493787097662	0.439682	-10.883026	1.337677
1493787097682	-5.493164E-4	-11.051819	1.1565247
1493787097702	-0.7135315	-11.994705	-0.49291992
1493787097722	-0.6358795	-12.877792	-1.4233551
1493787097742	-0.21620178	-13.254211	-2.0977783
1493787097761	1.4353943	-13.175888	-2.899063
1493787097781	2.730484	-12.675507	-2.5761871
1493787097801	0.7268219	-11.21405	-1.9451141
1493787097821	-2.3594666	-10.229874	-1.6112213
1493787097840	-3.1772308	-11.260788	0.5792999
1493787097861	-4.979187	-14.035233	2.0876465
1493787097881	-6.0779724	-15.294418	3.133728
1493787097901	-6.288849	-14.031876	2.564392
1493787097920	-4.656662	-11.99176	0.94493103
1493787097940	-2.4396973	-11.568008	-0.5344696
1493787097960	1.0549774	-12.047241	-2.6690369
1493787097980	3.031189	-12.632935	-4.418457
1493787098000	0.015823364	-11.872299	-2.5295715
1493787098019	-0.7224884	-10.233566	-0.6199188
1493787098040	-1.948761	-8.825943	0.4650421
1493787098059	-1.9003754	-7.428467	0.9902954
1493787098079	-2.4679718	-6.6620636	0.6995239
1493787098099	-2.9717102	-5.783539	0.4948578
1493787098118	-3.3355103	-4.4582214	0.22695923
1493787098138	-3.5395813	-3.2045746	0.08100891
1493787098159	-3.5075836	-2.9019318	-0.10380554
1493787098182	-3.1096497	-3.172577	-0.34417725
1493787098202	-2.543808	-3.5805817	-0.9051361
1493787098222	-2.2762756	-4.373337	-1.9812012
1493787098238	-2.3133392	-5.249878	-3.499878
1493787098261	-2.4456787	-5.870102	-4.989044
1493787098283	-2.6304321	-7.22435	-6.8013153
1493787098299	-2.8640594	-9.6328125	-8.546295
1493787098319	-3.2406769	-10.914703	-8.003952
1493787098339	-4.159195	-10.4626465	-6.8068237
1493787098357	-5.193283	-9.476166	-6.699234
1493787098376	-5.7020264	-8.551712	-6.084366
1493787098396	-5.457016	-7.4203644	-4.8249817
1493787098416	-5.728958	-6.764267	-5.007324
1493787098435	-5.7951965	-6.0144806	-4.0743866
1493787098458	-8.948715	-8.545334	-2.4223785
1493787098989	-12.997864	-17.2406	-4.7685394
1493787098990	-10.362793	-19.474823	-5.3502655
1493787098990	-1.3900146	-11.486542	1.6310272
1493787098990	0.16711426	-3.4249268	7.413391
1493787098990	-0.8630676	-4.0388947	5.8788605
1493787098991	1.8128052	-8.62059	6.8674164
1493787098991	3.4668121	-13.634796	6.345337
1493787098991	3.4999084	-15.582001	-0.43356323
1493787098991	3.4893494	-15.104507	-5.2713623
1493787098991	-0.13067627	-11.752304	-0.90382385
1493787098991	-3.9728394	-9.040558	-1.2294006
1493787098992	-4.6176147	-7.290146	-2.0490723
1493787098992	-2.5944061	-7.1988373	-0.8652191
1493787098992	-1.480545	-10.31842	-1.6102142
1493787098992	-0.85006714	-11.995697	-3.7911682
1493787098992	0.9313812	-10.768387	-2.5067291
1493787098992	2.2664948	-8.811478	-0.88812256
1493787098993	1.0030518	-7.2244873	0.3434906
1493787098993	-2.1252136	-7.210602	-0.18289185
1493787098993	-2.9047394	-7.8410187	-0.5068512
1493787098993	-2.8577728	-8.392288	-0.54167175
1493787098993	-1.8296509	-9.210144	-0.22206116
1493787098993	-0.9623108	-9.387634	0.6235504
1493787098993	-1.5561676	-9.302307	0.7752228
1493787098994	-2.653305	-9.895706	0.37841797
1493787098997	-3.082199	-10.490616	0.48284912
1493787099015	-2.7638092	-11.000214	-0.047180176
1493787099036	-1.342926	-11.497253	-0.41729736
1493787099055	1.1117706	-11.864517	-0.1690979
1493787099076	2.368393	-12.331711	0.035964966
1493787099095	2.1254883	-12.847015	-0.24975586
1493787099115	0.6491394	-12.63356	-0.786438
1493787099135	-0.5909271	-11.999527	-1.4813995
1493787099153	-0.64849854	-11.42421	-2.227234
1493787099175	-0.07408142	-11.58432	-2.8936615
1493787099194	0.95687866	-11.547455	-3.037323
1493787099214	2.0238647	-10.917831	-1.6598053
1493787099234	2.2737274	-10.918579	0.3499756
1493787099252	-1.450943	-11.292358	1.3487091
1493787099273	-6.7606354	-11.136124	1.951889
1493787099290	-7.3824615	-11.843063	2.5675812
1493787099312	-6.0110626	-12.583221	2.5578918
1493787099327	-4.4922028	-13.310974	1.4169922
1493787099349	-2.2821655	-13.709915	0.7229767
1493787104298	2.615799	-13.501038	-1.165802
1493787104298	3.7021332	-13.757599	-2.9823608
1493787104298	1.068161	-12.2925415	-0.7234802
1493787104298	0.39660645	-9.965057	2.1837463
1493787104298	-0.92889404	-7.387787	3.5518036
1493787104298	-2.1911316	-5.5690765	3.1878967
1493787104298	-2.7935486	-5.0750885	3.2640686
1493787104298	-3.435089	-4.7785034	3.1945496
1493787104298	-3.8889313	-4.6986084	2.7121735
1493787104298	-3.9468536	-4.3946533	1.9744568
1493787104298	-4.333786	-4.189972	1.02005
1493787104298	-4.842392	-4.726059	0.22010803
1493787104298	-5.052109	-6.1428833	-0.6737366
1493787104298	-5.226059	-8.40831	-3.46492
1493787104299	-4.9213104	-11.297256	-7.7781067
1493787104299	-4.066757	-13.098526	-11.445374
1493787104299	-2.2095032	-11.97728	-10.965729
1493787104299	-1.0527802	-10.0421295	-7.331711
1493787104299	-0.9339905	-8.0186	-4.8259583
1493787104299	-2.0426025	-6.376358	-5.466568
1493787104299	-5.18692	-8.496872	-5.979477
1493787104299	-7.725006	-17.0867	-4.548584
1493787104299	-6.2167206	-17.370758	2.1019287
1493787104299	-5.7912292	-11.973831	-0.024490356
1493787104299	-3.6780243	-5.704788	3.2582703
1493787104299	-4.5492554	-2.9906769	7.1256714
1493787104299	-2.4230957	-4.6849976	10.624313
1493787104299	0.7727814	-9.480408	7.438919
1493787104299	0.6695709	-14.308533	3.4110107
1493787104299	3.195404	-15.149979	-1.4368896
1493787104299	3.7576752	-12.552048	-2.5330353
1493787104299	-0.57748413	-8.7322235	1.1624146
1493787104299	-5.120056	-7.0071106	-0.042160034
1493787104299	-4.445175	-7.773178	0.7028351
1493787104299	-2.6054535	-9.497879	1.1284027
1493787104299	-0.697052	-10.510101	0.35650635
1493787104299	0.609787	-10.09964	-1.2371368
1493787104299	0.30003357	-9.726746	-0.14785767
1493787104299	-0.16564941	-9.248795	-0.14407349
1493787104299	-0.41687012	-8.699127	0.4002533
1493787104299	-0.020996094	-9.059357	1.2795868
1493787104299	-0.12980652	-9.521698	0.5565796
1493787104299	-1.1820679	-9.636871	-0.33114624
1493787104300	-2.3125	-9.947708	-0.7695923
1493787104300	-2.6536407	-10.944031	-0.7515259
1493787104300	-1.0261688	-11.345627	-0.4485321
1493787104300	0.40415955	-11.854721	-0.9194641
1493787104300	2.8216553	-12.2951355	0.6793213
1493787104300	2.40271	-12.334244	1.7949066
1493787104300	-0.9507446	-12.5915985	-0.8949585
1493787104300	-1.2531128	-12.156235	-1.6735535
1493787104300	0.3377533	-11.873337	-1.8155365
1493787104300	2.2481537	-12.542908	-2.8806
1493787104300	2.8252106	-12.413803	-3.3087006
1493787104300	0.6613312	-11.713608	-1.8942261
1493787104300	-3.8151855	-10.401642	-0.37153625
1493787104300	-7.418091	-9.679199	1.0522766
1493787104300	-8.119049	-11.947067	3.25148
1493787104300	-8.468887	-14.472031	2.9898376
1493787104300	-6.672409	-13.954544	0.93540955
1493787104300	-4.195694	-12.289886	-1.8007813
1493787104300	-2.309082	-11.599518	-1.045929
1493787104300	-0.52908325	-11.527573	0.50379944
1493787104300	-1.131607	-11.524719	-0.9070587
1493787104300	-1.8910828	-9.664215	-0.81196594
1493787104300	-1.2954559	-7.412918	1.0430145
1493787104300	-0.7849121	-5.928711	2.3978424
1493787104300	-1.2729034	-4.624069	3.0641327
1493787104300	-1.8139801	-3.7983246	3.1099396
1493787104300	-2.3283234	-3.2095032	2.7546997
1493787104300	-2.8188324	-3.1165314	2.0158997
1493787104300	-3.3758545	-3.7708588	0.58721924
1493787104301	-3.7393646	-4.7762756	-0.9411011
1493787104301	-3.8104095	-6.432785	-1.9838104
1493787104301	-4.1113586	-9.514999	-5.0577393
1493787104301	-4.760544	-13.413208	-10.202667
1493787104301	-5.8968964	-14.271347	-13.172485
1493787104301	-5.989563	-11.377304	-10.56546
1493787104301	-4.988693	-9.028763	-5.6297607
1493787104301	-4.3224945	-8.920197	-3.0408173
1493787104301	-6.446991	-10.282135	-3.8067627
1493787104301	-8.917847	-13.785919	-5.094742
1493787104301	-6.6578217	-11.885269	-1.5454559
1493787104301	-6.1657715	-9.0616	0.70706177
1493787104301	-1.254776	-6.0206757	5.92749
1493787104301	-0.7346039	-6.1974487	6.770569
1493787104301	-0.08299255	-8.701599	7.2450867
1493787104301	0.63687134	-11.64798	5.0685425
1493787104301	2.4969482	-12.967911	2.5138092
1493787104301	1.064682	-12.943024	-1.7541962
1493787104301	0.52186584	-11.460785	-1.051178
1493787104301	-0.96295166	-11.072327	0.15934753
1493787104301	-4.1922455	-9.150925	0.4396057
1493787104301	-4.249832	-7.255951	0.87168884
1493787104301	-3.6551208	-8.019363	0.53759766
1493787104301	-1.9565887	-9.475998	1.3062592
1493787104301	-0.68569946	-10.348389	0.77941895
1493787104301	-0.20283508	-10.062546	-0.17958069
1493787104301	0.7140045	-9.7556	-1.1983185
1493787104301	0.6452637	-9.782501	-0.60246277
1493787104301	-0.050201416	-9.47525	-0.3213501
1493787104302	-0.2868042	-9.361511	-0.02166748
1493787104302	-0.60876465	-9.535477	-0.67349243
1493787104302	-0.6030884	-9.654266	-0.5252228
1493787104302	-0.1884613	-9.85997	-0.929245
1493787104302	-0.080444336	-10.325882	-1.4523926
1493787104302	0.033981323	-10.846115	-1.2622528
1493787104302	0.50172424	-11.084152	-1.0641937
1493787104302	1.2587585	-11.314392	-0.6893921
1493787104302	1.8007202	-11.452301	-0.0050811768
1493787104302	1.0094757	-11.415619	-0.6978607
1493787104302	-1.1339264	-12.878021	-2.0873718
1493787104302	-2.4656982	-14.249603	-2.37146
1493787104302	-2.4829102	-12.947632	-3.817276
1493787104302	-3.416565	-10.768509	-3.6528778
1493787104302	-5.719345	-10.05806	-1.9871979
1493787104302	-6.7435455	-9.479355	0.671402
1493787104302	-6.609558	-11.186707	2.8982239
1493787104302	-5.9561768	-13.723755	2.0189514
1493787104302	-4.5398254	-12.744293	0.051086426
1493787104302	-2.8282318	-10.021774	-0.4980774
1493787104302	-2.401062	-8.890503	-1.3683624
1493787104302	-2.3550262	-8.741974	-0.5008545
1493787104302	-2.4367523	-8.624466	0.3827362
1493787104302	-2.9641876	-7.987686	-0.11778259
1493787104302	-2.8533478	-7.3794403	-0.7331848
1493787104302	-2.5911713	-7.1959686	-0.82684326
1493787104302	-2.4353485	-5.8664093	-0.36827087
1493787104302	-2.331833	-5.3547516	-0.16647339
1493787104302	-2.074585	-5.385681	0.028900146
1493787104302	-1.91362	-5.8600464	-0.23059082
1493787104303	-2.227768	-6.8741913	-1.3456268
1493787104303	-2.6404114	-7.10524	-2.1268005
1493787104303	-3.41951	-8.369904	-2.8136444
1493787104303	-3.3481903	-9.94632	-4.530365
1493787104303	-2.6865082	-11.593567	-7.446274
1493787104303	-2.5499115	-11.677414	-9.387878
1493787104303	-3.0834808	-9.951202	-8.596649
1493787104303	-3.492279	-8.655304	-6.3976135
1493787104303	-3.7181854	-8.442947	-3.8500671
1493787104303	-4.08873	-9.569962	-0.7563782
1493787104303	-5.717743	-11.526947	-0.5929413
1493787104303	-7.30777	-13.410019	-3.5074005
1493787104303	-5.6035004	-12.668015	-2.649231
1493787104303	-1.6911774	-8.46611	2.2850952
1493787104303	-1.5367432	-7.4666443	4.748459
1493787104303	-2.8230896	-6.5534515	4.23703
1493787104303	-3.86763	-8.380783	2.6262054
1493787104303	-1.9488068	-8.214569	1.4341278
1493787104303	-0.522522	-10.999664	2.1574097
1493787104303	0.19773865	-10.828217	2.370819
1493787104303	-1.5559998	-10.496841	3.3748932
1493787104303	0.36631775	-14.828217	-2.1149902
1493787104303	0.05267334	-9.150406	-2.6960602
1493787104303	-2.8954468	-8.873322	-0.874176
1493787104303	-3.0753021	-9.329269	0.41271973
1493787104303	-2.8959656	-8.4375	2.0141907
1493787104303	-1.2683411	-8.74527	2.8471527
1493787104303	-1.2944336	-9.712418	2.9124146
1493787104303	-1.2266235	-10.754318	-0.4486084
1493787104303	-2.2449799	-9.318512	-6.2233276
1493787104304	-1.9345398	-10.3377075	-1.7790833
1493787104304	-1.1737823	-10.244064	-2.3686676
1493787104304	-1.0450287	-9.894806	-2.146698
1493787104304	-1.7053833	-10.5598755	-1.8861389
1493787104304	-1.407074	-11.075363	-1.9020233
1493787104304	-1.3124847	-11.163483	-1.3201447
1493787104304	-0.8150635	-11.313675	-0.6329193
1493787104304	-0.3230896	-12.061249	-0.2763214
1493787104304	-0.05290222	-12.901718	0.032974243
1493787104304	-1.0800629	-13.51152	1.7082672
1493787104304	-2.3766327	-13.216934	3.6050262
1493787104304	-1.5631866	-11.258057	4.6956177
1493787104304	-1.3248291	-10.329224	1.3105469
1493787104304	-2.0173798	-11.054672	-0.345047
1493787104304	0.43270874	-10.049393	-1.0840302
1493787104304	-1.651123	-12.231125	-0.49017334
1493787104304	-4.198654	-9.261032	-0.83792114
1493787104304	-2.9578552	-9.415375	1.252243
1493787104304	1.609909	-14.514664	3.7896118
1493787104304	4.7957	-10.156036	0.09336853
1493787104304	1.963501	-9.48288	-0.8343048
1493787104304	-1.8786163	-9.873932	-1.8950806
1493787104304	-1.0146637	-9.366043	-0.8230133
1493787104304	0.17636108	-8.980606	-0.7366791
1493787104304	0.24130249	-10.289032	1.2633667
1493787104304	2.1941376	-11.097687	3.6738434
1493787104304	5.6000977	-10.16954	4.6287384
1493787104304	7.8438873	-10.788528	5.6873016
1493787104305	8.524307	-11.627075	8.361862
1493787104305	7.6735535	-11.920319	7.0592957
1493787104305	7.500839	-11.176117	8.202927
1493787104305	7.45224	-9.766373	8.209015
1493787104305	6.4321594	-7.535843	6.700897
1493787104305	4.147476	-5.868973	7.0371246
1493787104305	1.6195831	-5.2483215	7.3607483
1493787104305	-0.9104614	-4.8650055	8.090866
1493787104305	-2.1744537	-4.1451263	8.56282
1493787104305	-2.3131866	-3.3342133	7.557831
1493787104305	-1.838028	-2.625702	5.703644
1493787104305	-1.1065521	-2.305359	5.35643
1493787104305	-0.778183	-2.7971802	5.344467
1493787104305	-0.6947632	-2.951004	4.60112
1493787104305	-0.8583679	-3.4878998	4.0750427
1493787104305	-1.3739166	-3.8199005	4.6930695
1493787104305	-2.3404388	-3.5494385	6.188858
1493787104305	-2.863037	-2.4164429	7.2375946
1493787104305	-2.3629303	-2.6736908	6.2647247
1493787104305	0.47914124	-1.6404419	9.776733
1493787104305	0.72872925	-2.3909302	12.502563
1493787104305	2.088623	-2.2844696	12.581421
1493787104306	15.076065	2.331604	-0.09440613
1493787104306	2.7015991	0.39157104	8.405151
1493787104306	0.4695282	0.4711151	7.8309326
1493787104306	-0.46159363	0.34013367	8.61351
1493787104306	-0.60139465	0.5610504	8.558884
1493787104306	-0.8242035	1.1244049	8.634399
1493787104306	0.045288086	0.85227966	9.535782
1493787104306	-0.23937988	1.0079498	10.585953
1493787104306	0.051345825	1.0071716	10.301498
1493787104306	0.8905487	1.0616913	9.960495
1493787104306	0.8408356	0.83195496	9.889374
1493787104306	0.6574402	0.76631165	10.145416
1493787104306	0.731781	0.576355	11.339996
1493787104306	0.1590271	0.2967682	10.70961
1493787104306	-1.4255219	0.38967896	10.523788
1493787104306	-2.0248108	0.20698547	11.116959
1493787104306	-1.4405975	0.5067291	9.897491
1493787104306	1.152008	1.4602661	9.252686
1493787104306	0.85105896	0.9907532	10.759369
1493787104306	0.4375	0.9351959	9.522385
1493787104306	0.32292175	1.2846375	9.438751
1493787104306	0.6781311	1.5267639	9.309006
1493787104307	1.0237579	1.5220795	9.396194
1493787104307	1.4759979	1.1361389	9.905151
1493787104307	1.7498169	0.94488525	9.963516
1493787104307	1.9204102	1.1322632	9.514175
1493787104307	1.9552612	1.0696106	9.415314
1493787104307	1.4263	0.5102539	10.080902
1493787104307	0.27189636	0.019622803	10.338593
1493787104307	-0.62919617	0.62971497	10.171936
1493787104307	-1.1882477	1.4789429	9.8841095
1493787104307	-0.8478546	1.6355896	9.65918
1493787104307	-0.5184784	1.5186462	9.299072
1493787104307	-1.1078949	1.6536255	9.080627
1493787104325	-1.5108337	2.246231	8.987473
1493787104348	-1.6674805	2.6401367	8.742935
1493787104365	-1.3871307	2.5074005	8.817505
1493787104386	-1.3064575	2.2265625	8.829605
1493787104405	-1.5714722	2.4393616	8.98764
1493787104425	-1.5946198	2.5917664	9.131836
1493787104445	-1.425354	2.3224182	9.514862
1493787104465	-1.2320557	2.1006165	9.809525
1493787104484	-0.9998932	2.024765	9.705154
1493787104504	-0.82943726	2.0197906	9.450607
1493787104524	-0.6630249	2.0666656	9.514847
1493787104543	-0.75297546	2.2254333	9.550446
1493787104564	-1.033783	2.366928	9.211609
1493787104583	-1.1323242	2.533432	9.198898
1493787104603	-1.2315369	2.671814	9.178833
1493787104622	-1.0352783	2.697754	9.283218
1493787104642	-0.7232208	2.4313812	9.490845
1493787104662	-0.5444031	2.1135254	9.534454
1493787104682	-0.48791504	2.1086273	9.624619
1493787104702	-0.42495728	2.0704346	9.797531
1493787104722	-0.49301147	2.0777435	9.70932
1493787104741	-0.44525146	2.182495	9.623718
1493787104761	-0.48666382	2.04776	9.574448
1493787104781	-0.49931335	2.0546112	9.53421
1493787104801	-0.48101807	2.689804	8.891205
1493787104821	-0.9230957	2.1537018	9.63031
1493787104840	-0.89616394	1.9812775	9.461182
1493787104860	-0.71902466	2.036911	9.338852
1493787104880	-0.73005676	1.886261	9.610077
1493787104900	-0.40370178	2.0861053	9.589722
1493787104920	0.033798218	2.5724487	9.301178
1493787104959	-0.40142822	2.971161	8.81105
1493787104979	-1.1818237	3.1582031	8.885529
1493787104999	-1.3634644	2.9626465	9.173584
1493787105019	-1.9333801	3.3396606	9.086533
1493787105039	-2.1895142	3.886032	9.027557
1493787105059	-1.638855	3.7924805	8.823959
1493787105079	-0.9738617	3.149414	9.16687
1493787105098	-0.80130005	2.9079895	9.4058075
1493787105118	-0.6461792	2.923462	9.672012
1493787105138	-0.7354431	2.7857056	9.878754
1493787105158	-0.65763855	2.7321472	9.934601
1493787105178	-0.6664276	2.4088898	9.453506
1493787105198	-0.44721985	2.3166504	9.209
1493787105225	-0.4542389	2.3037567	9.273712
1493787105254	-0.1980896	2.5893555	9.479004
1493787105260	-0.069366455	2.6398926	9.38353
1493787105277	-0.16491699	2.642807	9.5985565
1493787105297	-0.089019775	2.4944305	9.974564
1493787105315	0.33546448	2.1486816	10.146408
1493787105336	0.9398651	2.1049042	10.336563
1493787105356	1.1560822	2.3805084	10.769852
1493787105376	0.56433105	2.4571533	10.080765
1493787105396	0.24491882	2.5208282	9.072586
1493787105415	0.15745544	2.4910736	9.333008
1493787105435	-0.09906006	2.3358307	9.71904
1493787105455	-0.36457825	2.0634918	10.00946
1493787105475	-0.66096497	1.7639465	10.383057
1493787105495	-0.6735077	1.7668762	10.733368
1493787105514	-0.7350769	1.8153839	10.461227
1493787105534	-0.902771	1.7461548	9.968689
1493787105554	-1.0227203	1.7716064	9.650696
1493787105574	-1.0031433	1.9577026	9.548645
1493787105594	-1.0085144	2.0278168	9.475601
1493787105616	-1.1787415	1.879303	9.269363
1493787105634	-1.2966003	1.7972565	9.201508
1493787105653	-1.2706146	1.962677	9.203049
1493787105673	-1.1048889	2.1973114	9.119827
1493787105693	-1.0963287	2.2135773	9.196808
1493787105713	-1.312439	2.0568085	9.476227
1493787105733	-1.414856	1.9670258	9.691742
1493787105752	-1.394989	1.9386597	9.624023
1493787105772	-1.3167267	1.962738	9.657776
1493787105792	-1.3856659	2.1045685	9.475571
1493787105812	-1.3900452	2.2874298	9.387482
1493787105832	-1.4922028	2.268097	9.567978
1493787105852	-1.4725494	2.1119385	9.845245
1493787105872	-1.5273438	2.0527344	9.892014
1493787105891	-1.7291412	2.1938782	9.141983
1493787105911	-1.39328	2.8182068	8.632523
1493787105931	-0.77856445	3.8322601	8.460815
1493787105951	-0.50112915	3.9196472	8.315262
1493787105971	-0.8278656	3.7245789	8.179504
1493787105991	-1.0193939	3.7947388	8.372284
1493787106012	-1.1612549	3.8372345	8.717941
1493787106030	-1.0642548	3.7950592	8.842697
1493787106050	-0.88412476	3.97966	9.367279
1493787106070	-0.71147156	4.0661163	9.309296
1493787106090	-0.6779022	4.395569	8.829361
1493787106110	-1.1528931	4.218094	8.361877
1493787106130	-1.4794159	3.9522858	8.80365
1493787106149	-1.3631592	3.9154205	9.491364
1493787106169	-1.3735352	3.9897003	9.322845
1493787106209	-1.458435	4.4439545	8.296387
1493787106228	-1.25	4.6128235	8.300247
1493787106249	-1.6871338	4.3160706	8.272354
1493787106269	-1.7834473	4.2274475	8.5767975
1493787106288	-1.7205658	4.138214	8.736572
1493787106308	-1.3846893	4.4688263	8.075119
1493787106327	-1.4117737	4.535309	8.051849
1493787106349	-1.500412	4.4911194	8.348221
1493787106367	-1.4100494	4.479965	8.759293
1493787106387	-1.3778076	4.290848	8.885376
1493787106407	-1.4742737	4.2973175	8.350296
1493787106426	-1.1842957	4.6600647	8.430847
1493787106448	-0.9599304	4.636551	8.495285
1493787106466	-1.0529785	4.6398926	8.174438
1493787106486	-1.2606201	4.701889	8.34166
1493787106506	-1.1744232	4.680023	8.666611
1493787106524	-0.9764252	4.7194366	8.751114
1493787106546	-0.97984314	4.84787	8.55188
1493787106565	-1.0304108	4.7883453	8.577805
1493787106585	-1.1342621	4.69635	8.590027
1493787106605	-1.0078125	4.7450867	8.592972
1493787106624	-0.8577881	4.8354034	8.450012
1493787106644	-0.7670746	4.904373	8.335632
1493787106664	-0.87054443	4.8821564	8.296097
1493787106684	-0.9808502	4.789093	8.36351
1493787106704	-0.87742615	4.7087708	8.430481
1493787106725	-0.75865173	4.777893	8.384155
1493787106743	-0.66116333	4.898819	8.325989
1493787106763	-0.45822144	4.977722	8.164871
1493787106784	-0.2929077	5.035965	8.112061
1493787106803	-0.25482178	5.0264435	8.268723
1493787106822	-0.3524475	4.9384613	8.535385
1493787106842	-0.39482117	4.875839	8.565277
1493787106863	-0.2843628	4.9471283	8.43718
1493787106882	-0.32847595	4.8975525	8.429672
1493787106902	-0.6039429	4.762085	8.326248
1493787106922	-0.9421692	4.559784	8.365021
1493787106942	-1.049881	4.545517	8.544922
1493787106961	-0.81866455	4.670212	8.668976
1493787106981	-0.7290497	4.684677	8.405457
1493787107001	-0.7029114	4.6716614	8.37854
1493787107021	-0.654068	4.651001	8.619431
1493787107041	-0.76675415	4.6228027	8.541443
1493787107062	-0.91400146	4.639557	8.202408
1493787107081	-0.80589294	4.662155	8.423233
1493787107100	-0.8313446	4.564102	8.702164
1493787107120	-0.860199	4.5175323	9.288742
1493787107140	-0.9215698	4.423401	9.285217
1493787107160	-0.92378235	4.505295	8.91507
1493787107180	-0.8851166	4.4925385	8.657242
1493787107200	-0.8704529	4.494766	8.765778
1493787107219	-0.924469	4.486023	8.893921
1493787107239	-0.8672943	4.4634705	8.703415
1493787107259	-0.9411011	4.3961334	8.626297
1493787107278	-1.2609558	4.2275085	8.947952
1493787107299	-1.0572052	4.1587524	8.985947
1493787107318	-0.71832275	4.4610596	8.674011
1493787107338	-0.8538208	4.455414	8.480484
1493787107358	-0.6329193	4.416687	8.84996
1493787107377	-0.5644989	4.264221	9.186798
1493787107398	-0.58529663	4.3621063	9.040466
1493787107417	-0.52227783	4.4658356	8.737595
1493787107457	-0.46392822	4.3660736	8.4839325
1493787107476	-0.40515137	4.266327	8.955841
1493787107498	-0.32907104	4.15036	9.419113
1493787107516	-0.55914307	4.273819	9.100449
1493787107536	-0.46229553	4.422867	8.863327
1493787107556	-0.3330078	4.3810883	8.951904
1493787107575	-0.21791077	4.4361115	8.830505
1493787107596	-0.14172363	4.4873505	8.573837
1493787107615	-0.20132446	4.4393616	8.650635
1493787107636	-0.14279175	4.437256	8.792252
1493787107655	-0.47094727	4.396759	8.63327
1493787107675	-0.6763458	4.3704834	8.447983
1493787107695	-0.8482666	4.2261353	8.593155
1493787107715	-0.7014313	4.3902283	8.790039
1493787107733	-0.5495758	4.4547577	8.837448
1493787107755	-0.600647	4.47583	8.729248
1493787107774	-0.59072876	4.5023956	8.7039795
1493787107794	-0.4611206	4.6148834	8.620575
1493787107814	-0.39849854	4.717972	8.462173
1493787107833	-0.4898224	4.745926	8.468521
1493787107853	-0.5048523	4.696274	8.744751
1493787107873	-0.5812378	4.6088257	9.082031
1493787107893	-0.58454895	4.4892273	9.082321
1493787107913	-0.7121582	4.4380493	8.710602
1493787107932	-0.6431122	4.4834747	8.537735
1493787107952	-0.5571289	4.546341	8.374512
1493787107972	-0.6140442	4.5281525	8.247421
1493787107992	-0.72683716	4.4912567	8.244537
1493787108012	-0.82429504	4.4129944	8.322708
1493787108035	-0.9642639	4.350113	8.3424835
1493787108051	-1.010849	4.3663177	8.358093
1493787108071	-0.9671631	4.380768	8.393265
1493787108091	-0.9259949	4.423828	8.4240265
1493787108111	-0.96925354	4.4526215	8.442581
1493787108130	-1.0135498	4.423813	8.64119
1493787108150	-0.8742676	4.4066467	8.902771
1493787108170	-0.728302	4.432144	8.958496
1493787108190	-0.7261505	4.419815	8.924606
1493787108210	-0.7815857	4.3658295	9.081619
1493787108230	-0.815506	4.364685	9.187958
1493787108250	-0.6855774	4.4209747	9.066391
1493787108269	-0.6722107	4.4374847	8.785843
1493787108289	-0.8462219	4.415558	8.673782
1493787108309	-0.98934937	4.372101	8.624664
1493787108329	-0.96284485	4.3160706	8.835083
1493787108349	-0.94581604	4.326782	8.945343
1493787108369	-0.9621124	4.3522644	8.839661
1493787108388	-0.9556732	4.2838745	8.821777
1493787108408	-0.9430237	4.2942047	8.862915
1493787108428	-0.8578949	4.335373	8.926224
1493787108448	-0.86364746	4.317688	8.858734
1493787108468	-0.92889404	4.344101	8.694
1493787108487	-0.86047363	4.3397675	8.758011
1493787108507	-0.77531433	4.39032	8.844818
1493787108527	-0.63998413	4.418991	8.731354
1493787108547	-0.557312	4.387329	8.7668915
1493787108567	-0.7056122	4.4186707	8.890686
1493787108588	-0.7492218	4.4474792	8.596069
1493787108606	-0.702713	4.438965	8.069794
1493787108626	-0.6608887	4.49144	8.219376
1493787108646	-0.7158966	4.387665	8.560104
1493787108685	-0.8622589	4.3907166	8.919891
1493787108705	-1.0411835	4.354416	8.833847
1493787108725	-0.7891846	4.461014	8.6393585
1493787108745	-1.0007782	4.3591003	8.315445
1493787108765	-0.605896	4.349106	8.538101
1493787108785	-0.5666046	4.379486	9.017563
1493787108805	-0.5676117	4.299576	9.2139435
1493787108824	-0.3587036	4.469406	9.065781
1493787108844	-0.40316772	4.4715576	8.82933
1493787108864	-0.6162262	4.367111	8.703705
1493787108884	-0.59280396	4.3742065	8.742264
1493787108904	-0.5361481	4.3777313	8.657654
1493787108923	-0.48349	4.501251	8.725189
1493787108942	-0.40319824	4.4763336	8.803757
1493787108963	-0.45687866	4.409195	8.621902
1493787108984	-0.50871277	4.409958	8.476181
1493787109003	-0.4270935	4.360672	8.827591
1493787109022	-0.50190735	4.267517	9.129669
1493787109041	-0.65815735	4.2862854	8.990448
1493787109062	-0.58361816	4.3010406	8.83522
1493787109082	-0.5891266	4.26033	8.77002
1493787109102	-0.8468628	4.151642	8.6306305
1493787109121	-0.95266724	4.1595154	8.648788
1493787109141	-0.6647644	4.302643	8.7287445
1493787109161	-0.10861206	4.485321	8.703735
1493787109184	0.36416626	4.571472	8.853088
1493787109201	0.37019348	4.5717773	8.938385
1493787109221	0.12554932	4.555664	8.566727
1493787109240	0.19918823	4.6473083	8.352875
1493787109260	0.33920288	4.683563	8.452438
1493787109280	0.4351654	4.70578	8.473679
1493787109300	0.5271301	4.717911	8.56311
1493787109320	0.437912	4.7036133	8.551392
1493787109339	0.17346191	4.5946503	8.406342
1493787109359	-0.012542725	4.4997253	8.360901
1493787109379	-0.006286621	4.5146027	8.484451
1493787109399	0.09126282	4.461502	8.800674
1493787109420	0.124298096	4.4578094	9.018646
1493787109439	0.02520752	4.4416046	8.926407
1493787109458	-0.06680298	4.4206543	8.780945
1493787109478	0.0051727295	4.46463	8.768814
1493787109498	0.028915405	4.4524536	8.87616
1493787109518	0.01638794	4.419632	8.963303
1493787109538	-0.020431519	4.368683	9.067261
1493787109558	0.017105103	4.444504	8.930313
1493787109577	0.041305542	4.4233704	8.924255
1493787109597	0.11576843	4.4044647	8.96048
1493787109617	0.1565857	4.445221	8.987152
1493787109637	0.057037354	4.3995514	8.822067
1493787109657	-0.015579224	4.3893433	8.629868
1493787109676	0.0046539307	4.416046	8.6250305
1493787109696	0.01953125	4.344574	8.592438
1493787109716	-0.0152282715	4.3854523	8.57428
1493787109736	-0.0546875	4.3852234	8.617828
1493787109756	0.02217102	4.398346	8.582825
1493787109776	0.033050537	4.3339996	8.759033
1493787109795	-0.12527466	4.3111115	8.830154
1493787109815	-0.15829468	4.343094	8.707962
1493787109835	-0.11013794	4.322983	8.788879
1493787109855	-0.12576294	4.347	8.8811035
1493787109875	-0.23374939	4.2266235	8.930969
1493787109894	-0.264328	4.29039	9.106995
1493787109942	-0.20002747	4.2803802	9.093445
1493787109968	-0.18052673	4.4039	8.869934
1493787109978	-0.08081055	4.525757	8.698853
1493787110008	-0.13946533	4.5572357	8.488556
1493787110016	-0.33610535	4.4411316	8.581268
1493787110035	-0.25611877	4.421341	8.919434
1493787110053	-0.2922516	4.466919	8.937729
1493787110074	-0.31573486	4.481674	8.734741
1493787110093	-0.38908386	4.4543304	8.630295
1493787110113	-0.4580078	4.438568	8.627075
1493787110137	-0.42581177	4.450287	8.590973
1493787110153	-0.4139557	4.468033	8.581924
1493787110173	-0.42539978	4.519577	8.623291
1493787110191	-0.46447754	4.430969	8.663696
1493787110212	-0.52160645	4.389572	8.595764
1493787110232	-0.40161133	4.4458923	8.7901
1493787110250	-0.31576538	4.457733	8.941818
1493787110271	-0.3500824	4.39209	8.90538
1493787110292	-0.39672852	4.370758	8.798935
1493787110311	-0.3914032	4.3909454	8.6866
1493787110331	-0.3240204	4.4782715	8.658127
1493787110350	-0.27697754	4.5002747	8.735474
1493787110370	-0.2685547	4.5236206	8.793823
1493787110390	-0.15403748	4.547714	8.81633
1493787110410	-0.171875	4.521103	8.74707
1493787110430	-0.29760742	4.4816437	8.836868
1493787110451	-0.3558197	4.4580994	8.874359
1493787110469	-0.34336853	4.492096	8.725952
1493787110489	-0.44880676	4.4739227	8.560852
1493787110509	-0.5775299	4.3989563	8.607727
1493787110530	-0.59536743	4.386017	8.815277
1493787110548	-0.6358185	4.456421	8.797684
1493787110569	-0.6450958	4.544464	8.644043
1493787110588	-0.6624298	4.5704956	8.585968
1493787110608	-0.68133545	4.5503387	8.486862
1493787110628	-0.60557556	4.5847015	8.470657
1493787110648	-0.58821106	4.597397	8.504883
1493787110668	-0.5717621	4.619644	8.599579
1493787110687	-0.49847412	4.664734	8.790314
1493787110707	-0.5115051	4.6310425	8.867645
1493787110727	-0.60058594	4.623947	8.676666
1493787110746	-0.63345337	4.615326	8.397217
1493787110767	-0.6836395	4.6575623	8.245865
1493787110787	-0.75909424	4.68219	8.425552
1493787110807	-0.6963043	4.647232	8.555557
1493787110826	-0.6219177	4.6459656	8.751312
1493787110846	-0.62901306	4.6484222	8.716873
1493787110866	-0.75050354	4.6681976	8.531403
1493787110886	-0.7985382	4.6211395	8.473572
1493787110906	-0.78518677	4.620819	8.5047
1493787110925	-0.6767578	4.716522	8.703842
1493787110946	-0.6942291	4.728058	8.730103
1493787110965	-0.80244446	4.679489	8.594635
1493787110986	-0.70643616	4.7113037	8.518234
1493787111004	-0.71899414	4.7736816	8.493118
1493787111024	-0.7388916	4.748398	8.478531
1493787111044	-0.7075653	4.765259	8.435455
1493787111064	-0.7474518	4.789276	8.510483
1493787111084	-0.77975464	4.724518	8.52449
1493787111106	-0.7926483	4.7239685	8.787231
1493787111124	-0.8566284	4.6910095	8.803299
1493787111163	-0.80926514	4.8147583	8.268036
1493787111183	-0.75305176	4.8597107	8.314392
1493787111202	-0.7834778	4.853073	8.731842
1493787111223	-0.8491516	4.695511	8.782196
1493787111242	-0.9541626	4.6653748	8.753372
1493787111261	-0.9282837	4.6223297	8.681274
1493787111282	-0.84259033	4.6475067	8.618805
1493787111304	-0.75598145	4.761368	8.41214
1493787111322	-0.691391	4.7318573	8.43222
1493787111341	-0.67045593	4.776001	8.621231
1493787111361	-0.69976807	4.6617584	8.727264
1493787111381	-0.7449341	4.625931	8.55542
1493787111401	-0.7433319	4.630295	8.46405
1493787111420	-0.71144104	4.6707306	8.486435
1493787111441	-0.69480896	4.7398987	8.396393
1493787111461	-0.6247711	4.7865906	8.319366
1493787111480	-0.73994446	4.776352	8.341354
1493787111500	-0.8085327	4.7389374	8.458878
1493787111519	-0.8502197	4.7486115	8.444382
1493787111539	-0.8628998	4.722748	8.4335785
1493787111559	-0.83714294	4.7413483	8.60025
1493787111579	-0.88287354	4.737915	8.615555
1493787111599	-0.9068451	4.726074	8.500687
1493787111618	-0.8591919	4.7335205	8.560638
1493787111638	-0.7667389	4.78537	8.618881
1493787111659	-0.77612305	4.7969666	8.671402
1493787111678	-0.7631531	4.8436584	8.836609
1493787111698	-0.60884094	4.854248	9.033066
1493787111718	-0.70202637	4.7784576	8.816742
1493787111737	-1.0782928	4.683563	8.541885
1493787111757	-1.1261902	4.822815	8.509399
1493787111777	-1.0442657	4.8539276	8.475418
1493787111797	-1.1429291	4.7258606	8.362808
1493787111817	-1.2658691	4.664459	8.347916
1493787111837	-1.1900482	4.7421265	8.161133
1493787111856	-1.0428772	4.8267975	8.089127
1493787111876	-1.0177612	4.800049	8.288559
1493787111896	-1.0973358	4.7634583	8.497391
1493787111916	-1.1350708	4.6768494	8.527481
1493787111936	-1.1302338	4.6926575	8.393875
1493787111968	-1.0469208	4.7615814	8.376907
1493787111978	-1.1117096	4.6453094	8.383163
1493787111997	-1.0603485	4.712784	8.248795
1493787112017	-0.9904175	4.770233	8.330551
1493787112043	-1.1582947	4.699753	8.48436
1493787112058	-1.0977478	4.7679443	8.580627
1493787112079	-0.89772034	4.827133	8.719635
1493787112099	-0.9002838	4.8284607	8.8059845
1493787112118	-0.927536	4.848999	8.982178
1493787112140	-0.8325348	4.8105316	9.17923
1493787112161	-1.6430511	4.8097076	7.765213
1493787112176	-1.3160706	4.714432	7.897629
1493787112193	-0.74443054	4.967285	8.545944
1493787112212	-0.85427856	4.909607	8.455795
1493787112233	-1.2192383	4.777817	8.786926
1493787112253	-1.1816864	4.7256927	8.85498
1493787112273	-1.1051788	4.6662903	8.778442
1493787112293	-1.0639801	4.7296906	8.6688385
1493787112311	-1.163147	4.8088684	8.2604065
1493787112333	-1.1736145	4.630005	8.311905
