accelerometer_timestamp	accelerometer_x_data	accelerometer_y_data	accelerometer_z_data
1493789541921	0.7730408	3.8607025	7.907242
1493789541941	0.1933899	3.652298	8.107986
1493789541963	-0.08378601	3.6929321	8.044037
1493789541981	0.17448425	3.7808228	9.16954
1493789542000	0.15296936	3.643692	9.998093
1493789542020	0.27331543	3.3373566	9.709442
1493789542040	0.36520386	2.929535	8.8194275
1493789542059	0.19447327	2.8345795	8.605392
1493789542080	0.11227417	3.0557861	9.394989
1493789542099	0.0337677	3.1497345	10.063034
1493789542119	-0.058807373	3.2012634	10.436371
1493789542139	-0.21707153	3.2158966	10.297867
1493789542158	-0.29945374	3.2176971	9.944
1493789542178	-0.4609375	3.2320862	9.672256
1493789542198	-0.73036194	3.343628	8.835907
1493789542218	-0.75679016	3.3878937	8.436371
1493789542238	-0.27226257	3.3188171	9.240829
1493789542257	0.0743866	3.3025055	10.1502075
1493789542277	-0.5752411	3.3148193	9.624481
1493789542297	0.42329407	2.5121155	7.8924866
1493789542317	-6.5145264	6.054184	4.040909
1493789542337	-4.7850647	5.38179	9.071976
1493789542356	0.4396057	3.6731415	8.484375
1493789542376	0.8975067	3.2450867	8.893784
1493789542396	0.9630432	3.526001	10.020187
1493789542416	-0.0662384	2.630844	7.7712097
1493789542436	1.2305145	4.055771	9.297684
1493789542456	-0.36940002	3.1246948	10.443741
1493789542475	1.0232849	4.302704	7.544159
1493789542515	-0.7992859	3.2295074	7.6595764
1493789542535	-0.3095703	2.976059	8.982513
1493789542554	0.54356384	3.05661	9.3038025
1493789542574	1.1641846	3.7162476	8.669296
1493789542594	0.8274994	3.8501282	8.980148
1493789542614	0.9056854	3.1858978	8.685364
1493789542634	2.2570496	2.5808105	6.8620453
1493789542654	1.1059113	1.9457245	3.4044647
1493789542673	-0.77490234	2.2700653	7.2098083
1493789542694	0.01159668	3.031189	11.2365265
1493789542713	1.3911743	2.113556	10.092148
1493789542733	1.0026703	1.3752594	9.169815
1493789542753	2.218521	2.3321228	6.754715
1493789542772	1.8484039	1.5914001	3.0475616
1493789542792	2.6012878	0.4764557	3.6809998
1493789542812	2.2727814	2.1888428	9.786942
1493789542832	1.5394897	0.8057709	9.775787
1493789542851	0.80314636	-0.20831299	10.653
1493789542871	0.23382568	-0.16690063	7.6672974
1493789542891	0.871994	0.2578125	4.061966
1493789542911	1.922348	-0.12187195	2.2492676
1493789542931	2.913147	-0.56448364	3.0552216
1493789542951	2.3836975	-1.1690979	5.2586823
1493789542970	4.3349304	-2.1078033	6.619644
1493789542990	6.3101044	-2.6270905	7.2048492
1493789543010	9.419754	-2.5206146	6.7358856
1493789543030	13.031845	-1.9316711	7.1827393
1493789543050	15.458221	-1.1884308	8.490509
1493789543070	16.527435	-0.79193115	7.9930725
1493789543089	16.566711	-0.7817383	5.8036804
1493789543109	16.095764	-0.8135071	3.9685822
1493789543129	15.7235565	-0.8761902	3.038208
1493789543149	15.62793	-0.7468872	2.8220978
1493789543168	15.872162	-0.789093	2.6873474
1493789543188	15.775543	-1.0637817	2.8200226
1493789543208	15.311981	-1.7675934	2.3589325
1493789543228	13.886948	-2.473404	2.065277
1493789543248	12.121536	-3.0876007	1.4690552
1493789543268	11.317352	-3.5985107	0.51431274
1493789543287	10.635284	-4.0281677	-0.1280365
1493789543307	10.430695	-3.6791077	-2.7567444
1493789543327	9.95668	-3.4085388	-4.9979706
1493789543347	9.368301	-4.0513763	-3.083603
1493789543367	8.75264	-3.9919434	-1.7337189
1493789543386	9.1371	-3.2072144	-0.88105774
1493789543406	8.979111	-2.965393	1.2842865
1493789543426	8.707916	-3.2467499	3.9012756
1493789543446	9.313797	-3.005188	5.1177673
1493789543466	8.911804	-3.0929108	5.0169983
1493789543485	9.092255	-2.614273	2.0947723
1493789543505	9.253494	-2.50589	0.78056335
1493789543525	-15.631638	-17.17366	-16.960037
1493789543545	4.3349457	-8.586563	-3.8367004
1493789543565	8.965439	-3.5308075	2.3091888
1493789543585	8.508759	-3.6835938	2.3809662
1493789543605	10.61438	-2.7789764	-0.20010376
1493789543624	8.886063	-3.4304504	1.9481659
1493789543644	8.443329	-3.370575	8.773621
1493789543664	5.361084	-4.9671326	2.8685303
1493789543684	1.2001953	-2.9400024	-14.87207
1493789543723	8.543381	-1.4508362	2.0605164
1493789543743	7.882263	-0.14019775	3.9210663
1493789543763	7.139435	-1.2297211	2.0903778
1493789543783	5.2521667	-2.9222412	0.16131592
1493789543803	8.94516	-3.8591309	2.4426117
1493789543822	8.078903	-3.9822083	4.200882
1493789543842	7.4831085	-4.3369293	1.0980377
1493789543862	7.9227753	-7.7766266	1.941864
1493789543882	6.0729675	-8.164047	3.074234
1493789543902	6.3723145	-9.298111	1.6579285
1493789543921	8.774277	-9.305603	1.9301453
1493789543941	8.131348	-8.130325	2.0347595
1493789543961	7.1172943	-7.8795776	2.3546143
1493789543981	5.9091797	-8.627213	2.0950165
1493789544001	5.951874	-9.211258	2.1592712
1493789544021	6.0721283	-9.0946045	2.054062
1493789544040	6.602539	-7.3816223	2.861679
1493789544060	4.410187	-7.244522	2.4325104
1493789544080	5.4380493	-6.0729523	1.5269012
1493789544100	6.394272	-5.2575836	1.0403442
1493789544119	4.8976746	-5.841034	0.73532104
1493789544139	3.3668518	-5.9644623	2.4483948
1493789544159	3.3234863	-7.474991	1.9244995
1493789544179	5.1133575	-9.916962	-2.061325
1493789544199	6.304077	-7.948532	0.014373779
1493789544218	3.936264	-6.9007416	-0.91897583
1493789544238	2.2618408	-1.8899536	5.659256
1493789544258	2.9305573	-0.7080536	6.2257843
1493789544278	3.7745514	-6.8629	-1.8993683
1493789544298	1.7278595	-13.80928	2.1611328
1493789544317	2.00354	-18.49582	1.0621185
1493789544337	5.429016	-14.12796	-0.6035156
1493789544357	4.0548706	-10.264099	1.6326141
1493789544377	3.7319946	-8.870041	1.0804138
1493789544397	5.296768	-8.655472	-0.6023102
1493789544417	4.3289185	-9.026489	-0.1822815
1493789544436	3.7908936	-8.710953	0.9519501
1493789544456	4.0315704	-8.451569	0.6492615
1493789544476	3.8550873	-8.948975	0.3421631
1493789544496	3.9991455	-9.294525	0.41290283
1493789544516	4.498657	-8.69429	0.15142822
1493789544535	3.96846	-9.021362	0.9916992
1493789544555	3.2722015	-8.782166	1.251358
1493789544575	3.1549072	-8.206024	1.2532501
1493789544595	3.527176	-7.9580383	0.59913635
1493789544615	3.4690857	-6.945572	0.41455078
1493789544635	2.728363	-4.9627075	0.5647125
1493789544654	2.3072662	-2.6069794	0.9841461
1493789544674	1.8237762	-2.4089813	0.253891
1493789544694	1.2637482	-5.1065216	0.21064758
1493789544714	-0.049743652	-11.233337	0.40026855
1493789544734	1.5296326	-14.462463	2.6145935
1493789544754	4.7099304	-10.866196	0.58862305
1493789544773	3.7295074	-5.7524414	-3.028366
1493789544793	1.8982391	-8.481979	2.1083984
1493789544813	5.55986	-8.979935	-4.721512
1493789544833	3.4213715	-11.912384	5.731476
1493789544853	2.3401031	-19.201279	5.753662
1493789544872	4.5212097	-19.474823	-5.938385
1493789544892	4.998886	-8.533096	0.70899963
1493789544932	3.7814941	-9.204926	-0.4729004
1493789544952	3.5530548	-8.748367	0.48049927
1493789544971	3.973114	-8.841766	0.41921997
1493789544991	3.2290802	-7.893097	1.4851227
1493789545011	2.9679565	-8.442322	0.67149353
1493789545031	2.9752655	-8.641968	1.1002045
1493789545051	2.5279694	-8.037781	1.1858826
1493789545071	2.6556854	-9.734283	0.5327301
1493789545090	3.3591309	-10.13446	-0.1265564
1493789545112	3.2287292	-9.403595	0.16183472
1493789545131	3.1393433	-9.058472	0.016067505
1493789545150	3.8863068	-9.227402	-0.034805298
1493789545170	3.5569763	-8.753647	0.15110779
1493789545190	3.656723	-8.95813	0.41937256
1493789545209	3.9855804	-8.887756	0.91319275
1493789545230	3.960846	-8.795181	1.3692932
1493789545249	3.6399841	-9.320007	1.6920776
1493789545269	3.3618011	-10.025803	1.6192474
1493789545289	3.1280212	-10.367798	0.81651306
1493789545308	3.5194244	-10.455994	-0.010910034
1493789545329	3.8369446	-10.626221	-0.602478
1493789545348	3.8535461	-10.568649	-0.7642212
1493789545368	3.856018	-10.310089	-0.7966614
1493789545388	4.117813	-10.008347	-0.89567566
1493789545408	4.7055817	-10.029846	-1.13797
1493789545428	5.461197	-10.301163	-1.4637299
1493789545448	5.88533	-10.21933	-2.166565
1493789545467	6.0575714	-9.952988	-2.628418
1493789545487	6.2341614	-9.731323	-2.5044403
1493789545506	4.7850647	-9.280472	-1.7450104
1493789545527	1.9873047	-9.825058	-0.970459
1493789545547	0.08917236	-13.431046	-0.27249146
1493789545566	0.42184448	-16.357208	0.96188354
1493789545586	0.31059265	-14.277847	1.4413757
1493789545606	0.6187439	-11.615524	1.6604309
1493789545626	3.4387207	-11.071915	1.106842
1493789545646	5.4497986	-10.580063	0.0418396
1493789545665	3.6438904	-9.88945	0.3440857
1493789545685	0.8310089	-9.556549	0.42974854
1493789545705	-0.27352905	-9.163544	0.53990173
1493789545725	-0.47480774	-8.409637	1.1278076
1493789545745	-0.652359	-7.7206116	0.90286255
1493789545765	-1.4430237	-7.2649536	0.09408569
1493789545784	-2.0285187	-7.0401154	-0.83270264
1493789545804	-1.3941345	-6.785675	-1.4213104
1493789545824	-0.18606567	-6.2980804	-1.4625244
1493789545844	0.74324036	-5.964142	-1.6689453
1493789545864	1.2622375	-5.8894196	-2.2742462
1493789545883	1.3065643	-5.9785614	-3.0220642
1493789545903	0.8922577	-6.4879	-3.8429108
1493789545923	0.5836334	-7.245865	-4.6859894
1493789545943	0.7546692	-8.152832	-5.3364563
1493789545963	1.2869873	-9.315613	-6.3541107
1493789545983	1.9774475	-10.126648	-6.3956146
1493789546003	1.2752838	-11.178741	-7.06192
1493789546022	-0.4230194	-12.453888	-7.556961
1493789546042	-0.5914154	-12.366486	-6.981552
1493789546061	0.02027893	-10.266296	-5.670746
1493789546082	-0.49525452	-8.4470215	-4.2619324
1493789546102	-1.6797638	-7.7669525	-4.373993
1493789546121	-2.3258972	-12.562225	-4.007782
1493789546142	-3.0299225	-16.675278	-3.8589325
1493789546181	0.45820618	-16.333801	-3.7249298
1493789546201	3.392273	-10.2695465	-0.30151367
1493789546221	4.106201	-6.1085052	1.5240173
1493789546241	3.7129364	-4.5553436	4.700302
1493789546260	2.551529	-6.269821	4.8875732
1493789546280	4.7803345	-8.236679	5.1305084
1493789546300	5.594223	-11.468155	0.21734619
1493789546320	4.9481964	-11.779251	-0.5792999
1493789546340	2.8104553	-8.870636	0.36114502
1493789546359	1.3804779	-7.360031	2.0547333
1493789546379	1.043808	-8.020309	2.332016
1493789546399	2.137619	-8.828293	0.62086487
1493789546418	4.221512	-9.206268	0.9937897
1493789546439	5.910797	-9.076614	1.2618561
1493789546459	6.5887756	-8.74823	0.9911194
1493789546478	6.5550537	-9.074005	0.7821655
1493789546498	4.7165527	-9.0191345	0.7808838
1493789546517	1.4473572	-8.990936	0.27322388
1493789546538	2.3778992	-7.840332	0.8349304
1493789546558	3.3449554	-8.320007	0.45843506
1493789546577	4.3891907	-8.910324	0.6932831
1493789546598	4.45343	-8.470367	1.6550751
1493789546616	3.2189178	-8.766052	0.8502197
1493789546637	2.834671	-9.373596	0.21115112
1493789546657	3.7506714	-9.50647	-0.23649597
1493789546678	4.840088	-9.529755	-0.74443054
1493789546696	5.6822968	-9.510681	-0.36880493
1493789546718	6.1892242	-9.63942	0.94488525
1493789546736	6.022415	-10.396072	0.9748688
1493789546756	5.042816	-10.804169	-0.5346832
1493789546775	5.0434265	-11.250458	-1.0371094
1493789546795	6.8910522	-11.9296875	-0.32073975
1493789546814	8.032776	-11.791809	-0.9073639
1493789546835	7.625824	-11.861038	-3.1911316
1493789546854	5.205551	-11.859131	-2.9492188
1493789546874	2.0441895	-10.073257	-1.919693
1493789546894	1.0038147	-11.03978	0.16015625
1493789546914	0.11601257	-16.049484	2.9377594
1493789546934	-1.4599152	-19.034576	3.5502167
1493789546954	-1.5091248	-17.182312	1.3473511
1493789546974	-0.3499298	-14.343109	0.073913574
1493789546993	2.4338837	-12.542618	-0.0771637
1493789547014	6.1025085	-11.378601	-1.0796204
1493789547033	7.019562	-9.292587	-0.66900635
1493789547053	5.4841766	-6.9937134	2.141922
1493789547073	2.1186829	-6.162842	4.0440216
1493789547093	-0.2746582	-5.324402	4.625717
1493789547112	-0.86639404	-4.6028748	4.1152344
1493789547132	-1.2722778	-4.0141296	3.0438538
1493789547152	-0.78001404	-4.1671906	1.9443054
1493789547171	-0.10536194	-4.1693115	0.97428894
1493789547192	0.19519043	-3.9422913	0.70648193
1493789547211	0.1742096	-4.377289	-0.6284027
1493789547231	-0.38471985	-5.2640686	-3.1726685
1493789547251	-2.4313965	-7.210602	-7.484955
1493789547273	-4.495102	-10.247314	-8.026077
1493789547291	-2.0828705	-14.324631	-10.520294
1493789547310	0.2335968	-15.247147	-9.4778595
1493789547330	0.4978485	-13.978317	-8.321014
1493789547350	-1.0664063	-10.817917	-7.88855
1493789547390	-5.9506226	-9.334747	-9.512772
1493789547409	-10.26886	-11.419861	-3.8921967
1493789547429	-2.4010162	-18.867264	-3.8663788
1493789547449	3.0033112	-12.514145	-2.0940247
1493789547469	2.5921326	-3.6665955	3.7548065
1493789547489	0.46627808	-4.7805786	3.3777313
1493789547509	0.23033142	-9.367447	5.301605
1493789547528	-0.24430847	-12.498856	3.0336456
1493789547548	2.506775	-13.735779	1.7771454
1493789547568	5.745392	-12.425751	3.1782532
1493789547588	6.6858215	-11.578308	1.7767334
1493789547608	6.165451	-10.615326	1.7532043
1493789547626	5.5755005	-9.003601	1.859436
1493789547647	5.478882	-8.281372	1.5426941
1493789547667	4.328415	-8.868195	0.7258148
1493789547687	2.9230804	-8.797012	-0.34680176
1493789547707	2.6008148	-8.971283	-2.3528748
1493789547725	3.0648346	-8.713058	-2.6042786
1493789547746	2.200531	-8.814819	-1.6161804
1493789547766	0.7382202	-7.691147	0.13694763
1493789547786	0.2610321	-6.0598297	1.6529083
1493789547806	0.9525757	-4.9332123	1.68396
1493789547825	2.5451355	-5.857315	-0.014389038
1493789547847	4.1619873	-8.138199	-1.0096893
1493789547868	4.1888275	-9.968231	0.4087677
1493789547889	3.4093628	-11.013855	0.80963135
1493789547910	3.5849915	-11.386139	0.0901947
1493789547926	4.4615173	-11.643646	-0.3190155
1493789547947	5.816864	-11.4843445	-0.017227173
1493789547966	6.591095	-11.53447	-0.061035156
1493789547984	5.7276764	-12.428406	-1.3135834
1493789548007	6.293762	-12.426392	-2.2400208
1493789548023	8.1362	-11.7855835	-2.0923157
1493789548043	8.712219	-11.642731	-2.9372864
1493789548063	8.061417	-11.026978	-2.537918
1493789548083	4.213272	-11.196655	-2.3751526
1493789548104	1.7292328	-12.711914	-0.39001465
1493789548126	0.18269348	-15.417389	3.8434143
1493789548147	-1.7653198	-17.372787	4.532898
1493789548164	-2.1139069	-17.576462	2.3014832
1493789548186	-1.5432587	-16.64685	-0.028564453
1493789548207	0.3152008	-14.821426	-0.23750305
1493789548229	6.3776703	-12.673691	-2.8428497
1493789548244	8.184601	-11.224243	-0.7586975
1493789548268	6.533142	-8.802475	1.3469543
1493789548288	3.8588257	-6.3069	3.3721008
1493789548308	0.9483948	-4.4469604	4.2986755
1493789548327	-1.5024719	-3.1403046	4.3608856
1493789548347	-2.0311737	-2.4985504	4.4269257
1493789548367	-1.9763489	-2.2738647	4.3282166
1493789548385	-1.4062195	-2.3629913	3.650299
1493789548407	-1.2192993	-3.1580505	1.9441528
1493789548426	-1.1102295	-3.8217316	0.23554993
1493789548447	-1.3077393	-5.3275146	-2.672058
1493789548466	-1.5229034	-9.266556	-10.566666
1493789548487	-0.89393616	-12.209732	-7.7211914
1493789548504	-0.7468872	-15.429718	-10.529907
1493789548529	-1.2699432	-14.229309	-10.08046
1493789548541	-0.855011	-13.204849	-7.676132
1493789548561	-0.20184326	-11.522797	-5.6931458
1493789548600	-3.2954254	-8.130142	-7.676422
1493789548620	-6.279907	-9.70076	-8.213318
1493789548641	-0.66259766	-19.274918	-6.910843
1493789548664	5.245041	-14.413788	1.4934845
1493789548683	1.0876465	-6.91922	6.8855743
1493789548704	-1.372406	-4.834503	6.767578
1493789548723	-0.29788208	-7.2832947	3.2870483
1493789548740	3.6139374	-9.422638	7.195389
1493789548764	5.3827972	-11.992874	6.4824677
1493789548783	6.7403717	-13.245285	1.2928162
1493789548803	5.3828583	-11.593903	-0.43199158
1493789548822	3.9359283	-9.538803	0.32240295
1493789548840	2.7702332	-9.01532	0.5333557
1493789548862	0.92329407	-9.036224	0.14605713
1493789548882	0.57502747	-8.17067	-1.6596375
1493789548902	3.236969	-8.927261	-1.585846
1493789548920	3.3332214	-9.564713	-1.1739349
1493789548939	1.7667694	-9.591309	0.22296143
1493789548962	0.402359	-8.309937	1.195755
1493789548981	0.97612	-7.7809143	0.7052307
1493789549001	1.7415466	-8.971054	-0.7819214
1493789549017	3.0569	-8.932175	-0.05319214
1493789549037	3.6805267	-8.812347	0.19607544
1493789549057	4.071884	-8.94606	0.19474792
1493789549076	4.5289154	-9.495117	-0.36528015
1493789549096	5.1542053	-10.187073	-1.6029663
1493789549115	5.976166	-10.415298	-2.0811768
1493789549136	6.2290344	-10.294312	-1.8046875
1493789549160	6.054123	-10.135452	-2.1036072
1493789549179	6.1077423	-10.456467	-3.09523
1493789549199	6.8570404	-11.504303	-3.0824432
1493789549219	6.213684	-11.94928	-1.17276
1493789549236	1.6743622	-12.227219	-1.9485474
1493789549257	-1.054245	-14.076416	-1.3058624
1493789549278	-1.4922638	-16.818726	1.9661713
1493789549298	-2.4743042	-18.891602	3.5467224
1493789549318	-2.5507355	-18.14299	2.2458801
1493789549337	-1.1378021	-15.074142	0.31837463
1493789549358	0.98651123	-12.883423	-0.5688324
1493789549377	3.561203	-12.3701935	0.036087036
1493789549397	4.800064	-11.630066	0.25865173
1493789549417	3.3021545	-8.623566	1.3937073
1493789549436	1.4629364	-6.612442	2.5942078
1493789549457	1.5846252	-6.0169373	2.983841
1493789549480	-0.012390137	-3.6727448	3.6058197
1493789549492	-1.0742798	-2.2857666	2.6621246
1493789549512	-1.5606232	-1.8287048	2.7876434
1493789549533	-1.5674744	-2.0377655	2.8686676
1493789549553	-1.2299652	-3.1685638	1.3584442
1493789549572	-0.69451904	-3.8651733	0.04510498
1493789549590	-0.6277466	-5.285858	-0.55895996
1493789549610	-0.12185669	-9.887329	-6.262497
1493789549630	0.7752228	-14.946991	-13.0312805
1493789549652	-0.79415894	-18.077393	-14.1692505
1493789549672	-1.315033	-13.299011	-9.12384
1493789549693	-0.54689026	-10.233719	-5.534546
1493789549712	-0.12760925	-8.861984	-5.587906
1493789549731	-1.5657806	-7.8802032	-6.796051
1493789549752	-1.9087524	-8.475052	-5.086075
1493789549769	-4.2820435	-15.284256	-3.4277496
1493789549793	3.3426208	-19.376205	-1.2448578
1493789549813	8.436691	-11.170334	2.118164
1493789549850	2.0594788	-6.0422363	9.1996
1493789549874	-1.6272888	-6.2822266	7.3690033
1493789549891	-1.4686279	-7.7550507	2.8772125
1493789549912	4.6868286	-11.5455475	4.468857
1493789549931	8.209671	-13.745895	-0.27078247
1493789549952	4.9548645	-11.979691	-1.5974274
1493789549972	-0.5773163	-9.369766	0.6655121
1493789549990	-2.295105	-8.488495	0.45532227
1493789550011	-1.2261505	-9.067032	1.0061493
1493789550027	0.6582489	-9.12294	0.64393616
1493789550047	3.3187408	-9.010986	-0.6604309
1493789550067	4.651474	-9.024704	-1.3960266
1493789550086	5.083252	-8.749725	-1.3056641
1493789550106	3.8300018	-8.567917	-0.95932007
1493789550125	1.5662537	-8.453598	-0.7341156
1493789550149	0.66438293	-8.561111	-0.36047363
1493789550170	1.9242706	-8.996918	-0.13781738
1493789550189	2.876236	-9.466644	-0.94989014
1493789550209	3.5579987	-9.364792	-2.4133759
1493789550229	3.815857	-9.624329	-2.428894
1493789550247	3.97789	-10.002396	-1.7606049
1493789550271	4.272415	-10.203369	-1.6209869
1493789550288	4.636795	-9.92514	-1.8714905
1493789550308	4.345581	-9.778702	-2.5920715
1493789550328	3.1697388	-9.982483	-3.2751923
1493789550347	2.5500336	-11.033386	-1.729248
1493789550368	3.1934204	-12.731781	0.82341003
1493789550387	3.266571	-13.763748	0.6388855
1493789550407	1.0040131	-13.190933	-0.027908325
1493789550427	-3.3106232	-12.218399	0.5258484
1493789550447	-5.5171356	-12.54155	0.713974
1493789550467	-2.770111	-12.208328	2.1076202
1493789550486	1.3605042	-10.813477	3.1132355
1493789550506	2.1723022	-9.361221	2.661621
1493789550529	0.51452637	-8.940323	1.465622
1493789550543	-1.0597382	-9.4800415	0.8274231
1493789550566	-1.7579956	-9.395294	0.75587463
1493789550581	-1.8116455	-8.977951	0.26287842
1493789550601	-1.1272888	-8.629257	0.21899414
1493789550621	-0.21868896	-8.354538	0.39848328
1493789550640	0.32218933	-8.282318	0.17617798
1493789550663	0.7666626	-8.498764	-0.03919983
1493789550683	0.7752533	-9.034805	-0.5596924
1493789550702	0.3764038	-9.621002	-1.3230133
1493789550722	0.26116943	-9.862106	-2.1588745
1493789550741	0.32859802	-9.94931	-2.137207
1493789550764	0.25860596	-10.068741	-2.3209534
1493789550784	-0.35076904	-10.511002	-3.005249
1493789550804	-0.74005127	-10.409531	-2.7730255
1493789550824	-1.0872192	-10.118774	-2.004898
1493789550843	-1.5952606	-9.816589	-1.234024
1493789550859	-1.4434814	-9.477692	-0.55477905
1493789550883	-1.0926514	-9.098816	0.031158447
1493789550906	-1.373169	-9.034851	0.34077454
1493789550921	-1.5933838	-9.106979	0.26324463
1493789550942	-1.56427	-9.157639	-0.13999939
1493789550959	-1.8239136	-8.92691	-0.04071045
1493789550982	-1.9763947	-8.527145	0.0019378662
1493789551021	-1.8134155	-8.141464	-1.1879578
1493789551037	-0.50201416	-8.632004	-1.3363953
1493789551058	0.9846344	-9.730911	-1.9160309
1493789551076	2.0820923	-11.322845	-2.919815
1493789551096	2.485443	-12.784088	-4.8822327
1493789551116	3.881195	-12.971207	-6.2341156
1493789551136	5.8220215	-11.766983	-4.8226166
1493789551157	5.164749	-9.687042	-0.1762085
1493789551178	2.7431183	-7.7752533	-0.40019226
1493789551197	2.311264	-6.873352	-1.645813
1493789551217	4.294586	-8.023041	-0.2157135
1493789551237	6.7897644	-9.882233	-0.086883545
1493789551257	7.1273193	-9.969772	-1.6938629
1493789551276	6.168564	-8.660721	-2.065445
1493789551298	5.643753	-8.260284	-1.7136383
1493789551317	5.3560333	-8.6458435	-1.7849121
1493789551335	4.863144	-9.182709	-1.9818878
1493789551356	4.456375	-9.37645	-1.6599121
1493789551378	4.212555	-9.374893	-1.2405701
1493789551397	3.8615265	-9.391464	-1.0097046
1493789551417	3.387207	-9.392319	-0.9859619
1493789551437	3.168808	-9.253586	-1.0214539
1493789551456	3.2789764	-9.149673	-0.89604187
1493789551477	3.3602753	-8.983414	-0.7527313
1493789551496	3.0966797	-8.66748	-0.5449524
1493789551516	2.5827637	-8.521622	-0.3691864
1493789551537	2.42424	-8.768036	0.06326294
1493789551561	2.6021576	-9.000961	0.41700745
1493789551571	2.5220795	-8.951813	0.21537781
1493789551592	2.2230988	-9.062393	0.04927063
1493789551611	1.7948914	-9.726654	0.043060303
1493789551631	1.6026917	-9.94545	0.10861206
1493789551650	1.6207123	-9.429993	0.30168152
1493789551672	1.6219025	-9.332214	0.58802795
1493789551690	1.6427765	-9.598053	0.8774109
1493789551715	1.761795	-9.682632	0.765152
1493789551731	1.7571716	-9.625488	0.77072144
1493789551751	1.5844116	-9.428711	0.40579224
1493789551771	1.8111572	-9.415375	0.034988403
1493789551791	2.172882	-9.456024	0.38050842
1493789551811	2.0452118	-9.532242	0.6944275
1493789551830	2.0756683	-9.693893	0.6224365
1493789551850	2.124771	-9.877945	0.45448303
1493789551870	2.3298492	-9.659348	0.27627563
1493789551890	2.5369263	-9.308731	0.43824768
1493789551906	2.4462433	-9.41983	0.97698975
1493789551928	2.3475647	-9.608612	1.2956848
1493789551949	2.5506897	-9.633652	1.5375061
1493789551970	2.7471771	-9.706223	1.0814056
1493789551989	2.689148	-9.666779	0.64427185
1493789552008	2.707718	-10.311691	0.41993713
1493789552029	2.604477	-10.707138	0.33277893
1493789552048	2.8259735	-10.459961	0.51086426
1493789552073	3.0436249	-10.814362	0.7304535
1493789552087	3.3535004	-10.710739	0.41703796
1493789552105	3.4503021	-10.481491	-0.23701477
1493789552126	3.8878021	-10.30278	-1.0644531
1493789552146	5.008255	-10.64389	-0.94036865
1493789552190	4.68544	-11.075699	-0.66934204
1493789552191	2.9772797	-11.731064	-2.6401367
1493789552229	3.2236938	-10.759674	-2.5084229
1493789552249	1.9084015	-10.526672	-2.6719208
1493789552267	1.7366638	-10.972015	-2.176239
1493789552289	0.50546265	-14.084412	0.28034973
1493789552308	0.7237854	-15.350815	1.5522156
1493789552329	-0.24118042	-13.060471	2.2950897
1493789552348	-0.5654144	-10.7859955	1.2825623
1493789552371	1.222229	-11.95018	-0.3271942
1493789552385	4.47908	-11.173767	-0.20793152
1493789552404	4.24234	-10.545334	-0.861557
1493789552425	2.1497498	-10.122726	1.2138672
1493789552442	0.55844116	-8.863739	2.7215576
1493789552464	-0.5257721	-7.5144043	2.4477081
1493789552486	-1.0831757	-6.023834	2.262329
1493789552501	-1.8416901	-5.163452	1.5837402
1493789552520	-1.9852448	-5.2755127	0.8852997
1493789552541	-1.5457306	-5.500412	0.65849304
1493789552559	-1.0640717	-5.3767242	0.23486328
1493789552580	-0.82302856	-5.2826843	-0.7435303
1493789552599	-1.0711517	-5.475342	-2.2747955
1493789552619	-1.4359131	-6.7280884	-4.164612
1493789552639	-1.3290405	-9.399857	-6.402069
1493789552663	-0.25263977	-12.278488	-8.245483
1493789552683	0.73275757	-13.209015	-8.1362915
1493789552702	0.046661377	-12.264755	-6.516098
1493789552724	-0.9914856	-11.250717	-5.702194
1493789552743	-1.7927551	-9.955261	-5.514099
1493789552762	-2.3447266	-8.200058	-4.9723053
1493789552780	-3.2552338	-8.302612	-4.437622
1493789552804	-4.5408173	-13.792786	-4.3746185
1493789552825	-2.454605	-18.843796	-3.6768188
1493789552844	-0.2361908	-15.91069	-1.579773
1493789552862	0.26774597	-9.02832	1.5147552
1493789552884	0.56407166	-4.1959686	5.608017
1493789552903	0.2923584	-3.7357788	6.520859
1493789552921	1.5760193	-6.7147217	6.3695984
1493789552943	4.7625885	-9.884735	6.068756
1493789552962	6.368454	-13.017319	1.7413483
1493789552983	6.0545807	-12.785965	-1.0571594
1493789553002	3.808014	-10.048218	-0.08232117
1493789553022	0.3527527	-8.275116	2.6214905
1493789553040	-1.7199554	-7.768341	2.7323914
1493789553071	0.09715271	-8.648666	2.686081
1493789553080	3.1192932	-9.731537	1.8120422
1493789553097	4.413742	-10.859879	1.5856018
1493789553117	4.088318	-10.212006	2.0202942
1493789553136	3.9173126	-9.173874	0.6023407
1493789553156	2.4127045	-8.750565	1.5418243
1493789553178	2.9401855	-8.367691	1.5230408
1493789553198	3.5612335	-8.383545	2.0830688
1493789553217	5.0839844	-8.844772	1.6710358
1493789553238	3.8808746	-8.977493	-0.1395874
1493789553257	1.8593445	-9.764435	-0.68096924
1493789553276	2.0134735	-9.849609	-0.69091797
1493789553299	4.93544	-9.608002	-0.404953
1493789553317	6.083557	-9.653809	0.07299805
1493789553339	6.300873	-10.700333	0.4861145
1493789553358	5.165268	-11.133148	1.0282898
1493789553398	2.3844757	-11.880386	-1.9078674
1493789553417	2.6301422	-12.083084	-3.975174
1493789553438	5.8292084	-11.618622	-2.904831
1493789553457	6.169922	-11.150665	-3.6772919
1493789553476	4.1450195	-11.222168	-3.3688202
1493789553497	2.2848816	-11.45874	-1.1233368
1493789553516	-0.28746033	-12.728867	0.57092285
1493789553537	-2.276184	-18.240173	3.1520538
1493789553553	-4.12265	-19.298798	3.8454285
1493789553574	-3.280304	-17.85382	0.33343506
1493789553592	-0.96424866	-15.101456	-2.4077759
1493789553612	2.5082397	-13.203369	-2.210907
1493789553632	7.5871277	-12.009247	0.0067443848
1493789553651	6.2559357	-11.464325	1.4715576
1493789553670	2.2954865	-9.068039	2.6078644
1493789553696	-0.82192993	-6.401123	4.014557
1493789553716	-1.2139435	-3.968521	4.610901
1493789553735	-1.8506622	-1.8645935	4.5676727
1493789553755	-1.7424316	-0.83781433	4.2323914
1493789553773	-1.0859833	-1.0752106	3.0925293
1493789553795	-0.43914795	-1.719284	1.6391754
1493789553814	-0.206604	-2.4384003	0.2897644
1493789553836	-0.37246704	-4.038727	-1.9936523
1493789553854	-1.2390747	-6.4098663	-5.7201385
1493789553874	-2.4238281	-11.126602	-9.552338
1493789553895	-2.5666504	-16.512909	-11.211655
1493789553911	-1.0917358	-16.984863	-12.052338
1493789553933	-0.3426056	-14.173904	-8.569153
1493789553954	-0.11555481	-11.8906555	-6.6829987
1493789553971	-2.2050934	-8.453522	-7.042572
1493789553993	-4.3974457	-7.080902	-5.944458
1493789554012	-6.11734	-11.587448	-4.0111694
1493789554032	-4.8264465	-16.56842	-1.2707672
1493789554054	-0.22567749	-14.032425	-1.3605347
1493789554068	2.643036	-8.382568	3.1215668
1493789554090	1.88414	-6.529587	6.706024
1493789554107	0.53359985	-7.397522	6.4464417
1493789554126	1.8588562	-9.39183	6.290024
1493789554146	5.5087585	-11.9496765	2.4025574
1493789554167	6.7511444	-13.128937	0.3387909
1493789554188	5.5966797	-10.90004	0.123291016
1493789554208	2.6119232	-8.941956	0.80908203
1493789554228	0.21450806	-8.250717	0.87976074
1493789554248	0.6055298	-8.141876	0.88209534
1493789554266	2.0865784	-8.502274	0.32740784
1493789554290	2.9505768	-9.284546	-1.5838318
1493789554309	3.2893982	-9.399338	-0.942688
1493789554329	2.1492004	-9.05249	0.8831024
1493789554349	1.4656372	-8.280914	0.83766174
1493789554368	2.8432617	-8.113892	-1.2491913
1493789554388	4.420212	-8.033768	-0.4693451
1493789554408	4.3488464	-8.441406	-0.40582275
1493789554428	3.6207123	-8.899765	0.6730499
1493789554448	2.407898	-9.608475	0.7494049
1493789554467	0.33250427	-11.20256	-0.14057922
1493789554486	3.1081085	-11.923431	-0.93318176
1493789554507	6.5107117	-11.283051	1.1543274
1493789554526	5.733185	-11.278412	1.0316925
1493789554547	3.6483307	-11.9131775	-0.35334778
1493789554582	3.242981	-11.728165	-1.6744537
1493789554602	4.9622498	-11.570023	-1.1659241
1493789554622	5.588867	-11.957474	-1.8482513
1493789554642	7.452133	-11.561127	-3.4883728
1493789554661	4.422806	-11.074921	-2.4371643
1493789554682	1.9692535	-11.206024	-2.0889435
1493789554703	-0.1076355	-12.225586	1.2415771
1493789554722	-1.2887878	-15.985611	5.01593
1493789554743	-3.905716	-19.05574	4.1588593
1493789554763	-3.4200592	-17.885162	-0.17114258
1493789554784	-1.748352	-14.487793	-0.9753113
1493789554806	0.379776	-13.324738	-0.24734497
1493789554824	4.8319244	-12.170746	1.010376
1493789554844	5.8218384	-11.138901	-0.5307007
1493789554866	5.6040955	-7.797943	1.4282227
1493789554882	2.9269867	-5.594284	3.7528229
1493789554904	0.63209534	-3.5826874	4.6073456
1493789554921	-0.98573303	-2.6604462	4.5446167
1493789554944	-2.562912	-1.4512634	4.369751
1493789554963	-2.957367	-1.155777	3.848587
1493789554981	-1.8743744	-1.8523865	2.026764
1493789555004	-1.1544495	-3.1498718	-0.24520874
1493789555022	-0.667923	-5.2322235	-2.8055878
1493789555042	-1.0809784	-9.007004	-7.5024567
1493789555066	-2.550171	-13.968399	-11.226303
1493789555087	-3.1356354	-16.583298	-11.147568
1493789555098	-1.4771118	-15.03714	-9.616669
1493789555117	-0.10018921	-11.971588	-6.3482056
1493789555137	-2.4547272	-9.253937	-6.045746
1493789555156	-5.9694824	-8.127441	-8.4856415
1493789555175	-6.345978	-13.610916	-8.502243
1493789555197	-2.0068817	-16.795563	-2.8614197
1493789555218	2.150299	-10.692947	1.657074
1493789555238	1.6232147	-5.160248	5.6942444
1493789555258	-0.6140137	-6.0832977	6.075836
1493789555277	-0.3725891	-9.06749	5.6542664
1493789555300	1.7792816	-10.930954	6.5737762
1493789555319	4.845337	-13.212585	3.1886292
1493789555339	6.59169	-13.736877	0.77931213
1493789555359	5.3252563	-11.549362	0.96009827
1493789555378	3.550705	-9.354752	1.1128845
1493789555399	2.2848969	-8.617355	0.95492554
1493789555418	0.97624207	-8.379074	0.6185608
1493789555438	0.03678894	-8.126831	-0.8977356
1493789555458	1.717392	-8.410751	-2.6354065
1493789555477	1.3445435	-8.904144	-0.9983978
1493789555497	1.2508545	-8.2565	1.5123901
1493789555517	0.70480347	-7.3545685	0.8748932
1493789555532	0.6295929	-7.382889	0.25193787
1493789555553	1.9024506	-9.332169	-0.6221466
1493789555574	3.6352386	-10.30864	-1.9954987
1493789555591	4.284485	-9.4435425	-1.1120911
1493789555610	3.823471	-9.930725	1.6060791
1493789555631	2.3657837	-11.571411	0.1639862
1493789555650	2.8998566	-12.678192	-1.9208374
1493789555669	6.7669373	-12.253998	0.4523468
1493789555689	6.2246094	-12.066788	-0.3738098
1493789555712	4.338043	-12.050583	-1.741333
1493789555736	5.6756287	-11.638107	-2.2330475
1493789555772	6.8441925	-11.529266	-1.8236694
1493789555792	7.020996	-11.412384	-3.0116882
1493789555792	5.48822	-10.885712	-1.4721527
1493789555832	1.8949585	-11.859711	-2.254074
1493789555849	-0.82118225	-12.925766	1.9239044
1493789555869	-2.3967285	-15.759399	4.971466
1493789555890	-4.4557343	-18.501282	3.3031921
1493789555913	-4.1338043	-18.38916	-0.0031738281
1493789555931	-1.763794	-14.941452	-1.3012238
1493789555952	0.8992615	-13.330292	0.049072266
1493789555971	5.9071045	-11.884415	2.549286
1493789555989	5.446396	-11.406738	-0.9405365
1493789556012	5.2059174	-7.726822	2.057907
1493789556031	1.9583893	-5.9378967	3.5933533
1493789556051	0.33740234	-3.7779388	5.089096
1493789556069	-1.4404907	-2.6596527	4.322998
1493789556097	-1.6988373	-2.1379395	4.5227356
1493789556109	-1.663559	-2.1151886	4.58461
1493789556127	-1.410553	-2.6266632	2.9524841
1493789556146	-1.1782074	-3.359558	0.84225464
1493789556166	-1.0500183	-4.720352	-1.3052979
1493789556186	-1.1541443	-7.5411224	-5.211136
1493789556209	-1.951889	-12.23877	-9.007233
1493789556227	-2.9529266	-16.124832	-10.823135
1493789556248	-2.8379364	-15.684479	-11.724182
1493789556268	-1.4336243	-12.844086	-8.203751
1493789556287	-0.8800812	-10.836441	-6.4801483
1493789556310	-3.0378723	-8.477341	-7.10318
1493789556329	-5.1143646	-8.819672	-7.8022766
1493789556348	-5.340866	-13.983368	-7.0976715
1493789556369	-1.6203308	-15.427628	-1.2414093
1493789556387	2.3765411	-10.766861	4.1077576
1493789556407	1.3646393	-7.8445587	7.0351105
1493789556428	-0.6523285	-7.428192	6.9282684
1493789556447	-0.044509888	-8.397781	6.775482
1493789556468	1.5756531	-10.317017	6.157181
1493789556486	4.659424	-12.525253	2.2176056
1493789556508	5.8240814	-13.02832	0.4217987
1493789556527	5.1855164	-11.312485	0.09837341
1493789556547	3.3427277	-9.61821	0.60746765
1493789556567	1.4791412	-8.570496	0.24684143
1493789556583	0.8028717	-8.004211	-0.18777466
1493789556604	1.1013947	-8.126938	-1.4888458
1493789556624	3.4021912	-8.644104	-1.3106079
1493789556642	1.7067719	-9.126892	-0.37893677
1493789556661	1.3558197	-8.287857	1.1786194
1493789556681	0.6602936	-7.557205	1.2095947
1493789556703	1.0034027	-7.755249	0.45950317
1493789556723	2.0561218	-9.150726	-0.74357605
1493789556744	3.3944244	-9.905991	-0.830719
1493789556765	3.2971344	-10.145325	-0.21109009
1493789556784	2.6677856	-10.574036	0.8425751
1493789556804	2.1249237	-11.611496	-1.3057709
1493789556824	3.8796234	-11.50325	-0.73287964
1493789556845	5.619522	-11.452042	0.28736877
1493789556864	5.252533	-11.411011	0.6989746
1493789556883	3.224823	-12.084396	-1.6102295
1493789556900	6.1122437	-11.536758	-1.8554382
1493789556938	6.3814087	-10.5607605	-1.5501251
1493789556961	6.608612	-11.169846	-3.355957
1493789556980	5.4589386	-11.120682	-2.650467
1493789556998	2.345871	-12.209595	-2.2872772
1493789557020	-1.6444092	-12.772446	1.5545349
1493789557039	-3.6114502	-15.142578	4.5628967
1493789557060	-4.869644	-18.606659	3.9421844
1493789557080	-4.1497803	-19.262222	0.46481323
1493789557101	-1.2114868	-17.589401	-0.4121704
1493789557119	1.6014404	-14.468246	-0.3889923
1493789557137	4.8069916	-12.803894	1.6755066
1493789557157	5.379364	-12.408463	-0.97120667
1493789557176	4.7500763	-9.949448	1.8391724
1493789557197	2.300766	-6.649933	3.6910706
1493789557218	0.94473267	-3.9106598	4.6236267
1493789557237	-0.6023102	-1.6760254	3.857376
1493789557258	-1.4564667	-0.7464752	4.0564117
1493789557277	-2.141388	-0.54574585	4.182266
1493789557298	-1.9625397	-1.1464844	3.3413544
1493789557320	-1.6621246	-2.2107239	1.8387909
1493789557339	-0.8796692	-3.530243	0.1431427
1493789557359	-0.80448914	-5.6753387	-2.0275574
1493789557378	-1.8674469	-10.017059	-7.0310516
1493789557398	-2.6792603	-16.308075	-11.90564
1493789557419	-1.8360138	-18.759079	-11.54451
1493789557438	-1.0925751	-15.983383	-9.341568
1493789557458	-0.87783813	-11.980194	-6.315735
1493789557478	-3.9198914	-8.805939	-6.1921997
1493789557497	-5.495758	-10.428329	-8.193314
1493789557518	-4.3664703	-16.5215	-9.331726
1493789557537	-0.017074585	-15.509018	-2.5870972
1493789557557	2.8598785	-6.4131317	6.3013763
1493789557577	-1.0072937	-2.6983032	7.462555
1493789557604	-3.5778656	-6.160324	4.0958557
1493789557612	-0.22225952	-9.860031	5.423706
1493789557631	4.0878754	-12.4869995	6.986664
1493789557650	8.066071	-14.8974	2.5758362
1493789557669	7.3252106	-14.1519165	-0.5236511
1493789557689	4.1467896	-10.803146	0.3274994
1493789557713	2.0247803	-9.079468	1.2274017
1493789557734	0.11956787	-8.916824	1.0207214
1493789557754	-0.0549469	-8.695007	0.9428711
1493789557774	-0.23944092	-9.360718	-0.9631195
1493789557793	0.70214844	-9.881561	-1.5444794
1493789557813	0.7940979	-9.604645	-0.8357849
1493789557829	1.0695038	-8.279968	1.47789
1493789557857	1.4726257	-7.5078278	1.3364563
1493789557871	1.9806519	-7.012985	-0.10748291
1493789557892	3.1555023	-7.9046936	-0.72032166
1493789557910	3.5485992	-8.751099	-0.7814636
1493789557932	3.2454987	-9.137634	-0.6227722
1493789557953	2.8651428	-9.836105	-0.0072631836
1493789557973	2.0486755	-10.86528	-0.39212036
1493789557992	1.6205292	-11.84137	-0.99476624
1493789558013	3.9016876	-11.06575	0.49302673
1493789558032	5.6262817	-10.631454	1.0336761
1493789558051	3.9532928	-11.459259	-0.21354675
1493789558072	4.00473	-11.980606	-1.730072
1493789558090	5.974182	-11.955933	-1.2961273
1493789558129	6.351364	-12.772888	-3.2003174
1493789558146	6.9172974	-12.179321	-3.030075
1493789558167	1.8496246	-12.148499	-2.0971222
1493789558186	0.0541687	-12.397461	-0.9598541
1493789558207	-1.1822357	-12.939911	3.5950012
1493789558228	-3.1067505	-16.322235	4.575409
1493789558247	-4.599701	-18.707932	1.8147278
1493789558268	-3.051361	-17.421707	-0.4317932
1493789558288	-2.2436218	-14.555328	-1.7242737
1493789558307	0.39474487	-12.842346	0.09983826
1493789558330	5.6840057	-11.482681	-2.0999603
1493789558349	4.6294556	-10.7378845	0.6802521
1493789558369	3.3394318	-7.367218	2.6237335
1493789558389	0.4901886	-5.740219	3.9689484
1493789558406	-0.2572937	-4.197998	3.9532013
1493789558429	-1.1060638	-2.792282	3.550537
1493789558448	-1.215683	-2.3841553	3.8478546
1493789558468	-1.0488281	-2.4636993	4.0472565
1493789558487	-1.6065369	-2.8619232	2.796463
1493789558506	-1.6169434	-3.5860443	0.75019836
1493789558528	-1.5984955	-5.0477753	-1.3217468
1493789558547	-1.8837891	-7.9252167	-5.470276
1493789558567	-2.422165	-12.899063	-10.162079
1493789558585	-2.5170898	-16.850845	-11.244003
1493789558611	-2.774231	-15.951553	-11.6201935
1493789558625	-1.651825	-11.852646	-7.7207336
1493789558640	-1.5904388	-9.48642	-5.6552734
1493789558660	-4.1710663	-8.169159	-6.270447
1493789558679	-5.556488	-11.158905	-7.5292816
1493789558698	-4.2709045	-15.780533	-6.5881195
1493789558719	-1.2097168	-12.993301	-0.7579956
1493789558739	1.00177	-6.8068085	5.513962
1493789558763	-0.33084106	-5.8649445	6.2798615
1493789558782	-1.1310425	-8.009613	4.7430573
1493789558801	1.4189758	-9.7122345	5.633667
1493789558822	4.0794373	-11.4713745	4.6918335
1493789558840	5.1269684	-13.600952	0.8260803
1493789558862	4.382309	-13.10614	-0.33361816
1493789558882	3.1309814	-10.645645	0.75419617
1493789558898	1.9039154	-9.163208	1.368576
1493789558919	1.3504028	-9.186722	1.5193787
1493789558942	0.34532166	-9.284943	0.2992859
1493789558961	0.07122803	-9.366486	-0.39009094
1493789558982	1.1782379	-9.248642	-0.9679718
1493789559001	0.7992401	-9.199036	-1.2022858
1493789559019	0.75650024	-8.561539	1.1160736
1493789559043	1.1257324	-7.6609955	1.4456024
1493789559062	1.3151703	-7.353363	0.33476257
1493789559082	1.7918243	-7.9316864	0.4593811
1493789559102	2.0134277	-9.021301	-0.41696167
1493789559118	2.5098114	-9.653946	-1.4159088
1493789559140	2.9283142	-10.028015	-0.96214294
1493789559156	3.2245789	-10.538467	-0.23458862
1493789559177	2.7721252	-12.02681	-0.5028229
1493789559196	3.653244	-12.123398	-1.3456116
1493789559220	5.0133514	-11.446594	-0.81248474
1493789559240	4.996353	-10.891251	0.20697021
1493789559259	3.3605347	-11.997559	-2.3973236
1493789559280	5.3826904	-12.184555	-1.7592773
1493789559299	5.8609924	-12.12059	-2.9250183
1493789559340	6.818405	-10.944351	-2.6674652
1493789559358	3.504654	-11.17215	-0.9395447
1493789559379	-0.29359436	-11.998474	-1.4098511
1493789559398	-2.048645	-13.911774	3.1650848
1493789559418	-4.2966003	-16.822205	4.3913116
1493789559439	-4.7551575	-18.041473	3.0183563
1493789559458	-3.740387	-16.4684	0.4842987
1493789559478	-2.3093567	-14.621933	-1.2094116
1493789559498	0.60305786	-12.938019	0.11582947
1493789559517	4.747467	-12.041229	1.8496552
1493789559538	3.5277863	-11.804489	-1.1668549
1493789559557	4.3052673	-8.994217	0.38746643
1493789559577	2.6681976	-6.0313873	3.3906403
1493789559597	0.09567261	-3.8788452	4.385971
1493789559613	-1.1777344	-2.3973694	3.9276428
1493789559633	-1.904007	-2.0608826	3.6377563
1493789559652	-2.1109161	-1.7800446	3.9631042
1493789559672	-1.9352875	-2.2107239	3.0955963
1493789559691	-1.6895142	-3.2009888	1.4006958
1493789559711	-1.424057	-5.0014496	-0.61964417
1493789559734	-1.0609589	-8.404526	-4.697571
1493789559753	-1.490509	-13.616943	-9.575638
1493789559773	-2.7336426	-17.389404	-12.12413
1493789559793	-3.1296997	-15.383179	-12.067596
1493789559811	-2.1495361	-11.860001	-8.557159
1493789559837	-1.3828735	-10.056152	-5.682907
1493789559854	-2.8496857	-8.015747	-5.3289185
1493789559874	-4.586746	-8.500397	-6.178787
1493789559894	-5.692917	-13.702011	-6.7991943
1493789559911	-3.2080994	-15.324753	-1.9667358
1493789559935	-0.37768555	-10.800125	2.5876617
1493789559953	-0.2492981	-6.93219	4.5122833
1493789559973	-0.8050995	-6.8375244	4.67659
1493789559993	0.29937744	-7.9354706	5.147888
1493789560012	2.711197	-9.533173	6.340439
1493789560033	4.5588837	-12.268829	3.430725
1493789560052	5.5177307	-13.958405	-0.100250244
1493789560072	4.3729706	-12.449005	-0.72743225
1493789560092	1.9816132	-10.092697	0.17193604
1493789560110	1.0381165	-8.901779	1.4526062
1493789560141	0.3148651	-8.723694	1.2153778
1493789560150	-0.14967346	-8.705597	-0.07836914
1493789560168	0.9597473	-9.213013	-0.9039154
1493789560187	1.7649689	-9.826263	-1.2233429
1493789560206	1.2382507	-9.172928	-0.8514557
1493789560226	1.029541	-8.516846	0.7123413
1493789560248	1.075943	-7.858444	1.1928864
1493789560268	1.5534515	-7.60054	0.6020813
1493789560288	1.8841705	-7.785919	1.4098511
1493789560307	1.6040497	-8.58197	0.41719055
1493789560328	1.8006287	-9.876984	-0.99339294
1493789560347	2.2660675	-10.651459	-0.8373871
1493789560370	3.0628967	-11.308838	-0.38368225
1493789560389	2.6084442	-12.410965	-0.7404785
1493789560409	3.878067	-12.091934	-1.2430878
1493789560427	5.922119	-11.597565	0.28585815
1493789560448	4.110443	-11.637314	0.11151123
1493789560488	2.9102478	-12.246094	-2.0044556
1493789560508	4.8414	-11.304855	-1.6986084
1493789560526	4.5907745	-11.250626	-2.2069244
1493789560548	5.676056	-11.825134	-3.4525757
1493789560566	5.0025024	-11.433411	-1.7094116
1493789560587	1.6117096	-11.837463	-1.790741
1493789560606	-1.6393738	-12.481125	1.0974121
1493789560625	-3.717331	-14.422287	4.193329
1493789560645	-5.0435486	-17.524338	3.2855988
1493789560665	-4.465042	-17.934158	1.1569214
1493789560682	-2.2740326	-15.217209	-0.5740204
1493789560701	-0.014038086	-12.996429	-0.5116272
1493789560720	4.162689	-12.020111	1.7328186
1493789560744	4.025223	-12.216812	-0.88414
1493789560763	4.2354584	-9.384949	1.0865173
1493789560783	2.058014	-6.5726166	3.4405823
1493789560801	-0.35951233	-5.0032654	4.206299
1493789560821	-0.7739258	-3.520172	3.9906464
1493789560846	-1.7353058	-2.6953735	4.0167084
1493789560862	-2.2322083	-2.1111603	4.1911316
1493789560881	-2.3000183	-2.4674225	3.11615
1493789560900	-2.0328522	-3.3100739	1.2692566
1493789560920	-1.7469482	-4.364456	-0.5981293
1493789560940	-1.6335754	-6.372635	-3.1158295
1493789560957	-1.9765778	-10.433716	-7.5259857
1493789560981	-2.5638123	-15.595108	-11.758682
1493789561000	-2.7220001	-16.664917	-12.513504
1493789561018	-2.0544891	-13.273361	-9.982742
1493789561040	-1.1629944	-10.436737	-6.4246216
1493789561059	-2.5889587	-8.204941	-5.541046
1493789561079	-5.121567	-7.016266	-6.1833496
1493789561099	-6.8230286	-10.8836975	-5.2939606
1493789561116	-5.5967865	-15.604065	-2.6157074
1493789561135	-1.8213959	-13.581467	-0.5397949
1493789561155	0.7295532	-9.022675	2.5747986
1493789561176	0.299469	-6.9111176	4.9712067
1493789561195	-0.34461975	-7.175812	4.343384
1493789561216	0.8846283	-8.295273	5.740387
1493789561238	2.9053192	-10.628143	4.6976624
1493789561257	4.9164124	-13.488617	0.7619324
1493789561277	4.596115	-13.646271	-0.23776245
1493789561297	3.468567	-11.498322	0.23782349
1493789561315	1.4732819	-9.778961	0.7217102
1493789561336	0.30767822	-8.777786	1.5690613
1493789561356	0.33581543	-8.604324	0.70199585
1493789561380	-0.5983887	-8.805878	-0.6832733
1493789561399	0.49487305	-9.3923645	-1.017456
1493789561419	0.74650574	-9.733582	-0.898407
1493789561437	0.9299164	-8.569092	0.8657837
1493789561458	1.1471252	-7.876953	1.1631775
1493789561478	1.5174713	-7.5490723	0.14251709
1493789561499	2.3367615	-8.041473	0.0816803
1493789561518	2.6383514	-9.649872	-1.0892792
1493789561537	2.5900116	-10.294693	-1.0207062
1493789561557	2.0406952	-10.285156	-0.057937622
1493789561579	2.564911	-10.184418	-0.24490356
1493789561597	2.5383606	-11.102875	-0.13949585
1493789561619	4.255295	-11.669495	-0.37756348
1493789561639	5.189911	-11.336868	0.31152344
1493789561671	2.0338135	-11.635132	-0.61468506
1493789561692	1.0059357	-12.171722	-0.8965912
1493789561713	2.7317352	-12.481857	-0.6119995
1493789561731	4.4365234	-13.130341	-1.6703339
1493789561754	6.4378204	-12.404404	-3.2834778
1493789561773	4.48143	-11.487213	-2.7756042
1493789561794	1.0252838	-10.553619	-1.6386261
1493789561813	-0.011260986	-11.697479	0.6609955
1493789561837	-1.5444336	-14.814606	4.0585785
1493789561854	-4.1401367	-17.122406	4.281616
1493789561873	-5.3909454	-16.961365	1.5375061
1493789561893	-3.3918915	-15.079178	-0.64401245
1493789561912	-1.0865784	-13.276367	-0.3715515
1493789561931	3.3916626	-12.152344	1.2787476
1493789561955	4.599716	-12.004257	-1.0964661
1493789561973	5.328018	-9.128815	1.4217834
1493789561994	2.6390533	-6.868622	2.8496857
1493789562013	-0.017837524	-5.1385956	4.0904083
1493789562031	-0.89785767	-3.7118225	3.6976013
1493789562053	-1.4547424	-2.8094177	3.9253693
1493789562072	-2.1673126	-2.2958374	3.8993835
1493789562093	-2.4298248	-2.5532837	3.0088806
1493789562110	-2.3204498	-3.215271	1.2812042
1493789562129	-1.976471	-4.1535645	-0.39779663
1493789562148	-1.904129	-5.7595367	-2.6365662
1493789562168	-2.839737	-9.493759	-6.9541016
1493789562187	-3.7797852	-14.377274	-10.924728
1493789562207	-3.438034	-15.995346	-11.498245
1493789562226	-2.449646	-14.099518	-9.530258
1493789562248	-1.6316528	-11.538666	-6.553528
1493789562268	-3.0148315	-8.472229	-6.202835
1493789562289	-6.0308228	-8.445801	-6.9035187
1493789562306	-7.7756653	-14.056747	-6.037796
1493789562326	-4.8965607	-16.313385	-1.0997925
1493789562346	-0.99642944	-11.010605	3.3127594
1493789562366	-0.36645508	-6.730591	6.063156
1493789562386	-1.1060333	-6.6666718	5.8519135
1493789562407	0.23994446	-8.731659	5.526993
1493789562426	4.025467	-10.24614	7.43425
1493789562446	6.3782806	-13.08432	2.1821594
1493789562466	5.6920624	-13.515076	-1.5724335
1493789562486	3.77977	-11.145966	-0.33207703
1493789562506	0.9169159	-9.372177	0.6501312
1493789562525	-0.52575684	-8.275757	0.6965027
1493789562545	-1.6280212	-8.0542755	0.44839478
1493789562565	-0.564682	-9.17482	-0.85424805
1493789562588	1.4628601	-9.9696045	-1.3936157
1493789562606	1.2775269	-9.889481	-1.407959
1493789562627	1.4455261	-8.736206	0.766098
1493789562653	1.01091	-7.967514	1.3078003
1493789562663	1.045044	-7.9953003	-0.25276184
1493789562682	1.4163055	-8.729126	-0.5188904
1493789562702	2.070938	-9.610962	-1.0970917
1493789562722	2.2289886	-9.78598	-0.57489014
1493789562742	1.5128021	-9.407333	0.33866882
1493789562762	1.5060425	-10.039322	0.66664124
1493789562781	1.1174927	-12.159943	-0.12409973
1493789562803	2.6670837	-12.161499	-0.6866455
1493789562823	3.7257843	-12.281158	-0.56832886
1493789562867	3.6598969	-12.072861	0.42037964
1493789562867	2.3471985	-12.138031	-1.4229889
1493789562904	4.525955	-11.718109	-1.1790771
1493789562922	4.9853973	-12.528885	-2.0534973
1493789562941	5.6188965	-12.251129	-2.850357
1493789562964	4.346817	-11.39888	-2.265503
1493789562983	1.9771423	-11.308334	-1.7644348
1493789563004	-0.8045502	-11.551529	1.2575073
1493789563023	-2.6492462	-13.954636	4.3297577
1493789563045	-5.9695435	-17.401474	3.2031555
1493789563063	-6.0764923	-18.391724	0.5957031
1493789563082	-3.870407	-15.256134	-0.46954346
1493789563104	-2.7948303	-13.19223	-0.8322754
1493789563121	1.8752747	-12.41127	-0.2713623
1493789563138	4.915741	-12.065491	-1.3440857
1493789563159	4.317154	-10.002121	1.9963989
1493789563180	2.0952759	-7.235718	2.7272797
1493789563197	-0.6935425	-4.6345673	4.503174
1493789563217	-1.3016815	-2.9178925	4.4708557
1493789563236	-1.6542206	-1.9342651	3.80307
1493789563258	-1.6421509	-1.7947083	3.7702637
1493789563279	-1.5336151	-2.3172302	3.1559296
1493789563298	-1.5181885	-3.2086945	1.5677032
1493789563318	-1.5897827	-4.2354584	-0.40704346
1493789563338	-1.9089661	-6.1036987	-2.834793
1493789563360	-3.4544067	-9.933228	-6.807785
1493789563379	-4.986969	-14.931656	-10.985413
1493789563399	-4.384735	-16.283905	-11.84462
1493789563419	-2.962387	-13.818726	-9.135483
1493789563437	-2.001648	-11.373962	-6.2650604
1493789563459	-3.3145142	-8.260254	-5.724304
1493789563478	-5.2622223	-6.0396423	-6.7147217
1493789563498	-7.086151	-10.066635	-6.010605
1493789563519	-4.815933	-14.682007	-1.0847473
1493789563537	-1.6481018	-14.205643	2.173645
1493789563558	0.0705719	-10.554199	4.1823425
1493789563577	-0.40478516	-7.4179688	6.1732025
1493789563597	-0.48991394	-7.20253	5.9026337
1493789563618	1.8029327	-9.598221	6.770111
1493789563638	3.6259613	-12.480774	4.0087585
1493789563659	4.0822296	-13.290436	-0.24720764
1493789563675	4.1930847	-11.438141	-0.23222351
1493789563694	3.057129	-10.065292	0.6973114
1493789563712	-0.31166077	-8.914291	0.2920227
1493789563732	-1.4737396	-8.216095	-0.40200806
1493789563754	-0.79241943	-8.186081	-0.9339142
1493789563774	1.4419403	-9.370636	-0.6331177
1493789563794	1.0206909	-9.628067	-0.8649597
1493789563814	0.6969452	-9.093002	-0.03881836
1493789563833	1.58992	-8.507309	0.5329437
1493789563856	1.4943085	-8.174515	0.6497345
1493789563875	1.8392487	-8.41774	0.014633179
1493789563896	1.5700989	-9.811005	-0.6745453
1493789563913	1.3109741	-9.87117	-0.7154083
1493789563935	0.8330841	-10.091293	-0.023956299
1493789563956	1.4633636	-10.698242	0.3454132
1493789563974	1.1401215	-11.9722595	-0.9461975
1493789563992	3.4662933	-12.439499	0.63578796
1493789564016	3.5454254	-12.3771515	0.020950317
1493789564033	2.859253	-11.803055	0.30241394
1493789564074	3.2797546	-11.92041	-1.6219025
1493789564091	3.6509094	-11.86908	-2.5979156
1493789564113	4.611145	-12.567871	-2.3677368
1493789564130	4.7144775	-12.697678	-3.6502075
1493789564148	4.0527344	-11.915192	-2.362091
1493789564170	1.2817688	-11.430801	-0.16526794
1493789564190	-2.3091583	-10.78334	2.7704773
1493789564207	-3.7759552	-13.263351	4.6174774
1493789564227	-6.2115784	-17.375305	3.2893677
1493789564247	-6.788849	-18.83191	-0.7764435
1493789564269	-4.631378	-15.342911	-1.2138367
1493789564291	-0.9151306	-12.656387	-0.14099121
1493789564311	6.3374023	-12.7894745	2.3310547
1493789564334	4.885132	-12.552719	-0.17306519
1493789564345	3.9533234	-9.378891	2.592804
1493789564366	0.33792114	-6.223114	3.6845703
1493789564387	-0.67427063	-4.102005	3.6396484
1493789564404	-1.072937	-3.4031067	3.7480469
1493789564427	-0.9243622	-2.4567108	4.282913
1493789564447	-1.4664612	-1.9875183	4.416214
1493789564468	-1.7920532	-2.488144	3.01445
1493789564487	-2.0572815	-3.2217712	0.9941559
1493789564507	-2.0182953	-4.1137238	-0.7969208
1493789564527	-2.213562	-6.6209564	-3.725937
1493789564548	-3.1828766	-11.317032	-7.5562286
1493789564567	-3.8084717	-15.797882	-10.706955
1493789564586	-3.6594543	-15.7157135	-11.80159
1493789564606	-2.7719727	-12.690018	-8.219254
1493789564626	-2.5835419	-10.8064575	-5.8660736
1493789564646	-3.9778442	-8.38176	-5.6693115
1493789564662	-5.180725	-5.7388306	-6.126114
1493789564681	-6.7612305	-9.119186	-4.7644043
1493789564701	-5.374954	-14.941223	-0.28746033
1493789564722	-2.481369	-16.618347	1.9337463
1493789564741	0.46125793	-12.676941	3.8035126
1493789564768	-0.33042908	-7.5276337	6.6917725
1493789564782	-2.0940857	-6.0625153	6.9705353
1493789564804	-0.14958191	-7.970871	7.760483
1493789564827	3.6274872	-11.941132	5.7415314
1493789564843	5.285614	-15.103897	-1.2248535
1493789564864	4.879318	-12.7708435	-1.0100098
1493789564884	3.4872894	-10.072952	-0.066604614
1493789564904	0.850647	-9.50116	-0.107925415
1493789564923	-0.46850586	-8.499741	-0.23451233
1493789564942	0.26789856	-7.9083405	-0.030441284
1493789564963	0.7344513	-8.488663	-0.16365051
1493789564982	1.1973877	-9.377457	-1.3137207
1493789565006	-0.46548462	-8.964447	-1.7552643
1493789565024	0.32617188	-7.635559	0.6766815
1493789565043	1.6662292	-7.505951	0.61450195
1493789565062	2.1524658	-8.905685	0.61668396
1493789565083	1.7306213	-9.770187	-0.1376648
1493789565102	1.3132172	-9.87912	-1.0579529
1493789565123	1.3035583	-10.225006	-0.59565735
1493789565140	0.95207214	-10.823807	0.39411926
1493789565163	0.5827179	-11.180283	-0.7307129
1493789565178	3.3501892	-11.594879	-0.32917786
1493789565197	4.467682	-11.303009	0.83151245
1493789565237	2.619049	-11.794327	0.59906006
1493789565259	1.2025299	-12.076187	-1.1395264
1493789565281	2.6659088	-12.106308	-1.9487915
1493789565299	4.133789	-11.69928	-1.9059906
1493789565321	3.7770844	-12.133148	-3.699936
1493789565336	4.934601	-12.164703	-3.0086365
1493789565357	3.2621613	-12.078903	-0.32795715
1493789565380	-1.6479034	-12.054001	0.01322937
1493789565399	-3.6454773	-12.763062	3.7540283
1493789565420	-6.4287567	-15.408066	4.106964
1493789565439	-7.432968	-17.07965	1.1054382
1493789565457	-5.7115173	-15.735687	-0.40693665
1493789565479	-3.5414124	-13.462387	-1.3950653
1493789565498	0.93692017	-13.346207	-0.558136
1493789565519	5.548752	-12.848953	-2.1437225
1493789565538	5.250595	-11.499771	1.122467
1493789565558	2.7008972	-8.7513275	1.6404266
1493789565578	0.3877411	-6.2642975	3.6579895
1493789565597	-0.9017792	-3.763092	3.968048
1493789565618	-0.8611603	-2.7060547	3.83815
1493789565637	-1.077774	-1.858551	4.225464
1493789565662	-1.6664734	-1.7141418	3.9568024
1493789565673	-1.8964996	-2.7702637	2.21138
1493789565692	-2.0750732	-3.612854	0.38172913
1493789565713	-2.120163	-4.672165	-1.3635254
1493789565732	-2.70076	-7.532547	-5.2539215
1493789565751	-4.054001	-12.438141	-9.665192
1493789565773	-4.7775726	-16.9216	-12.294708
1493789565793	-3.6375427	-16.478851	-11.721863
1493789565814	-1.8249054	-12.572876	-7.8129425
1493789565834	-2.5628815	-8.8697815	-6.019577
1493789565852	-5.7283173	-6.626053	-6.344696
1493789565874	-8.412567	-10.4487915	-6.021179
1493789565895	-7.230942	-15.542923	-3.5402527
1493789565914	-2.2078247	-13.262039	-0.7467804
1493789565935	0.6495819	-7.524765	3.815918
1493789565952	-0.92015076	-5.851227	6.3149414
1493789565972	-1.6338959	-7.8581543	4.814514
1493789565991	0.17774963	-9.900787	5.9907227
1493789566011	2.922943	-11.188919	5.71727
1493789566031	4.8470306	-13.320267	0.8287506
1493789566050	4.2563934	-13.505371	-0.3255005
1493789566071	2.9106598	-11.643768	0.6082001
1493789566091	1.5127106	-10.017349	-0.39398193
1493789566110	0.2390747	-9.227142	-0.16421509
1493789566130	-0.25048828	-8.803268	0.36079407
1493789566151	0.20910645	-8.660278	-0.5041199
1493789566182	0.55026245	-9.006821	-1.726593
1493789566192	1.0838318	-9.184219	-0.70791626
1493789566207	0.23895264	-9.18071	-0.44085693
1493789566225	0.45942688	-7.638138	1.6804199
1493789566245	-0.2366333	-7.462616	0.5998688
1493789566265	0.41377258	-8.103363	0.05632019
1493789566288	1.4932556	-9.081467	-0.004470825
1493789566306	2.24263	-9.425186	-0.27947998
1493789566326	2.4927216	-10.661377	0.09693909
1493789566347	2.7556458	-11.466415	0.09675598
1493789566366	0.9793091	-12.246887	-2.1528168
1493789566389	2.4877777	-12.7304535	-1.527832
1493789566428	4.4079742	-12.463867	-0.35476685
1493789566444	3.3589935	-12.538986	-0.30200195
1493789566464	2.8324738	-12.029434	-1.6219788
1493789566484	4.2544403	-11.988159	-2.0876923
1493789566508	4.393936	-12.646835	-2.0270233
1493789566528	5.0511017	-12.777771	-2.9900513
1493789566547	3.1648865	-11.670074	-0.8257446
1493789566567	0.57029724	-12.588333	-1.5355377
1493789566587	-2.1683807	-12.4865265	2.7166138
1493789566607	-4.359909	-13.65155	5.267273
1493789566627	-6.169586	-15.91037	3.6973267
1493789566647	-6.7377625	-16.404343	0.85905457
1493789566665	-5.212967	-14.310211	-0.34347534
1493789566684	-2.1390228	-12.794861	0.77163696
1493789566704	2.2544556	-12.832184	1.9177704
1493789566722	4.5489044	-12.276993	-2.2322845
1493789566742	4.596985	-9.804245	1.2307739
1493789566761	2.4569397	-7.255844	3.356247
1493789566782	-0.1303711	-4.6582947	4.1074524
1493789566804	-1.2866058	-3.188324	3.936432
1493789566825	-1.4771423	-2.3880768	4.302719
1493789566843	-1.5228271	-2.3710938	4.087204
1493789566862	-1.8910217	-2.8096313	3.0818787
1493789566887	-2.2044678	-3.4497833	1.5290527
1493789566905	-2.475525	-4.489914	-0.045822144
1493789566924	-3.0233002	-6.3982697	-2.472763
1493789566943	-4.070801	-10.207016	-6.495987
1493789566958	-4.78891	-14.996811	-10.278473
1493789566982	-4.5588837	-15.476746	-10.857666
1493789567001	-4.0022583	-12.34433	-8.417831
1493789567022	-3.1540985	-10.494812	-5.9882355
1493789567042	-3.3475037	-9.006546	-5.507553
1493789567060	-4.5080566	-6.6706543	-5.9241943
1493789567081	-6.462921	-8.444733	-5.2212067
1493789567100	-7.300171	-14.640015	-3.5677338
1493789567121	-4.11145	-16.463196	0.21073914
1493789567140	-1.3241882	-12.591705	1.0807648
1493789567159	-0.17163086	-8.003067	3.956833
1493789567179	-0.26255798	-6.0827484	5.6308746
1493789567202	1.342865	-6.690796	6.8852234
1493789567216	3.823532	-9.215652	7.9773865
1493789567235	5.2788696	-13.041916	2.7329102
1493789567255	4.597351	-13.757156	-1.881424
1493789567276	2.5912933	-10.816849	-0.7486267
1493789567298	-0.1076355	-9.635452	0.8828583
1493789567319	-2.5475464	-8.741959	0.3696289
1493789567336	-1.3634796	-8.419937	1.1201019
1493789567357	0.0066833496	-9.122864	0.8675842
1493789567380	1.7606201	-9.687119	0.36857605
1493789567399	1.3024445	-9.645218	-0.004272461
1493789567418	0.16868591	-9.012909	0.6025543
1493789567439	1.5338898	-8.421326	-0.49241638
1493789567458	2.9679108	-8.7621	-0.966156
1493789567475	3.8108826	-9.751801	-1.1195831
1493789567498	2.2933197	-10.12117	-0.32211304
1493789567519	1.1186066	-9.777313	0.80911255
1493789567538	-0.2059784	-10.261444	0.13552856
1493789567557	0.7176819	-11.352676	-0.81285095
1493789567573	2.2989655	-11.263275	0.16246033
1493789567597	1.7344208	-11.274216	0.23742676
1493789567616	1.9624176	-11.288666	1.5372162
1493789567655	1.5200195	-11.581421	0.11936951
1493789567655	1.1149445	-11.749268	-2.0066833
1493789567694	2.1299744	-12.385132	-2.905075
1493789567712	2.6065674	-13.037582	-3.7507935
1493789567734	4.7001038	-12.472519	-4.017288
1493789567757	4.453598	-10.987946	-1.2338562
1493789567776	1.2976227	-11.604797	0.23728943
1493789567791	-1.475708	-12.494232	3.6921234
1493789567809	-3.6312256	-15.414688	4.7578278
1493789567829	-5.6745605	-17.212418	2.7932434
1493789567849	-4.239044	-14.988937	0.36590576
1493789567868	-3.7386475	-12.91568	-1.2138367
1493789567890	-1.2377777	-12.7704315	0.0087890625
1493789567909	5.2825623	-12.561691	1.912857
1493789567930	5.0924225	-12.313919	-0.9206085
1493789567949	4.228058	-8.83902	0.8864441
1493789567968	1.8198395	-6.4636383	4.0933228
1493789567988	-0.23361206	-4.1354218	4.61055
1493789568009	-0.7928772	-3.2162628	4.187271
1493789568030	-1.4144897	-3.1506195	4.2566223
1493789568050	-2.0809479	-3.2999878	4.0653534
1493789568070	-2.4747314	-3.7861328	2.9206848
1493789568094	-2.8720245	-4.336685	1.1022186
1493789568110	-2.7054749	-4.8835144	-0.3924713
1493789568132	-2.7303314	-6.512207	-3.6973114
1493789568149	-3.3974	-10.235626	-7.6792755
1493789568176	-3.7990875	-13.573196	-9.529007
1493789568195	-4.117523	-13.667023	-9.096252
1493789568210	-3.9528503	-12.501297	-7.4858093
1493789568228	-2.9962006	-11.866791	-6.8601837
1493789568247	-3.1354218	-10.093933	-6.7169037
1493789568268	-4.4414063	-7.013687	-6.771286
1493789568288	-6.4383545	-9.286896	-5.8319244
1493789568308	-6.5681458	-16.340591	-4.741806
1493789568327	-2.8503265	-15.63356	-0.31303406
1493789568347	0.047302246	-9.354324	2.7467957
1493789568367	0.112213135	-5.8823853	6.3593597
1493789568386	-0.98599243	-6.1312256	6.5725403
1493789568412	0.24913025	-7.8135376	7.2174377
1493789568428	1.9716187	-10.940567	5.265671
1493789568447	2.5228882	-13.9448395	0.08988953
1493789568467	3.0735016	-12.669449	-0.2897644
1493789568487	3.6714783	-11.23703	-0.2897644
1493789568507	2.4553986	-10.60939	1.7361908
1493789568527	2.0493774	-9.233246	2.5371704
1493789568547	0.6829376	-8.406204	1.287262
1493789568566	-0.09199524	-8.701828	-0.2587433
1493789568586	-0.38711548	-9.639511	-0.80470276
1493789568603	-0.86891174	-10.191498	-0.82128906
1493789568624	-1.2584991	-8.318817	0.8153076
1493789568645	-0.18815613	-7.534561	0.9982147
1493789568668	1.0371246	-6.925049	0.16252136
1493789568683	3.1521301	-9.168381	0.6830597
1493789568703	3.4279785	-9.5634	0.46333313
1493789568722	2.5477295	-9.82135	-0.14135742
1493789568743	2.186676	-10.65239	-0.6923981
1493789568783	0.8397217	-10.83316	-1.0794525
1493789568804	1.8562317	-11.668304	0.06411743
1493789568823	4.0571136	-11.951263	0.732193
1493789568846	3.0213623	-11.742081	0.9349823
1493789568866	0.69117737	-11.82782	0.11306763
1493789568882	0.54138184	-12.041748	-1.1191101
1493789568906	2.9154968	-12.177826	-1.3308411
1493789568923	3.314804	-12.754303	-2.6292114
1493789568945	4.5926514	-13.297668	-2.9329987
1493789568966	2.076828	-12.0967865	-2.2999878
1493789568985	-0.83351135	-11.323532	-0.8377228
1493789569003	-2.6741486	-12.237488	2.6341858
1493789569023	-5.092346	-15.7612915	4.0932617
1493789569044	-7.336258	-17.550095	2.5343933
1493789569066	-5.930069	-15.520905	-0.21937561
1493789569080	-2.6478882	-13.300766	-0.9796448
1493789569104	2.3546753	-13.009796	-0.83547974
1493789569123	6.407791	-13.130737	-1.0675201
1493789569144	4.0009155	-12.126495	0.6039429
1493789569159	3.9226074	-8.8546295	0.97213745
1493789569186	1.22966	-6.521469	3.3400726
1493789569198	-0.015777588	-3.6890411	3.714569
1493789569218	-0.436615	-2.4247742	3.8339844
1493789569238	-1.0041504	-1.7129364	4.386551
1493789569257	-1.8486176	-1.5076447	4.2782745
1493789569278	-2.5408478	-2.4715424	2.891388
1493789569304	-2.5917358	-3.5072937	0.9898224
1493789569321	-2.5208588	-4.831955	-1.1351318
1493789569340	-2.6567383	-7.4430084	-4.6882935
1493789569361	-3.6927338	-11.634872	-7.8618927
1493789569379	-4.689102	-15.665543	-10.636093
1493789569401	-4.6293488	-15.757248	-11.756622
1493789569420	-3.7215576	-13.320343	-9.002701
1493789569440	-3.1354218	-11.112671	-6.5676727
1493789569460	-3.9300842	-7.6151733	-6.1166077
1493789569479	-5.0377655	-4.841324	-5.7850647
1493789569500	-7.328415	-8.28537	-3.6741943
1493789569519	-6.662781	-14.762558	-0.5839844
1493789569539	-4.420395	-16.371735	-0.45185852
1493789569559	-0.16363525	-13.035156	2.678482
1493789569578	1.1019287	-8.55423	6.8167114
1493789569599	-0.41687012	-6.6709137	6.414139
1493789569618	0.6156311	-7.6829987	7.0651855
1493789569638	3.0832825	-10.3069	6.184082
1493789569657	3.6729126	-14.105545	0.86309814
1493789569685	4.1652527	-13.398972	-0.702301
1493789569694	4.051193	-10.799698	0.09039307
1493789569713	-0.4936676	-9.358337	0.57611084
1493789569733	-2.7715607	-8.318024	0.024398804
1493789569753	-1.1777496	-8.443436	-0.46980286
1493789569772	0.3404541	-9.295197	-0.8367615
1493789569795	2.5399933	-9.530914	0.034500122
1493789569816	1.5693054	-9.3311	-0.0650177
1493789569836	1.2141266	-8.37941	1.0937653
1493789569856	1.395874	-8.155319	1.1609039
1493789569876	1.598587	-8.298004	0.16757202
1493789569895	2.080658	-8.422165	-0.42477417
1493789569915	2.350235	-9.318069	-1.8190155
1493789569955	1.2966309	-10.193558	-0.9823456
1493789569956	0.9183655	-10.527725	0.23828125
1493789569991	0.4788208	-10.795761	-0.502121
1493789570010	2.399002	-11.078751	0.0796051
1493789570031	4.2896423	-10.839996	0.21772766
1493789570052	3.0409393	-11.181046	1.1830139
1493789570071	1.0638733	-11.707169	0.66645813
1493789570090	1.4172058	-12.610367	-1.0489044
1493789570111	4.215515	-13.061768	-0.5474243
1493789570130	3.7162018	-13.736237	-2.330658
1493789570151	5.067032	-13.900955	-3.7599182
1493789570169	2.76474	-12.515289	-3.168213
1493789570188	-0.58021545	-10.979675	-2.3932037
1493789570208	-1.7133026	-11.828186	0.4278717
1493789570228	-3.416031	-13.937592	3.2620544
1493789570248	-5.444153	-16.089996	4.127014
1493789570267	-6.6701508	-16.045944	1.5734711
1493789570288	-4.442169	-14.162659	-0.80841064
1493789570312	-1.4756165	-12.66655	-1.0301666
1493789570331	1.5161743	-11.793198	0.31539917
1493789570348	4.060379	-11.017731	0.22250366
1493789570371	3.4152527	-9.701416	1.3993988
1493789570389	2.6483002	-7.1594696	2.3604736
1493789570411	0.20613098	-5.8623962	3.5343933
1493789570430	-0.9996948	-4.365967	3.4153442
1493789570450	-1.3155365	-3.2398071	3.657257
1493789570470	-1.6000366	-2.4204407	4.0020905
1493789570488	-2.237564	-2.3205872	3.0572815
1493789570510	-2.589798	-2.9101105	1.3697662
1493789570529	-2.6543884	-4.2206573	-0.7236328
1493789570549	-2.61203	-6.9039	-3.6181488
1493789570569	-3.9414673	-11.400528	-7.188858
1493789570587	-5.4956207	-14.76236	-10.097275
1493789570609	-5.447769	-13.535782	-9.983505
1493789570628	-4.385971	-11.102127	-7.853195
1493789570648	-3.4695435	-10.532227	-6.1932373
1493789570670	-4.0923004	-8.790955	-5.8496857
1493789570686	-6.156357	-6.1936646	-6.291809
1493789570707	-8.747437	-9.083801	-5.202759
1493789570726	-7.6880035	-16.642288	-2.1338806
1493789570743	-3.796463	-16.750626	-0.26237488
1493789570763	0.8131561	-9.540344	5.7986145
1493789570782	0.18327332	-6.0161133	6.9871216
1493789570802	-0.89720154	-7.203644	5.2413483
1493789570822	1.3239288	-9.305725	7.5944977
1493789570840	3.9739532	-11.391281	5.1010895
1493789570860	4.47908	-13.947189	-0.778595
1493789570879	4.7926483	-12.560242	-0.7302246
1493789570899	3.1174774	-10.647415	0.022109985
1493789570919	-0.32173157	-9.765625	-0.5106964
1493789570942	-1.6354675	-8.252518	-0.6145325
1493789570963	-0.18704224	-7.8765106	0.12704468
1493789570983	0.6689911	-8.898407	-0.8888397
1493789571002	1.3759003	-9.324875	-1.7810669
1493789571022	0.015029907	-9.623932	-0.86428833
1493789571043	-0.03262329	-8.508072	0.13417053
1493789571059	0.5189667	-7.430664	0.51026917
1493789571084	0.8009491	-8.199417	0.5804901
1493789571101	1.2111359	-9.389877	-0.4258423
1493789571125	1.7037659	-9.754898	-0.81825256
1493789571163	1.6816559	-9.568863	-0.807724
1493789571179	2.0277557	-10.5767975	0.36601257
1493789571199	1.6946869	-11.767929	-0.41938782
1493789571219	1.8569946	-12.602264	-0.8976593
1493789571238	3.5025482	-13.051636	-0.33398438
1493789571258	2.7530975	-12.745758	-0.8554535
1493789571277	2.535324	-12.457062	-0.74072266
1493789571299	2.9217834	-12.638336	-1.3054504
1493789571322	3.4870758	-13.376358	-1.9927063
1493789571339	4.9188232	-13.395187	-2.6227722
1493789571357	3.0602417	-11.894104	-1.5497437
1493789571381	-0.43910217	-10.957657	-2.3307495
1493789571399	-2.2602844	-10.806808	1.1085968
1493789571421	-3.7848053	-13.486511	4.049118
1493789571440	-5.8112793	-16.339737	4.050476
1493789571461	-6.6362915	-16.717377	1.3771362
1493789571479	-4.4903107	-13.599823	-0.8441162
1493789571498	-2.577652	-12.529877	-0.84669495
1493789571520	1.4898376	-12.299881	-0.7622528
1493789571539	5.550461	-11.906799	-1.8975677
1493789571559	3.563614	-10.081039	0.22828674
1493789571579	2.329712	-7.8719635	1.8964386
1493789571598	1.0204315	-6.157089	3.6731415
1493789571619	-0.75782776	-4.4940643	3.8500977
1493789571638	-1.8005524	-3.6143036	4.187729
1493789571658	-1.9391174	-3.0065765	4.3810577
1493789571676	-2.0515137	-2.79953	3.688324
1493789571696	-2.2317963	-3.0756683	1.8801117
1493789571714	-2.314911	-3.6710815	0.11300659
1493789571733	-2.421997	-5.119812	-1.9462433
1493789571753	-3.4324036	-8.698288	-6.3552094
1493789571773	-4.8167725	-12.951263	-10.21727
1493789571792	-5.776001	-14.516083	-11.210449
1493789571814	-5.051071	-13.154312	-9.715088
1493789571834	-3.038498	-11.32933	-6.848175
1493789571856	-3.4703064	-8.938812	-5.8651276
1493789571873	-6.150772	-6.823715	-6.800598
1493789571894	-8.372345	-11.723297	-6.3667145
1493789571916	-6.703232	-17.584396	-2.930603
1493789571935	-2.406662	-15.313751	-0.62387085
1493789571954	0.8964691	-8.089172	6.142105
1493789571971	-0.54190063	-5.5603333	6.994873
1493789571991	-1.4011078	-7.2495575	5.706299
1493789572012	1.0011749	-9.034622	7.8052673
1493789572032	3.4091187	-11.322678	4.5070496
1493789572052	3.7930756	-14.891006	-1.3788605
1493789572072	3.4239044	-13.192169	-0.14311218
1493789572091	2.36409	-10.984024	0.3508911
1493789572111	0.30586243	-9.849457	0.80255127
1493789572131	-1.2376556	-8.373474	0.66456604
1493789572151	-0.27998352	-8.230301	0.8582306
1493789572171	1.0756683	-9.1410675	-0.4335022
1493789572199	1.7097626	-9.510208	-1.9236298
1493789572210	0.5653534	-9.589661	-2.0428772
1493789572229	0.69104004	-7.99057	0.60998535
1493789572247	1.3890076	-7.6511993	0.52119446
1493789572268	1.3353729	-7.9677277	0.5031738
1493789572287	1.1140747	-8.433731	0.028121948
1493789572328	1.6211243	-9.510559	0.067855835
1493789572347	1.6823883	-10.032166	-0.3371277
1493789572369	0.76989746	-10.830368	0.40164185
1493789572388	-0.14482117	-11.593246	-0.24943542
1493789572408	0.0927887	-12.024261	-1.5423584
1493789572431	2.6272736	-12.377335	-0.35235596
1493789572450	3.6244812	-11.839172	-0.4316864
1493789572470	3.255722	-11.6345825	0.3701172
1493789572490	2.5781708	-12.246002	-1.4229889
1493789572510	4.556793	-12.5590515	-0.91659546
1493789572530	4.689911	-13.128967	-1.7784882
1493789572549	4.395874	-12.834885	-2.839676
1493789572569	0.82987976	-11.821365	-1.8968811
1493789572589	-3.1757813	-10.901001	-2.7112122
1493789572607	-2.7771606	-11.335342	2.8885193
1493789572629	-3.8112488	-14.520355	4.138733
1493789572648	-5.493744	-17.62387	3.2663727
1493789572668	-6.5279694	-17.81285	0.5995941
1493789572690	-4.5570526	-14.591736	-0.4139099
1493789572718	-2.6115875	-12.627182	0.19039917
1493789572723	1.7590027	-12.583832	-0.9010773
1493789572744	6.4923096	-12.12793	-3.2249908
1493789572763	4.667389	-9.847519	0.2796936
1493789572783	2.4925842	-6.8299255	2.8362427
1493789572803	0.047348022	-4.877884	4.382126
1493789572825	-1.2585297	-2.8946838	4.098633
1493789572843	-2.3015442	-1.8918915	3.8063812
1493789572866	-2.6121674	-1.5832977	3.7608795
1493789572884	-2.3825989	-1.6405334	3.015915
1493789572906	-2.0414734	-2.3112946	1.9537201
1493789572926	-1.7601624	-3.7380524	0.81474304
1493789572945	-1.7619476	-6.405548	-1.862854
1493789572965	-2.8268585	-11.734116	-7.9076233
1493789572987	-4.5621033	-16.877014	-12.488174
1493789573004	-5.466873	-16.16307	-12.94397
1493789573025	-3.9484253	-12.690506	-9.251694
1493789573046	-2.4416351	-10.196228	-5.618408
1493789573063	-3.4686737	-7.2976074	-4.9969482
1493789573080	-5.3977966	-5.5676727	-5.700943
1493789573099	-8.747101	-10.403137	-4.2813416
1493789573125	-7.4732056	-16.518982	-1.9507599
1493789573139	-4.3520966	-15.590988	-0.018447876
1493789573158	0.24353027	-10.230179	3.2133179
1493789573178	0.7945862	-7.0036316	6.9692535
1493789573197	-0.41200256	-6.6395416	6.313339
1493789573218	2.3134155	-8.17131	7.4080048
1493789573236	4.656067	-11.333389	5.427643
1493789573256	4.845886	-14.1819	-0.6057892
1493789573276	4.020462	-12.853302	-1.0280762
1493789573297	2.30307	-10.506897	-0.20100403
1493789573319	-1.5543518	-9.119675	0.32852173
1493789573338	-3.3652954	-7.42807	-0.30932617
1493789573356	-1.4163818	-8.200928	0.39086914
1493789573377	1.0933228	-10.25528	-1.1756134
1493789573400	2.5180206	-9.791183	-0.5673981
1493789573416	2.149353	-9.2634735	-0.46621704
1493789573439	0.896698	-8.349213	0.64575195
1493789573458	1.5241852	-8.05983	-0.08798218
1493789573479	2.1063232	-8.233475	0.089019775
1493789573498	1.9220581	-9.5047	-0.9737396
1493789573538	1.7367859	-10.2548065	-2.0250702
1493789573539	1.4360809	-9.574966	-0.36686707
1493789573560	0.9158783	-9.83316	0.1027832
1493789573597	1.2163696	-11.124252	0.26394653
1493789573617	2.2879639	-12.004028	-0.22485352
1493789573637	3.1581116	-11.878815	-0.03593445
1493789573656	3.1388397	-11.757904	1.0516052
1493789573677	1.7670746	-12.195679	-0.7814789
1493789573699	2.444809	-12.881226	-1.7472839
1493789573714	3.5523682	-13.44809	-1.6790009
1493789573736	5.049988	-13.218185	-3.251114
1493789573753	3.2789001	-12.285294	-2.5154724
1493789573773	-1.055954	-11.6392975	-1.9941711
1493789573793	-2.531479	-11.8980255	0.8566437
1493789573815	-3.8360138	-14.344177	4.134613
1493789573832	-6.1629944	-16.867737	3.3985748
1493789573852	-6.5714264	-16.78479	1.5842896
1493789573872	-4.546051	-14.1974945	-0.29545593
1493789573892	-2.2841644	-12.000458	-0.072525024
1493789573911	1.8731842	-11.89502	-0.4121399
1493789573929	4.9075623	-11.673523	-1.5055084
1493789573949	4.6603394	-9.516052	1.1565247
1493789573969	2.685135	-7.000519	2.7232666
1493789574003	-0.07469177	-4.45726	4.3819427
1493789574010	-0.7530365	-2.760376	4.2260895
1493789574070	-1.5375366	-2.3566895	3.9553986
1493789574070	-2.3774261	-2.1318054	4.123535
1493789574070	-2.582306	-2.583023	3.0536346
1493789574088	-2.5520477	-3.364914	1.081955
1493789574107	-2.3970947	-4.6924133	-1.0551453
1493789574128	-2.3932343	-7.1188354	-3.4890747
1493789574147	-3.422882	-11.362564	-7.5272217
1493789574167	-4.249222	-15.5859375	-11.833923
1493789574187	-4.169998	-15.311783	-12.330078
1493789574207	-3.1818085	-12.344498	-8.949631
1493789574226	-2.3800354	-10.157684	-6.424362
1493789574246	-3.3612518	-6.988037	-6.626358
1493789574266	-6.4848785	-8.420898	-6.812393
1493789574286	-8.942688	-15.621017	-5.100128
1493789574305	-5.05748	-16.282028	1.3002625
1493789574325	-0.81365967	-10.242081	3.613266
1493789574345	0.51779175	-6.273819	6.0508423
1493789574365	-0.5333557	-5.8700714	5.840027
1493789574385	0.59690857	-8.22113	7.367447
1493789574405	2.8552551	-11.147217	7.2667847
1493789574424	4.643753	-14.67691	0.6279297
1493789574444	4.105255	-14.258835	-1.43013
1493789574464	2.2916107	-11.170868	-0.16119385
1493789574484	-0.048614502	-9.7799225	0.23019409
1493789574504	-2.7743683	-8.900711	0.54226685
1493789574523	-1.5659943	-8.215454	0.83348083
1493789574543	-0.49336243	-9.347778	-0.3923645
1493789574563	2.4774933	-9.861877	-0.8421478
1493789574584	0.6126709	-9.478394	-0.3642273
1493789574604	0.3214569	-8.466064	0.6009674
1493789574624	0.70758057	-7.95076	0.99638367
1493789574643	0.22261047	-7.599365	-0.7180786
1493789574663	1.4701233	-8.008377	0.045776367
1493789574703	1.8717499	-9.340759	-1.1338806
1493789574723	1.9393158	-10.416031	-0.86047363
1493789574743	1.3710022	-10.291199	-0.19416809
1493789574762	1.4293671	-10.478775	0.14253235
1493789574811	1.5348206	-11.656937	-0.28144836
1493789574811	3.3735657	-11.968399	-0.50024414
1493789574822	3.6052094	-12.044113	0.47631836
1493789574841	2.4111633	-11.867325	-0.045150757
1493789574860	2.777649	-12.369293	-2.381668
1493789574880	4.746521	-13.120972	-2.0272827
1493789574900	4.8426056	-13.406158	-3.1540833
1493789574920	4.9162445	-12.475021	-2.9648132
1493789574939	1.0341644	-11.875473	-1.5432281
1493789594297	-2.6683807	-11.569504	-0.878006
1493789594297	-3.717331	-12.934937	3.0183563
1493789594297	-5.631195	-16.247803	3.7155762
1493789594297	-6.7653656	-17.54689	2.4331665
1493789594297	-5.480774	-15.777634	0.079559326
1493789594297	-3.8108826	-13.731323	-1.1265259
1493789594297	0.09715271	-12.564468	-0.967041
1493789594297	4.093872	-12.238022	-0.8149109
1493789594297	3.2888794	-11.298721	-0.05256653
1493789594297	3.3680725	-8.305634	1.5773621
1493789594297	1.7387238	-5.6464996	4.331375
1493789594297	0.1486969	-3.0264435	4.3571014
1493789594297	-1.0467987	-1.9984894	4.1219635
1493789594297	-1.9061432	-1.522049	4.399658
1493789594297	-2.4255066	-1.6598511	4.265671
1493789594297	-2.41568	-2.498825	2.5289764
1493789594297	-2.454193	-3.4073334	0.5007782
1493789594297	-2.47612	-4.784195	-1.0059967
1493789594297	-3.2190552	-8.236755	-5.1571198
1493789594297	-5.060684	-13.637299	-10.23967
1493789594298	-6.1031036	-18.082474	-14.134491
1493789594298	-4.508316	-16.547684	-12.447296
1493789594298	-2.5100098	-11.899567	-7.2171936
1493789594298	-3.8477173	-7.969208	-5.0460052
1493789594298	-7.069702	-5.9246063	-5.955612
1493789594298	-9.2964325	-11.345505	-5.8099823
1493789594298	-6.1283875	-14.937698	-1.5162048
1493789594298	-1.9373779	-11.724228	0.6576996
1493789594298	0.58218384	-7.91803	5.431534
1493789594299	-0.53526306	-7.504013	6.0981903
1493789594299	-0.86932373	-8.723724	4.930908
1493789594299	0.820343	-9.678909	5.899124
1493789594299	3.4486694	-11.125137	4.4389496
1493789594301	4.828018	-13.902405	0.12634277
1493789594301	4.495865	-13.542374	-0.31278992
1493789594301	2.7538605	-10.831421	-0.082839966
1493789594307	-0.6668091	-8.79277	0.22058105
1493789594307	-1.8708801	-8.206268	0.658432
1493789594307	-1.3973541	-8.421783	0.095047
1493789594307	0.12580872	-9.283157	-1.1541595
1493789594307	1.1651764	-9.865143	-1.8097076
1493789594307	0.7408447	-9.414169	-1.361969
1493789594307	0.969574	-8.269409	1.2753448
1493789594307	1.0531311	-8.01358	0.8460541
1493789594307	0.36203003	-8.242218	0.5258484
1493789594307	0.06008911	-8.860214	0.27000427
1493789594307	1.0819702	-9.352783	-0.029571533
1493789594307	1.8735962	-10.118118	-1.0245514
1493789594307	2.403717	-10.352692	-0.14891052
1493789594307	1.929657	-11.240326	-0.5993347
1493789594307	1.1799011	-12.25148	-1.2325897
1493789594307	2.7020874	-12.665253	-1.152008
1493789594308	3.626648	-12.18985	-0.49971008
1493789594308	3.2904663	-11.711136	0.037582397
1493789594308	2.9984894	-12.450882	-1.2775421
1493789594308	4.611267	-13.03241	-0.90623474
1493789594308	4.0026245	-12.985718	-2.5963898
1493789594308	2.781952	-12.4410095	-3.122635
1493789594308	-0.59432983	-11.287964	-1.4277802
1493789594308	-2.3052673	-10.798584	-1.0465851
1493789594308	-3.5141754	-12.35321	2.7485046
1493789594308	-5.4748993	-15.579712	3.558197
1493789594308	-6.999481	-17.206177	2.442688
1493789594308	-5.383087	-15.267548	0.5542145
1493789594308	-2.3665771	-12.721298	-0.3736725
1493789594308	0.6743469	-11.832993	-0.7855835
1493789594308	4.1089478	-11.763748	-0.13993835
1493789594308	4.2229614	-10.463913	0.43743896
1493789594308	3.3609314	-8.403946	1.3880463
1493789594308	1.3406677	-6.7227325	3.3481598
1493789594309	0.2372284	-4.2725525	3.6138153
1493789594309	-0.95944214	-2.865448	3.4792786
1493789594309	-1.7252655	-2.0289307	3.7788696
1493789594309	-2.5133362	-1.9581757	3.7107086
1493789594309	-2.68219	-2.7615204	2.3085175
1493789594309	-2.5764618	-3.908966	0.49768066
1493789594309	-2.344925	-5.653412	-1.3027344
1493789594309	-2.7946625	-8.809967	-5.0507813
1493789594309	-4.9383545	-13.622238	-9.974258
1493789594309	-5.667572	-16.763275	-12.795883
1493789594309	-4.450348	-15.0190735	-11.294067
1493789594309	-3.0	-11.89357	-7.0123596
1493789594309	-3.6429749	-8.899719	-5.070114
1493789594309	-5.82901	-6.3292847	-5.4564056
1493789594309	-7.723358	-9.554382	-4.996689
1493789594309	-6.6362762	-13.956467	-1.8117218
1493789594309	-3.2329712	-12.794662	1.2938538
1493789594309	0.28285217	-9.0946045	4.367401
1493789594309	0.8431854	-7.434189	5.9371033
1493789594309	-1.9836426E-4	-7.6365814	4.7815857
1493789594309	1.0384521	-9.254303	5.490616
1493789594309	2.9441986	-10.99614	3.8166199
1493789594309	4.2951355	-13.409805	0.015090942
1493789594309	3.6979828	-13.0347595	-0.5388794
1493789594309	2.1102448	-11.158615	0.49855042
1493789594309	0.055130005	-9.347885	0.23739624
1493789594310	-2.00737	-8.905914	0.08843994
1493789594310	-1.3978577	-8.838959	0.19017029
1493789594310	0.11740112	-9.202469	-0.53930664
1493789594310	1.7611694	-9.37384	-0.97099304
1493789594310	0.27677917	-9.670227	-0.95339966
1493789594310	0.14453125	-8.786377	0.64297485
1493789594310	0.9913025	-8.446655	1.0887909
1493789594310	1.4552612	-8.957016	-0.3829193
1493789594310	1.5341034	-9.1228485	0.64053345
1493789594310	0.75354004	-9.106659	-0.023452759
1493789594310	0.40841675	-9.4496765	-1.380661
1493789594310	1.0492554	-9.48584	-1.1658936
1493789594310	2.0967255	-10.341263	-0.23614502
1493789594310	2.16214	-11.639252	-0.4182129
1493789594310	2.9442139	-12.027756	-0.30178833
1493789594310	3.4371338	-11.23381	0.2580719
1493789594310	1.9073639	-11.382385	-0.53318787
1493789594310	1.6278534	-12.143036	-2.0633545
1493789594310	3.4228516	-12.93959	-1.6374512
1493789594310	4.387268	-13.083252	-3.1195068
1493789594310	4.653824	-12.332764	-2.9604187
1493789594310	0.7608948	-11.89679	-1.8436584
1493789594310	-3.016739	-12.011414	-1.0721436
1493789594310	-4.086914	-13.864288	2.7949677
1493789594310	-5.716522	-16.063477	3.8835144
1493789594310	-6.810547	-16.725128	1.8342285
1493789594310	-4.941162	-14.896835	0.049957275
1493789594311	-2.3749237	-12.8629	-0.65567017
1493789594311	1.1545868	-12.132736	-1.0234985
1493789594311	4.158249	-11.625702	-0.5121765
1493789594311	3.9804688	-10.18898	1.0168457
1493789594311	3.4724274	-8.177902	1.5677795
1493789594311	0.46409607	-6.4668274	2.879364
1493789594311	-1.1633453	-3.774231	3.3487244
1493789594311	-1.4592896	-2.4125824	3.0930786
1493789594311	-1.3686371	-1.9414978	3.4772491
1493789594311	-1.5861664	-2.073822	3.5889282
1493789594311	-1.9073639	-3.109726	2.1550598
1493789594311	-2.1467896	-4.422806	0.181427
1493789594311	-2.056366	-5.843933	-1.2663574
1493789594311	-2.93602	-8.937073	-4.601227
1493789594311	-4.5333405	-14.46344	-9.75119
1493789594311	-5.015732	-18.296768	-13.291611
1493789594311	-4.666733	-15.110748	-11.402481
1493789594311	-3.4384613	-10.368057	-6.551346
1493789594311	-2.6447144	-8.740982	-4.1114807
1493789594311	-3.3163147	-7.348358	-4.88295
1493789594311	-4.857971	-8.662811	-4.7889557
1493789594311	-4.3825684	-11.879349	-2.993393
1493789594311	-3.164383	-11.952286	1.2472992
1493789594311	-2.2231903	-10.504227	2.836319
1493789594311	-2.0660858	-8.541809	3.6019745
1493789594311	-1.4635468	-8.014374	3.418274
1493789594311	1.7922974	-8.863205	4.9901276
1493789594311	3.7620392	-11.323746	5.5938873
1493789594312	3.8660583	-12.50177	3.0985413
1493789594312	3.947647	-12.870743	-0.48258972
1493789594312	2.947815	-12.461472	-1.27034
1493789594312	-0.1349945	-10.66272	-1.1929169
1493789594312	-1.1547699	-8.861572	0.26411438
1493789594312	-2.4647064	-8.437363	1.1007538
1493789594312	-1.8033447	-8.790207	0.0393219
1493789594312	-1.2262421	-8.934921	-0.682312
1493789594312	-1.1431885	-9.12915	-1.5776978
1493789594312	0.81729126	-9.039322	-0.13835144
1493789594312	1.2076111	-8.912369	-0.075042725
1493789594312	0.95251465	-8.5928955	-0.20957947
1493789594312	1.5631714	-8.887939	-0.26927185
1493789594312	1.4866943	-9.832138	-0.075653076
1493789594312	1.3649445	-10.3723755	-0.9521179
1493789594312	1.6267548	-11.068832	-2.5122986
1493789594312	1.7617188	-11.228256	-4.361038
1493789594312	2.736374	-11.041489	-3.4367218
1493789594312	2.7583313	-11.352219	-1.6385956
1493789594312	1.838028	-11.300278	-1.7103271
1493789594312	0.4534607	-10.934326	-2.1184235
1493789594312	0.11091614	-10.281509	-1.6168518
1493789594312	0.97320557	-11.366821	-2.7591858
1493789594312	3.2312164	-12.715607	-2.7297363
1493789594312	4.920761	-12.307846	-0.8514099
1493789594312	3.0907745	-12.605804	-1.3853607
1493789594313	-2.0115967	-12.936798	0.9884491
1493789594313	-5.7252045	-13.843323	3.3996735
1493789594313	-6.604431	-15.9254	5.348282
1493789594313	-2.2250214	-15.7738495	3.3683777
1493789594313	2.655777	-13.196533	0.42375183
1493789594313	4.5442963	-11.513046	-0.9751892
1493789594313	3.9408112	-10.930847	0.6654053
1493789594313	2.6547852	-10.605103	2.5682373
1493789594313	1.3759308	-9.098877	2.4002686
1493789594313	0.14205933	-7.3071594	2.5209045
1493789594313	-0.8539734	-5.5884857	2.7406006
1493789594313	-1.3999634	-4.1091614	2.6529694
1493789594313	-1.395935	-3.584381	2.9252777
1493789594313	-1.2379303	-4.6300507	2.884674
1493789594313	-1.2673645	-6.4113464	2.4575958
1493789594313	-1.4303741	-7.829956	1.835968
1493789594313	-1.9038239	-8.908112	0.5056305
1493789594313	-2.061203	-10.680023	-2.7919617
1493789594313	-1.1880798	-13.43486	-8.227432
1493789594313	0.2450409	-15.389099	-12.213364
1493789594313	1.4752655	-11.984375	-3.120636
1493789594313	-1.7581177	-6.4364624	7.3156586
1493789594313	-4.784836	-4.8629	8.09993
1493789594313	-6.2743073	-7.693283	4.744568
1493789594314	-5.618866	-10.502029	0.7783661
1493789594314	1.2173157	-14.226883	1.897644
1493789594314	4.8011017	-18.227066	3.4464417
1493789594314	3.6110382	-16.843033	0.996933
1493789594314	3.270874	-12.251633	-1.4766998
1493789594314	2.148346	-9.849594	0.80104065
1493789594314	-0.09837341	-8.769196	1.4972229
1493789594314	-1.9521179	-9.143051	1.0670013
1493789594314	-1.886673	-9.415314	1.5939026
1493789594314	-1.7236328	-8.930908	0.29205322
1493789594314	-1.4134216	-8.385269	-0.9651184
1493789594314	-0.28744507	-8.099808	-1.2086945
1493789594314	-0.64105225	-8.103409	-0.8146515
1493789594314	0.84413147	-8.877014	0.39839172
1493789594314	-0.6762085	-9.530548	0.7892151
1493789594314	-1.0151215	-9.695023	1.944046
1493789594314	-0.6765137	-9.780899	3.0046387
1493789594314	-0.022720337	-9.874405	3.166275
1493789594314	0.01171875	-10.007721	2.2971497
1493789594314	0.018600464	-10.262054	1.0370636
1493789594314	0.2873993	-10.51767	0.51908875
1493789594314	0.7849121	-10.4930725	0.33013916
1493789594314	1.7685089	-10.114532	0.9388733
1493789594314	1.4594421	-10.228897	2.1725311
1493789594314	1.1311646	-9.898361	2.6717987
1493789594314	0.7502136	-9.886368	2.7081146
1493789594314	0.59155273	-10.192383	1.8196259
1493789594315	0.5860138	-10.324753	0.9090271
1493789594315	0.9610748	-10.277237	0.5931549
1493789594315	1.1902618	-10.307312	0.5189972
1493789594315	1.3647156	-10.508972	0.1905365
1493789594315	2.3276978	-11.237442	-0.17578125
1493789594315	2.6328888	-12.486786	-1.3014984
1493789594315	1.8709259	-12.952469	-3.3915863
1493789594315	1.6577606	-11.899307	-4.5699463
1493789594315	2.0619965	-10.63414	-4.5538483
1493789594315	1.6793976	-10.554092	-3.294098
1493789594315	0.31007385	-12.8606415	0.37754822
1493789594315	-2.0482178	-16.118027	4.0376434
1493789594315	-1.7219238	-16.306793	2.7796478
1493789594315	-1.5154877	-14.311859	1.5735321
1493789594315	-1.6257019	-13.304916	0.42037964
1493789594315	-0.23805237	-13.053741	0.6852722
1493789594315	-0.18728638	-13.2612915	-0.07084656
1493789594315	-0.4436798	-11.997589	-0.06188965
1493789594315	-1.1806488	-9.662125	2.371521
1493789594315	-0.7641144	-7.083145	3.3758698
1493789594315	-0.2776184	-5.058487	3.7798615
1493789594315	-0.6463928	-3.240326	3.6434937
1493789594315	-1.2640839	-2.6859741	2.6480865
1493789594315	-1.8496857	-3.2820587	2.009735
1493789594315	-2.3351898	-4.015457	1.4678497
1493789594315	-3.0858917	-4.732132	0.09399414
1493789594315	-3.959793	-5.666992	-2.0751495
1493789594316	-5.1788635	-7.18573	-5.41922
1493789594316	-6.287277	-9.037201	-7.413681
1493789594316	-7.092102	-10.849472	-7.3302765
1493789594316	-6.7683105	-11.975113	-6.618744
1493789594316	-5.1416473	-11.264191	-5.8004303
1493789594316	-5.2824554	-9.353989	-6.2029877
1493789594316	-8.917603	-8.416611	-5.944092
1493789594316	-10.817902	-11.937576	-5.7169952
1493789594316	-6.5182953	-15.76149	-2.8076782
1493789594316	-0.99546814	-9.698013	0.5978546
1493789594316	-1.4008789	-4.2913055	3.631546
1493789594316	-2.1387024	-5.7034454	3.5200806
1493789594316	-2.70549	-9.638794	6.743881
1493789594316	-1.018692	-12.807449	4.9387207
1493789594316	3.3991394	-13.446259	4.4075623
1493789594316	4.9244995	-13.744675	1.274231
1493789594316	3.498703	-12.967117	-0.26687622
1493789594316	1.9100342	-11.899353	-0.55763245
1493789594316	2.4318848	-10.618317	1.0463867
1493789594316	1.8408356	-9.858353	0.32363892
1493789594316	0.006942749	-8.820435	-0.20986938
1493789594316	-2.6721191	-8.511536	-0.66789246
1493789594316	-2.0417328	-8.071106	-1.3005524
1493789594316	-0.4580841	-9.791611	-3.1981812
1493789594316	-0.79670715	-8.996292	-0.99832153
1493789594316	0.6402283	-7.7714233	-0.96798706
1493789594316	1.528595	-6.961502	0.25961304
1493789594317	1.1309204	-7.313156	1.2991028
1493789594317	0.43023682	-8.228119	1.3113556
1493789594317	0.45033264	-8.649475	0.4013214
1493789594317	0.71339417	-9.716827	-0.6798401
1493789594317	1.7499695	-11.599915	-0.15032959
1493789594317	2.6136932	-12.814621	-0.27183533
1493789594317	0.7592926	-13.925598	-1.79953
1493789594317	3.689972	-13.674896	-1.7103424
1493789594317	5.438324	-12.873413	-1.1342926
1493789594317	3.5336761	-12.694763	-1.953949
1493789594317	3.7085571	-13.198502	-2.6328583
1493789594317	4.921463	-13.131866	-2.647461
1493789594317	4.081604	-12.591736	-3.3344421
1493789594317	2.3625183	-11.90686	-2.3677216
1493789594317	-0.06271362	-11.513977	-1.4576569
1493789594317	-1.9603882	-12.565598	2.2612
1493789594317	-3.8891144	-15.468918	4.8573
1493789594317	-6.700836	-17.7491	2.6840515
1493789594317	-6.8419647	-17.447418	-0.57518005
1493789594317	-4.2437897	-14.167038	-1.4365082
1493789594317	-1.3092957	-12.715988	0.37776184
1493789594317	2.8951263	-12.433945	0.02104187
1493789594317	4.5378723	-11.193924	-0.62387085
1493789594317	4.847107	-8.762558	1.9305115
1493789594317	2.309616	-6.2127075	3.7236633
1493789594317	-0.19006348	-3.593933	4.3944855
1493789594318	-0.92214966	-1.773407	4.6584473
1493789594318	-1.1051636	-0.8750458	4.8250427
1493789594318	-1.3471527	-0.8397064	4.3492584
1493789594318	-1.5642853	-1.5627594	2.7606049
1493789594318	-1.8237305	-2.6738892	0.8317871
1493789594318	-2.060318	-4.560257	-1.2873688
1493789594318	-4.042557	-9.590683	-7.5580597
1493789594318	-5.908905	-15.950882	-11.416031
1493789594318	-6.5308228	-18.250565	-12.458054
1493789594318	-5.3276825	-14.144974	-9.807297
1493789594318	-4.2481995	-10.003128	-6.038254
1493789594318	-5.3114777	-7.0888824	-5.5007324
1493789594318	-7.7719727	-5.4042206	-5.5709534
1493789594318	-9.188461	-12.8598175	-5.299881
1493789594318	-6.290985	-17.047592	-2.1978912
1493789594318	-0.17315674	-12.256439	2.4186401
1493789594318	-0.036209106	-6.273636	8.32048
1493789594318	-2.516922	-6.1312866	4.94812
1493789594318	-0.59013367	-8.669312	5.487381
1493789594318	1.2355804	-10.764679	6.7738037
1493789594319	3.39534	-13.528809	2.6420593
1493789594319	5.311737	-15.808716	-1.7311096
1493789594319	4.906555	-13.684006	-0.3650818
1493789594319	3.2931976	-10.519424	0.5288391
1493789594319	-0.35040283	-8.595322	0.21424866
1493789594319	-2.2977753	-7.436157	0.3894806
1493789594319	-2.2878418	-8.07753	-1.4751434
1493789594319	-0.4312439	-9.589661	-2.9494019
1493789594319	0.16345215	-9.676163	-0.97213745
1493789594319	0.22315979	-8.217758	0.8295593
1493789594319	0.8153076	-7.376053	0.49009705
1493789594319	0.6700592	-6.886307	1.541626
1493789594319	-0.5041504	-8.411163	-0.015014648
1493789594319	-0.10760498	-9.76387	0.15344238
1493789594319	1.6337891	-9.404694	-0.9939575
1493789594319	2.4252777	-10.075333	-0.9618988
1493789594319	2.5542755	-11.205841	-0.29042053
1493789594319	0.8360443	-12.367004	-1.0728302
1493789594319	2.5731812	-12.939423	-1.2193604
1493789594319	4.306427	-12.589539	-1.0108948
1493789594319	3.6124725	-12.220139	-1.7153168
1493789594320	4.317093	-12.963974	-2.6978455
1493789594320	5.4588013	-14.072678	-1.8122101
1493789594320	4.8965454	-13.7838745	-2.4895477
1493789594320	0.9130554	-12.891968	-2.3788147
1493789594320	-1.7175598	-11.719574	-1.4255676
1493789594320	-2.9449158	-13.4309845	2.9974518
1493789594320	-4.2856293	-17.9207	5.1397705
1493789594320	-6.3550415	-19.239471	2.9227753
1493789594320	-6.3312836	-17.262695	-0.58717346
1493789594320	-4.2403717	-13.575394	-1.2709198
1493789594320	-1.2180023	-12.132248	0.5906372
1493789594320	1.9806061	-11.834534	0.70477295
1493789594320	3.6736908	-10.540649	-0.68299866
1493789594320	3.640213	-7.654999	1.9774933
1493789594320	2.2893677	-5.4927063	3.7520447
1493789594320	0.33470154	-3.3079987	4.6122437
1493789594320	-0.8687134	-1.4144897	4.448166
1493789594320	-1.6172638	-1.1192017	4.450165
1493789594320	-1.9310455	-1.0639801	4.6123505
1493789594320	-1.8725433	-1.8216248	3.3459778
1493789594320	-1.6872406	-2.9982452	1.2008972
1493789594320	-1.674881	-4.48999	-0.9624481
1493789594320	-2.548996	-7.961151	-5.4432373
1493789594320	-4.930786	-14.238068	-10.014328
1493789594320	-6.397751	-18.58957	-14.318848
1493789594320	-5.4675293	-15.808655	-12.84079
1493789594320	-3.45253	-11.594223	-7.2262573
1493789594321	-3.5886688	-7.667572	-5.041626
1493789594321	-5.4677124	-4.601242	-6.3444824
1493789594321	-8.104462	-9.416122	-5.5408325
1493789594321	-6.584564	-16.89978	-2.117035
1493789594321	-4.049881	-16.173935	0.9286041
1493789594321	1.1499023	-9.733307	6.1071167
1493789594321	0.14752197	-6.100128	7.0819244
1493789594321	-1.8913879	-6.9742737	5.3402863
1493789594321	0.70983887	-9.720779	7.552765
1493789594321	2.5387115	-12.629852	4.5419617
1493789594321	3.3164978	-15.118622	-2.1170197
1493789594321	5.090149	-13.727737	-0.9064636
1493789594321	4.181137	-11.446579	1.2536926
1493789594321	0.10209656	-9.259659	1.1347046
1493789594321	-2.8948517	-7.6420135	0.18612671
1493789594321	-3.021408	-7.568695	-1.3533478
1493789594321	-0.15707397	-9.420319	-2.3802948
1493789594321	0.17640686	-9.965866	-0.9568329
1493789594321	0.9362335	-8.728989	-0.0715332
1493789594321	0.5200958	-7.518036	0.32406616
1493789594321	0.67233276	-7.173004	0.61587524
1493789594321	0.782959	-7.847275	0.5200653
1493789594321	1.1704712	-9.297546	-0.07165527
1493789594321	2.0316467	-9.957321	-0.76649475
1493789594321	2.1097412	-10.180878	-0.5229492
1493789594321	1.5840302	-10.854324	0.07312012
1493789594321	-0.08944702	-12.614212	-1.5560303
1493789594322	3.4597626	-12.953644	-0.9927521
1493789594322	4.451294	-12.368118	-0.6217499
1493789594322	3.0267792	-12.129379	-1.2514191
1493789594322	3.9322968	-12.541367	-3.1133423
1493789594322	5.4524994	-13.27681	-2.5870056
1493789594322	5.481827	-13.4110565	-2.7295685
1493789594322	3.5491333	-12.054062	-2.0704498
1493789594322	-0.9569092	-12.087631	-1.9779205
1493789594322	-3.9586334	-12.650558	1.1874542
1493789594322	-4.4309387	-15.678253	4.461319
1493789594322	-5.479889	-18.359772	3.682312
1493789594322	-5.7196655	-17.413681	0.5599365
1493789594322	-4.745987	-14.743301	-1.0079956
1493789594322	-3.1885986	-13.248535	-0.31799316
1493789594322	0.064834595	-12.861862	1.0514221
1493789594322	2.6956787	-12.460861	0.5505066
1493789594322	1.8424988	-10.307297	-0.31924438
1493789594322	2.8954315	-6.7175446	1.6674194
1493789594322	2.1195984	-4.37648	3.456192
1493789594322	0.5191498	-1.814209	4.2401123
1493789594322	-0.822937	-0.83621216	4.4375153
1493789594322	-1.3264008	-0.59739685	4.637314
1493789594322	-1.7385712	-0.9733429	4.171875
1493789594322	-2.0590057	-1.6588135	2.5750275
1493789594322	-2.042282	-2.7470245	0.2583313
1493789594322	-2.115158	-5.517334	-2.3153534
1493789594322	-3.6016083	-11.610611	-7.195511
1493789594323	-4.993683	-17.591843	-12.371475
1493789594323	-4.9494324	-17.505173	-13.302597
1493789594323	-4.364456	-12.723343	-9.373138
1493789594323	-3.3345642	-9.768112	-5.566925
1493789594323	-3.572464	-7.4706116	-5.855179
1493789594323	-5.2410583	-6.4982452	-7.586731
1493789594323	-6.476013	-13.226212	-7.4755096
1493789594323	-2.7594757	-16.422745	-3.7617645
1493789594323	-2.5025177	-12.152939	3.8631592
1493789594323	-1.2829895	-7.058914	5.8257904
1493789594323	-2.3245697	-5.2520905	5.742325
1493789594323	-1.206665	-6.5264587	6.2822266
1493789594323	1.4988708	-9.878418	9.184967
1493789594323	3.533432	-13.733307	5.0800323
1493789594323	4.3088226	-15.310867	-1.4207611
1493789594323	4.6678314	-11.864716	-1.055603
1493789594323	1.9302216	-10.021362	0.99209595
1493789594323	-0.79878235	-9.199295	1.3669739
1493789594323	-2.015686	-8.096634	-0.031921387
1493789594323	-0.83091736	-7.9236603	-0.40167236
1493789594323	1.2164612	-9.84259	-1.3259277
1493789594323	2.5922241	-9.50267	-0.06422424
1493789594323	-0.42529297	-8.948257	0.57206726
1493789594323	0.41792297	-7.7830963	0.5910797
1493789594323	0.8113861	-7.0245667	0.33259583
1493789594323	1.489502	-8.079132	0.20227051
1493789594323	2.4328308	-9.864944	0.21113586
1493789594324	1.2802429	-10.195129	-1.0141602
1493789594324	0.26712036	-10.392227	0.114471436
1493789594324	0.559433	-11.199539	-0.1329956
1493789594324	1.0874634	-11.916977	-1.2752686
1493789594324	3.6391144	-12.140945	-0.88993835
1493789594324	3.8600006	-11.96785	0.93418884
1493789594324	2.0051422	-12.105972	-0.3305664
1493789594324	2.1112213	-12.570419	-1.918457
1493789594324	3.9392853	-12.450729	-1.7612762
1493789594324	4.4247284	-12.872162	-1.9211884
1493789594324	4.6224823	-12.80719	-2.893982
1493789594324	0.64985657	-11.94603	-2.770691
1493789594324	-1.6298828	-11.699905	-1.0920563
1493789594324	-2.8143005	-12.367371	2.922287
1493789594324	-4.6571655	-15.644104	4.1027374
1493789594324	-6.565979	-17.83496	2.5579224
1493789594324	-6.1641235	-17.090515	0.12889099
1493789594324	-4.4199677	-14.180374	-0.8223572
1493789594324	-2.0095673	-12.864639	0.03567505
1493789594324	1.1979523	-12.548843	-0.06535339
1493789594324	3.928772	-11.317688	-1.3327332
1493789594324	3.9482574	-9.250656	1.0966034
1493789594324	3.4749908	-6.67482	3.7923737
1493789594324	1.0202484	-3.9613037	4.3479767
1493789594324	-0.73947144	-2.514511	3.938614
1493789594324	-1.1719971	-1.5939026	4.32399
1493789594324	-1.5849762	-1.0310059	4.472275
1493789594325	-1.8959808	-1.3579559	3.3272247
1493789594325	-2.074524	-2.6654968	1.2221832
1493789594325	-2.5748138	-4.315796	-0.70739746
1493789594325	-3.9024963	-6.985962	-3.4384003
1493789594325	-7.012512	-11.277313	-7.0556335
1493789594325	-8.123199	-16.260986	-11.088684
1493789594325	-6.292618	-15.89476	-11.308624
1493789594325	-3.3514862	-12.635345	-7.9164124
1493789594325	-3.1363068	-9.714996	-5.816681
1493789594325	-7.421051	-7.989334	-6.459381
1493789594325	-9.658844	-12.04422	-6.736618
1493789594325	-6.878479	-16.199692	-3.3040924
1493789594325	-1.8518372	-12.166061	-0.022109985
1493789594325	0.08444214	-5.577484	4.9961243
1493789594325	-2.4979248	-6.123123	6.874359
1493789594325	-2.7937622	-8.830994	6.3388977
1493789594325	-0.83206177	-10.628906	6.261627
1493789594325	3.2044373	-12.636841	5.1310577
1493789594325	4.5098724	-13.979584	-0.25697327
1493789594325	3.6630554	-12.456223	0.040908813
1493789594325	2.6607819	-11.158356	1.0800018
1493789594325	1.2084198	-9.916794	-0.24456787
1493789594325	0.53648376	-8.367279	0.624176
1493789594325	-1.0254517	-8.058502	0.21479797
1493789594325	1.0829468	-8.626617	-0.79722595
1493789594325	1.4300995	-10.534897	-3.216919
1493789594325	1.0828247	-9.41098	-1.1484222
1493789594326	0.6402283	-8.309555	0.65205383
1493789594326	0.5522156	-7.6467743	0.9158478
1493789594326	0.71473694	-7.649658	0.022720337
1493789594326	0.8861542	-7.713043	-0.40701294
1493789594326	1.1975708	-9.247711	0.19677734
1493789594326	1.1485596	-10.352783	-0.10360718
1493789594326	1.4886627	-10.838455	0.18501282
1493789594326	1.4025879	-10.868637	0.3362732
1493789594326	0.34246826	-11.835815	-1.3013
1493789594326	2.223938	-12.316864	-1.1520386
1493789594326	3.6453705	-12.202026	-0.28190613
1493789594326	3.0806885	-11.80748	0.3792572
1493789594326	2.1847382	-12.154846	-0.87857056
1493789594326	3.1247864	-12.605789	-1.2060547
1493789594326	4.0112915	-13.403595	-0.8663635
1493789594326	4.1031036	-13.270966	-2.4969482
1493789594326	2.4088593	-12.247177	-2.602417
1493789594326	-0.8196564	-11.054672	-1.5515594
1493789594326	-1.5637207	-11.691757	1.2391663
1493789594326	-3.271576	-14.697128	4.0217285
1493789594326	-5.901642	-18.04332	3.251587
1493789594326	-7.8619537	-17.752747	0.5336304
1493789594326	-5.7641144	-13.971298	-0.38536072
1493789594326	-3.379486	-12.626251	0.5604553
1493789594326	0.8529663	-12.372681	-0.16181946
1493789594326	5.0847015	-11.228531	-1.3321838
1493789594326	3.7060547	-9.316971	0.08137512
1493789594327	1.8488464	-6.948807	2.3313751
1493789594327	0.07054138	-5.2602997	3.6994934
1493789594327	-0.57173157	-3.035202	3.5310364
1493789594327	-1.6554413	-1.9188995	3.540451
1493789594327	-1.9348907	-1.6605988	3.7077637
1493789594327	-2.2527924	-1.8379669	3.002365
1493789594327	-2.3070831	-2.6141357	1.6121979
1493789594327	-2.0595703	-4.032486	0.0949707
1493789594327	-2.2190857	-6.3316803	-2.799118
1493789594327	-3.7133636	-10.931473	-8.206253
1493789594327	-5.3289948	-15.835434	-11.823181
1493789594327	-5.581009	-16.243286	-12.081039
1493789594327	-3.9894714	-13.124695	-8.723282
1493789594327	-2.51503	-10.308914	-5.7207336
1493789594327	-3.9004974	-7.465103	-5.2348022
1493789594327	-6.847763	-6.266617	-6.2800446
1493789594327	-9.286636	-12.743088	-5.942459
1493789594327	-5.727417	-17.69638	-2.4663239
1493789594327	-1.1129608	-11.939438	0.9041748
1493789594327	-0.16957092	-5.9578094	6.3654327
1493789594327	-2.6246643	-5.9875793	4.986389
1493789594327	-2.1819458	-8.362869	4.759247
1493789594327	-0.10089111	-9.633621	6.438446
1493789594327	2.5907288	-12.357727	3.5679626
1493789594327	5.2323914	-14.821152	-1.0790863
1493789594328	4.444229	-13.74617	-0.1768341
1493789594328	3.859146	-11.674423	0.2477417
1493789594328	1.8628998	-9.838226	-0.18663025
1493789594328	-0.2871399	-8.805969	0.8603363
1493789594328	-1.4792938	-8.372513	0.9206848
1493789594328	-1.8539124	-8.383392	-1.2866211
1493789594328	-0.9688873	-9.591568	-2.0424805
1493789594328	0.09010315	-10.112915	-2.252533
1493789594328	-0.37329102	-8.783096	0.06428528
1493789594328	0.7490082	-6.8542633	1.2072449
1493789594328	0.59054565	-7.2543945	0.37477112
1493789594328	0.9313507	-8.938599	-0.20947266
1493789594328	0.8139496	-9.810684	0.29656982
1493789594328	1.2015839	-9.574265	-0.7714844
1493789594328	1.5820465	-9.460892	-0.51060486
1493789594328	2.1708221	-10.184586	0.2982483
1493789594328	1.2343903	-11.617523	0.32247925
1493789594328	1.4911804	-12.796371	-1.759491
1493789594328	3.5390625	-12.487518	-0.4827881
1493789594328	3.8052063	-12.150192	-0.29440308
1493789594328	3.639679	-13.075638	-1.3965759
1493789594328	5.330353	-14.108337	-1.3386688
1493789594328	4.9188385	-13.951035	-3.2043915
1493789594328	2.7836761	-13.125473	-3.754074
1493789594328	-0.8772583	-11.307892	-2.1660767
1493789594328	-2.0456238	-10.891937	-1.0683441
1493789594329	-1.9482422	-13.146118	2.4247894
1493789594329	-3.8565216	-16.5298	3.74411
1493789594329	-5.6611633	-17.590591	2.6799927
1493789594329	-5.079773	-15.32608	0.23321533
1493789594329	-3.81987	-13.106979	-0.6382599
1493789594329	-2.4532166	-11.96759	-0.075164795
1493789594329	1.1574402	-11.975723	-0.6827698
1493789594329	3.8953247	-11.311157	-1.6230011
1493789594329	3.9947815	-8.670441	-0.10321045
1493789594329	3.0655823	-6.4661407	1.9690857
1493789594329	1.1249542	-4.720581	3.5995026
1493789594329	-0.6972046	-2.6329193	3.6740875
1493789594329	-1.8956451	-1.8902435	3.93544
1493789594329	-2.0991974	-1.8971558	4.103424
1493789594329	-2.2129974	-2.2007904	3.5017548
1493789594329	-2.2566833	-2.9493256	2.1837006
1493789594329	-2.0199127	-4.3047485	0.5620575
1493789594329	-2.069397	-6.668579	-1.7393036
1493789594329	-3.2824554	-11.59346	-7.6539
1493789594329	-5.658127	-17.152206	-11.730148
1493789594329	-6.27861	-16.663986	-12.709137
1493789594329	-4.66539	-12.381317	-9.009277
1493789594329	-3.0771484	-10.154739	-5.989929
1493789594329	-4.284195	-9.072342	-5.4813232
1493789594329	-7.0762024	-9.231262	-7.4374237
1493789594329	-8.991425	-14.9700165	-6.5104065
1493789594329	-4.9591675	-14.615585	0.12597656
1493789594330	-1.3615417	-8.158493	4.2127533
1493789594330	-0.90141296	-5.258713	7.00589
1493789594330	-1.8217621	-7.1441345	5.169647
1493789594330	1.4636536	-9.018036	6.8950653
1493789594330	3.3867798	-11.067963	6.804413
1493789594330	4.935425	-14.000076	-0.85035706
1493789594330	3.5361938	-13.603043	-1.9247131
1493789594330	2.8175507	-10.207962	1.1699677
1493789594330	0.6451874	-9.048264	0.9347992
1493789594330	-1.88414	-8.784836	-0.7605438
1493789594330	-1.587677	-8.469879	-0.38684082
1493789594330	0.5357666	-9.274933	-0.6184082
1493789594330	2.3332214	-10.182129	-1.5204773
1493789594330	2.2913208	-9.174484	-0.77641296
1493789594330	0.24795532	-8.686569	-0.16278076
1493789594330	-0.3918152	-7.719986	1.2645264
1493789594330	0.5148468	-8.204559	0.9351654
1493789594330	0.7758179	-8.864487	-0.13430786
1493789594330	1.1318054	-9.669342	-0.22314453
1493789594330	1.4117737	-9.996185	-0.6529083
1493789594330	1.7917023	-10.208771	-0.6292267
1493789594330	2.0670776	-11.726456	-0.16191101
1493789594330	1.5007935	-12.313019	-1.7193451
1493789594330	2.0945587	-12.651779	-1.310852
1493789594330	3.4483795	-12.427734	-0.7413788
1493789594330	3.7424011	-11.866364	-1.7578735
1493789594330	3.9878387	-11.853851	-3.003189
1493789594331	5.2873077	-12.452866	-2.4970856
1493789594331	5.6842957	-13.397156	-1.9646301
1493789594331	3.6759796	-13.092346	-1.2986603
1493789594331	-1.7246857	-12.543472	-1.351944
1493789594331	-5.1343994	-13.279053	2.051178
1493789594331	-5.5791626	-15.394577	4.933182
1493789594331	-6.4024353	-16.990631	2.92807
1493789594331	-6.087143	-16.746414	0.023712158
1493789594331	-3.5562286	-14.707397	-1.0823517
1493789594331	-0.7828064	-13.202988	0.18031311
1493789594331	1.8882904	-12.763092	0.338562
1493789594331	3.5008545	-11.61676	-0.74845886
1493789594331	2.8746796	-8.685318	0.6163635
1493789594331	2.4411469	-6.2492065	2.526352
1493789594331	0.60783386	-3.9107208	3.7869568
1493789594331	-0.1799469	-1.8065033	4.1002655
1493789594331	-1.1873016	-0.99887085	4.54834
1493789594331	-1.8959503	-0.90470886	4.7225037
1493789594331	-2.1586304	-1.572586	3.7746887
1493789594331	-2.2567291	-2.5526123	1.6737823
1493789594331	-2.3102875	-4.107071	-0.91908264
1493789594331	-2.615387	-7.7627716	-5.1963806
1493789594331	-4.316391	-13.973877	-9.28302
1493789594331	-5.13768	-16.976257	-12.355087
1493789594331	-5.0273438	-13.645096	-10.89447
1493789594331	-4.02594	-10.551025	-7.5026855
1493789594331	-3.4346771	-10.298538	-6.122879
1493789594332	-5.0657196	-8.901093	-7.2484894
1493789594332	-7.722229	-13.8849945	-8.824402
1493789594332	-7.8513184	-18.58789	-4.8425293
1493789594332	-3.6598053	-12.074707	5.055008
1493789594332	-0.39453125	-5.272003	7.9426117
1493789594332	-1.5605774	-4.8571167	7.7263336
1493789594332	-0.2871704	-7.2825623	6.8980103
1493789594332	3.529068	-10.815475	9.051193
1493789594332	5.5419617	-14.288834	2.777771
1493789594332	5.0747986	-15.20639	-2.6328125
1493789594332	3.494049	-10.949921	-1.1846466
1493789594332	1.16539	-8.900986	1.3111725
1493789594332	-1.9353027	-8.174179	0.33233643
1493789594332	-3.1343842	-7.7800293	-0.20080566
1493789594332	-0.61099243	-8.218658	-0.29359436
1493789594332	2.4787598	-10.205124	-0.5782318
1493789594332	1.411972	-9.537964	0.51179504
1493789594332	-0.6793518	-8.494583	0.33555603
1493789594332	-0.09750366	-7.843689	0.8261261
1493789594332	1.2098999	-7.329315	0.66189575
1493789594332	0.83813477	-9.135544	-0.22375488
1493789594332	1.2525024	-10.181412	-1.6446991
1493789594332	1.2378845	-9.9604645	-0.3730774
1493789594332	1.0076294	-11.047623	0.7854309
1493789594332	1.6408691	-13.007797	-1.7607269
1493789594332	4.4885864	-13.341232	-1.9801788
1493789594332	4.8644714	-12.380524	-0.90745544
1493789594332	4.1676483	-12.170425	-1.4803925
1493789594333	3.9793243	-12.100403	-3.0259857
1493789594333	5.3945465	-12.956848	-2.874878
1493789594333	5.07164	-13.1336975	-2.1708832
1493789594333	3.2332916	-12.461029	-2.078476
1493789594333	-0.59817505	-12.341019	-1.3039856
1493789594333	-4.3939667	-13.150391	1.1314697
1493789594333	-5.665436	-15.223907	5.1071625
1493789594333	-7.564987	-17.728561	3.4103699
1493789594333	-7.261688	-17.929504	0.04814148
1493789594333	-4.684311	-15.340317	-0.5642853
1493789594333	-2.2392273	-13.034119	0.015213013
1493789594333	1.0356293	-12.638412	0.14027405
1493789594333	3.6022797	-11.859467	-0.5159912
1493789594333	3.0703278	-9.699387	0.413208
1493789594333	2.835144	-6.9344788	2.4768524
1493789594333	0.99212646	-4.413788	4.122528
1493789594333	-0.18066406	-1.9056549	4.6734314
1493789594333	-0.858902	-0.5392151	4.9591217
1493789594333	-1.2989502	-0.24124146	4.9035645
1493789594333	-1.6896667	-0.8616333	3.7564697
1493789594333	-1.9432983	-1.9056549	1.5822449
1493789594333	-2.139618	-3.3338623	-0.53453064
1493789594333	-2.8176422	-6.4580994	-4.2521667
1493789594334	-4.9872437	-12.11171	-9.407288
1493789594334	-6.307144	-17.296753	-13.174057
1493789594334	-5.3642273	-15.873306	-12.239563
1493789594334	-3.7174072	-12.38298	-8.594086
1493789594334	-3.6966553	-10.052063	-6.500168
1493789594334	-7.058029	-8.156845	-7.4199524
1493789594334	-9.988159	-10.164886	-5.688965
1493789594334	-7.769821	-15.302185	-1.6846008
1493789594334	-3.632309	-14.294281	0.17059326
1493789594334	0.6611481	-8.438004	5.6604004
1493789594334	-0.66955566	-6.4584503	7.955139
1493789594334	-1.8880157	-7.5541687	5.970764
1493789594334	-0.62635803	-10.107681	7.388214
1493789594334	1.9071655	-12.254211	3.8985138
1493789594334	3.6383057	-14.530441	-0.9281616
1493789594334	3.1685486	-13.351868	-0.023483276
1493789594334	2.7284546	-10.555511	1.226654
1493789594334	1.4775848	-9.716339	0.7545166
1493789594334	1.0338135	-9.275192	0.11584473
1493789594334	1.3852997	-9.388962	-0.84228516
1493789594334	1.5682831	-9.681091	-0.81459045
1493789594334	1.2487183	-9.290726	-1.8011475
1493789594334	0.80952454	-8.423828	-0.81877136
1493789594334	-1.7253723	-7.210678	0.23927307
1493789594334	-0.46324158	-6.607422	1.2965851
1493789594334	0.3361969	-5.610794	0.31282043
1493789594335	1.1520996	-7.8092957	-1.4799194
1493789594335	2.1707	-10.195496	-0.28819275
1493789594335	1.712677	-10.840118	-0.75572205
1493789594335	1.6404724	-11.246674	0.37249756
1493789594335	1.7837067	-11.91951	-0.47296143
1493789594335	1.2038879	-12.748093	-1.9488373
1493789594335	4.382416	-13.428528	-0.3996582
1493789594335	5.0268555	-13.366531	-0.019882202
1493789594335	3.1123047	-13.595947	-1.7780609
1493789594335	3.9927368	-14.019928	-2.6565094
1493789594335	4.9111633	-14.463409	-1.9932404
1493789594335	4.690094	-14.008316	-2.9111633
1493789594335	1.3027649	-12.382172	-2.5562744
1493789594335	-0.753479	-10.943649	-1.5272064
1493789594335	-1.9637909	-12.744446	3.7480469
1493789594335	-3.5128784	-16.351166	5.2074738
1493789594335	-6.3229523	-18.21466	1.8364716
1493789594335	-6.0005646	-16.992783	-0.91256714
1493789594335	-4.3021393	-13.856674	-0.9417114
1493789594335	-1.4070282	-12.607681	1.424881
1493789594335	3.748932	-12.642548	0.66859436
1493789594335	5.1258545	-11.508499	-0.72621155
1493789594335	3.7311554	-7.6552887	2.2567139
1493789594335	1.8388214	-4.426193	4.074463
1493789594335	-0.78266907	-2.510849	4.5624084
1493789594335	-2.0174255	-1.3925629	5.4557495
1493789594335	-2.1134949	-0.9269867	5.4539185
1493789594335	-2.0453796	-1.0309296	4.3277435
1493789594336	-1.9594727	-1.4658813	2.5609741
1493789594336	-1.8343048	-2.4717102	0.72528076
1493789594336	-2.1471863	-5.302475	-2.9388275
1493789594336	-3.6353607	-10.405853	-8.798035
1493789594336	-5.664795	-16.294327	-12.535538
1493789594336	-6.3814545	-16.545135	-12.1250305
1493789594336	-5.1939087	-12.894653	-9.204819
1493789594336	-4.168518	-10.125793	-6.857773
1493789594336	-6.991043	-7.9457397	-6.6956024
1493789594336	-9.608978	-10.525742	-6.5321045
1493789594336	-6.3677216	-16.701859	-3.132553
1493789594336	-1.2996826	-13.449738	1.0284271
1493789594336	0.61935425	-7.7998657	7.972702
1493789594336	-1.8968506	-7.628952	7.756653
1493789594336	-2.3561554	-9.465286	7.275528
1493789594336	0.36187744	-10.337738	8.965805
1493789594336	2.5849762	-12.768311	2.7782593
1493789594336	3.6698456	-14.188904	-1.2526855
1493789594336	4.5107727	-12.774689	0.1486969
1493789594336	5.044571	-11.26442	0.7604065
1493789594336	1.9350891	-9.161041	1.0847168
1493789594336	-0.48399353	-7.3644104	-0.9055176
1493789594336	-0.7723999	-7.3056793	-1.7512207
1493789594336	0.7864075	-9.291687	-2.5390167
1493789594336	-0.16212463	-9.963425	-1.97435
1493789594336	-0.58335876	-8.008118	-0.37121582
1493789594336	0.042755127	-7.307312	-1.2593689
1493789594337	1.2697906	-7.538803	0.73143005
1493789594337	2.1145935	-8.426147	1.2425995
1493789594337	1.7412415	-8.829468	0.59588623
1493789594337	1.2168427	-9.048752	-0.8985596
1493789594337	0.99983215	-10.101425	-0.14776611
1493789594337	0.5409851	-11.285202	0.28318787
1493789594337	1.2868042	-12.417221	-0.53178406
1493789594337	3.5065002	-13.494003	-0.926651
1493789594337	4.794876	-13.205383	-1.1788025
1493789594337	4.963791	-13.051712	-0.6903076
1493789594337	3.8057709	-13.502975	-2.6058502
1493789594337	5.2286377	-14.642883	-1.8618469
1493789594337	4.405258	-14.2078705	-2.8103333
1493789594337	2.1284332	-13.008362	-2.9035492
1493789594337	-0.84007263	-10.863327	-1.978363
1493789594337	-2.3620148	-11.146118	1.5010071
1493789594337	-3.102066	-14.7561035	4.8476715
1493789594337	-6.3238373	-17.467636	3.292984
1493789594337	-7.317871	-17.71457	-0.5501709
1493789594337	-4.870041	-15.169815	-0.93284607
1493789594337	-2.981598	-13.429993	0.24153137
1493789594337	0.25630188	-12.98114	-0.5146637
1493789594337	5.1092377	-11.076828	-0.9664917
1493789594337	4.185959	-8.590118	1.3180084
1493789594338	2.6444244	-5.4796295	3.373886
1493789594338	0.54507446	-3.6499786	4.536133
1493789594338	-0.79782104	-2.640335	4.6794586
1493789594338	-1.2627716	-1.6296539	5.050125
1493789594338	-1.6452026	-1.2135925	4.667404
1493789594338	-1.941864	-1.4451599	3.1479492
1493789594338	-2.1414185	-2.085022	1.213562
1493789594338	-2.292801	-3.2619019	-0.34669495
1493789594338	-3.2522125	-6.792282	-4.4655457
1493789594338	-6.0754547	-13.19548	-10.488159
1493789594338	-7.6094055	-17.951096	-13.237854
1493789594338	-6.030411	-16.328522	-10.903015
1493789594338	-4.0910034	-11.800446	-6.272888
1493789594338	-5.5010986	-8.817398	-6.0923004
1493789594338	-8.815201	-10.012894	-9.153183
1493789594338	-7.1805267	-16.60231	-8.817413
1493789594338	-1.3736725	-14.676758	-0.98635864
1493789594338	2.6154938	-5.6996765	8.230301
1493789594338	-1.8936462	-3.5955048	8.153763
1493789594338	-3.6061096	-6.4515686	6.182373
1493789594338	-1.2311096	-10.17868	7.767639
1493789594338	2.1344604	-13.803024	4.7356873
1493789594338	4.15744	-16.480911	-1.2472992
1493789594338	4.023117	-14.349243	-0.69155884
1493789594338	3.7849426	-11.494553	1.1438904
1493789594338	1.3413086	-10.045731	0.8264618
1493789594338	-0.5370636	-8.275253	-0.040740967
1493789594339	-0.87228394	-7.603821	-0.21234131
1493789594339	0.66397095	-9.22113	-2.6145477
1493789594339	1.932373	-9.504684	-0.17591858
1493789594339	-1.5417633	-8.595749	-0.70970154
1493789594339	-1.0762177	-6.897049	0.46472168
1493789594339	0.1048584	-6.762024	0.20162964
1493789594339	1.4658813	-8.067688	0.6753235
1493789594339	1.2332764	-9.351624	-0.023803711
1493789594339	0.63705444	-10.105438	-0.9493103
1493789594339	1.3389282	-11.326782	-0.37226868
1493789594339	1.9575958	-11.067993	-0.37757874
1493789594339	1.4910583	-11.629013	-1.6170502
1493789594339	2.3830872	-11.69458	-0.72984314
1493789594339	3.8341827	-12.579208	-0.3965454
1493789594339	2.9841309	-12.30957	-1.1023254
1493789594339	4.1455383	-12.524017	-2.2779236
1493789594339	5.4472504	-13.778641	-1.4867706
1493789594339	4.8411407	-13.874268	-2.9386597
1493789594339	1.6843872	-12.970978	-3.6171112
1493789594339	-2.3330688	-10.805283	-2.3510895
1493789594339	-2.293869	-10.970474	2.7906342
1493789594339	-3.2889252	-15.56221	4.869217
1493789594339	-5.894684	-19.275711	3.3886719
1493789594339	-6.79541	-18.315842	-0.2331543
1493789594339	-5.060669	-14.451141	-1.1073761
1493789594339	-4.1669464	-13.167145	-0.29930115
1493789594339	-1.2602234	-12.990082	0.7006073
1493789594339	3.5606842	-11.795486	0.4041443
1493789594340	4.504776	-10.116394	-0.25997925
1493789594340	3.2584229	-7.0479126	2.0399323
1493789594340	1.1012878	-4.9939117	3.9548645
1493789594340	-0.020050049	-2.6034546	4.842331
1493789594340	-1.3079681	-1.3706665	4.7548065
1493789594340	-1.9356995	-0.8002777	5.0993805
1493789594340	-2.2369232	-0.8345642	4.419861
1493789594340	-2.2574005	-1.727478	2.5590973
1493789594340	-2.144043	-3.2679596	0.9443817
1493789594340	-2.3683624	-5.9169617	-1.6396637
1493789594340	-3.7011566	-11.4904785	-7.617523
1493789594340	-5.601593	-16.596344	-11.977615
1493789594340	-6.2710724	-15.857742	-12.007004
1493789594340	-5.0669556	-12.29808	-9.479172
1493789594340	-2.7986603	-10.612915	-6.704132
1493789594340	-3.17659	-9.3042755	-7.13179
1493789594340	-6.062622	-8.211609	-8.196213
1493789594340	-8.609192	-14.061508	-6.244873
1493789594340	-4.757004	-16.112808	-0.52156067
1493789594340	0.06639099	-9.9339905	4.168091
1493789594340	-0.076553345	-5.535202	7.377243
1493789594340	-2.5671997	-6.4330597	5.2180176
1493789594340	-0.48298645	-9.068298	6.147522
1493789594340	2.5009003	-11.148834	7.0114136
1493789594340	4.360855	-14.431061	0.88394165
1493789594340	4.3077393	-13.981247	-1.8414307
1493789594340	2.9599304	-11.082626	0.40196228
1493789594341	1.3937225	-9.5998535	1.7321014
1493789594341	-1.2518158	-8.491974	0.46128845
1493789594341	-1.5638275	-7.847122	-0.38807678
1493789594341	-0.5617676	-8.548523	-0.30775452
1493789594341	1.3027649	-9.55986	-1.3824921
1493789594341	0.9916687	-10.050644	-2.0111542
1493789594341	-0.27233887	-8.791168	-0.6129303
1493789594341	0.94992065	-7.1903534	1.358963
1493789594341	1.6557465	-7.532196	1.5132751
1493789594341	1.4651031	-7.8278503	0.9310913
1493789594341	0.9884949	-8.658539	-1.1678619
1493789594341	1.6137238	-10.712387	-1.7830353
1493789594341	1.6318054	-11.434326	-0.7590332
1493789594341	1.5853577	-11.324524	0.0011444092
1493789594341	0.22419739	-11.115341	-0.7519684
1493789594341	3.8419495	-11.866196	0.19554138
1493789594341	3.9358826	-12.541336	0.2935028
1493789594341	1.4762268	-12.414047	-0.15867615
1493789594341	1.6668854	-12.894501	-1.4702606
1493789594341	3.7655945	-13.372681	-2.3020325
1493789594341	4.1574097	-13.679352	-2.6171112
1493789594341	4.6636505	-13.216797	-2.9866333
1493789594341	1.7219543	-11.931183	-1.4105072
1493789594341	-2.0453186	-10.91301	-0.7049408
1493789594341	-2.430954	-11.9470215	3.3729553
1493789594341	-3.8367615	-15.14238	4.073944
1493789594341	-6.275772	-17.992432	1.8533783
1493789594342	-6.1937866	-17.486694	-0.5510864
1493789594342	-4.2315674	-14.325653	-0.9556885
1493789594342	-1.7174072	-12.586655	0.44172668
1493789594342	1.5522919	-12.873322	-0.28700256
1493789594342	4.3305817	-11.785034	-2.2704468
1493789594342	4.758911	-9.004105	0.8561554
1493789594342	2.2151794	-6.2531586	2.7482758
1493789594342	-0.31173706	-3.5633698	4.1709747
1493789594342	-1.2338562	-2.1007996	4.742386
1493789594342	-1.6394348	-1.1057587	5.2167664
1493789594342	-2.2861328	-0.7156677	4.9437714
1493789594353	-2.4862823	-1.304657	3.167038
1493789594373	-2.2910156	-2.420395	0.9204407
1493789594392	-2.2289276	-3.9945984	-1.2619629
1493789594412	-2.9371185	-7.8756256	-5.831543
1493789594432	-4.498703	-13.507996	-9.86142
1493789594453	-5.500458	-17.067642	-12.293732
1493789594472	-5.4282074	-14.601105	-10.954468
1493789594492	-3.6825867	-11.429337	-7.5086365
1493789594511	-3.255066	-9.928604	-6.2249756
1493789594532	-6.09964	-8.634064	-7.464447
1493789594551	-8.67981	-11.663483	-7.843094
1493789609301	-7.407913	-15.767563	-3.5329437
1493789609302	-3.075119	-11.692978	1.5924225
1493789609302	0.45004272	-5.510376	6.447464
1493789609302	-1.4085083	-5.360489	6.653473
1493789609302	-1.3088684	-7.807785	6.633072
1493789609302	0.47303772	-10.799545	6.8807373
1493789609302	3.6458435	-13.050751	3.6811218
1493789609302	5.154007	-15.2113495	-0.604187
1493789609302	3.4400787	-13.155502	-0.5442505
1493789609302	1.4525299	-10.646164	0.698822
1493789609302	-0.87301636	-9.036011	0.7203522
1493789609302	-1.602066	-8.265869	-0.28303528
1493789609302	-0.42106628	-8.396942	-0.28323364
1493789609302	0.19206238	-9.20459	-0.80685425
1493789609302	1.6044922	-8.999542	-1.6061554
1493789609302	-0.32562256	-8.185425	-2.3146667
1493789609302	0.053268433	-7.1776276	0.6838379
1493789609302	0.88549805	-7.1154327	0.3880005
1493789609302	1.031311	-7.709656	-0.018112183
1493789609302	0.89630127	-9.845108	-0.16914368
1493789609302	0.8686218	-10.769562	-0.12791443
1493789609302	0.6709442	-10.465836	-0.65538025
1493789609302	1.1091461	-10.385925	0.14888
1493789609302	0.4051056	-11.579681	-0.54629517
1493789609302	1.3081512	-13.399551	-1.6230927
1493789609303	4.073929	-12.425568	-0.19104004
1493789609303	3.9385986	-12.291016	-0.7564392
1493789609303	4.0771027	-12.705154	-2.1501007
1493789609303	5.714859	-13.505737	-2.5614777
1493789609303	6.1392975	-13.987289	-2.3786469
1493789609303	4.2863007	-12.872803	-2.3233032
1493789609303	-2.4564667	-11.752823	-2.4669647
1493789609303	-3.0705566	-12.193054	-0.50665283
1493789609303	-3.4294739	-13.986069	3.7387543
1493789609303	-4.9722595	-16.567673	4.3979034
1493789609303	-7.0168	-17.936722	1.9649963
1493789609303	-5.891098	-16.771042	-0.45907593
1493789609303	-2.940445	-13.599869	-0.37550354
1493789609303	0.04421997	-12.692993	0.84510803
1493789609303	3.9467773	-12.323288	0.24440002
1493789609303	3.7527466	-10.648529	-0.65834045
1493789609303	2.8315582	-7.1462097	2.1515503
1493789609303	1.2226715	-4.8888855	4.6426544
