accelerometer_timestamp	accelerometer_x_data	accelerometer_y_data	accelerometer_z_data
1493782564099	-0.69621277	6.813843	6.8685455
1493782564118	-0.55989075	6.794937	7.141693
1493782564138	-0.6722717	6.702957	6.822891
1493782564160	-0.5682678	6.7754974	6.8546906
1493782564178	-0.4507904	6.8158417	6.8734283
1493782564197	-0.5681305	6.692322	6.761017
1493782564217	-0.7388153	6.6031036	6.8793335
1493782564236	-0.66334534	6.63855	7.0483856
1493782564256	-0.7014313	6.615097	6.9987946
1493782564276	-0.83654785	6.616852	7.0355988
1493782564296	-0.6939392	6.685089	7.123642
1493782564316	-0.5441742	6.7176056	7.047943
1493782564335	-0.65582275	6.6711884	7.007843
1493782564356	-0.62390137	6.706665	6.9631195
1493782564375	-0.3746643	6.807266	7.156021
1493782564395	-0.4610901	6.737961	7.288666
1493782564414	-0.61528015	6.67572	7.1363373
1493782564434	-0.4192505	6.76947	6.9372864
1493782564454	-0.42959595	6.7697296	6.8144226
1493782564474	-0.5151367	6.7362823	6.6236115
1493782564494	-0.4615326	6.7164764	6.543564
1493782564513	-0.43026733	6.628937	6.9291077
1493782564533	-0.22529602	6.5675964	7.312973
1493782564553	0.15608215	6.611679	7.0589905
1493782564573	-0.1924591	6.5101624	6.675934
1493782564592	-0.5280762	6.3478394	6.4201202
1493782564612	-0.5043335	6.322235	6.415573
1493782564632	-0.033813477	6.335449	6.5037537
1493782564652	0.1640625	6.388077	6.6696014
1493782564672	0.21850586	6.275528	6.6151276
1493782564691	0.17745972	6.0743866	6.2620087
1493782564711	0.39335632	5.995346	6.0800476
1493782564731	0.66181946	6.0153656	6.2506256
1493782564751	0.82133484	5.877121	6.148636
1493782564771	0.99531555	5.8486786	6.1700745
1493782564790	0.9397583	5.8453217	6.925812
1493782564810	0.7435913	5.867981	7.9789124
1493782564830	0.63542175	5.8666534	8.944321
1493782564850	0.1361084	5.696274	8.787842
1493782564890	0.20565796	5.7082367	8.316025
1493782564909	0.500412	5.800659	8.551712
1493782564929	0.6436615	5.8773346	8.417358
1493782564948	0.10110474	5.5218506	8.301804
1493782564968	1.164444	5.974716	8.093445
1493782564988	1.4108734	5.807022	8.156052
1493782565008	0.74879456	5.3099213	7.580368
1493782565027	0.35014343	4.8402405	7.1091614
1493782565047	0.60824585	4.6890106	6.812729
1493782565067	1.0704803	4.3356934	6.4124146
1493782565087	1.3081207	4.202652	6.560684
1493782565107	1.4679718	4.078415	6.4969635
1493782565127	1.0141602	3.322647	6.1899414
1493782565146	0.46806335	2.090744	5.362549
1493782565166	0.4590454	1.1855469	4.2951202
1493782565186	2.413559	1.5690918	4.962738
1493782565206	3.2640839	1.1004486	4.2807617
1493782565225	2.8174744	0.43008423	3.3523407
1493782565245	3.5557098	-0.9755707	3.965866
1493782565265	3.6583405	-2.6350708	4.9798126
1493782565285	3.6234589	-3.4690552	5.293915
1493782565304	5.289337	-3.79393	5.2064514
1493782565324	7.8775177	-3.756607	4.925537
1493782565344	8.224228	-3.7624054	5.0695496
1493782565364	8.944366	-3.7031555	6.998413
1493782565384	10.911743	-3.430664	7.3147736
1493782565403	12.54248	-3.3035583	5.404251
1493782565423	14.484833	-2.9625702	4.1345215
1493782565443	16.871933	-2.0789642	4.627121
1493782565463	18.603394	-1.065445	5.338745
1493782565482	19.266235	-0.52482605	4.6147156
1493782565502	18.769394	-0.47224426	2.603653
1493782565522	18.781403	0.36221313	0.1481781
1493782565542	18.74936	2.0147247	-1.4009552
1493782565562	14.891449	-0.77734375	-2.20932
1493782565582	13.480484	-1.1694794	-1.1272278
1493782565601	12.9396515	-2.039444	-0.3840332
1493782565621	11.938263	-2.5369568	-1.2851868
1493782565641	10.97406	-3.2864532	-1.447876
1493782565661	10.84903	-2.808426	-0.47691345
1493782565681	9.96521	-3.3592987	0.8376007
1493782565700	8.713165	-3.9577637	1.8266296
1493782565720	8.364075	-3.9852295	2.853241
1493782565740	8.542618	-3.7263641	2.8799286
1493782565759	8.377975	-3.7476501	2.0596619
1493782565779	8.786011	-3.5450134	1.6559448
1493782565799	8.568832	-3.3766937	0.8934021
1493782565819	7.4306183	-3.4004517	1.7185822
1493782565839	7.2965546	-3.1538544	1.3215027
1493782565858	5.605942	-2.925766	0.006286621
1493782565878	6.687866	-2.7403107	-1.4434052
1493782565898	6.519928	-2.4262848	-1.5088043
1493782565918	7.1060944	-2.4327087	-2.1069183
1493782565937	7.7717743	-3.6121979	0.2411499
1493782565957	8.250305	-3.3491516	-0.42199707
1493782565997	8.3526	-4.372238	-0.09358215
1493782566016	10.1026	-4.2534637	0.15234375
1493782566036	11.441177	-3.9891815	0.55397034
1493782566056	9.372894	-5.161972	-0.77545166
1493782566076	6.768158	-6.401062	-0.21609497
1493782566096	5.474823	-7.0156097	1.2378998
1493782566116	5.9766846	-6.4869843	-0.09963989
1493782566135	6.2751465	-6.3672333	-1.4097748
1493782566155	9.170944	-5.984268	0.21710205
1493782566175	5.012665	-6.749069	-1.8526611
1493782566195	1.2501526	-7.7626495	-2.5217285
1493782566214	4.7862854	-7.99971	0.07128906
1493782566234	9.266785	-7.972824	0.25325012
1493782566254	14.914154	-9.104263	-0.20574951
1493782566274	14.568695	-7.2866364	1.4263306
1493782566293	10.039719	-11.283768	-1.5714569
1493782566313	3.3024445	-8.744812	0.25727844
1493782566333	4.198471	-9.664337	-0.013290405
1493782566353	5.8685455	-10.632507	-0.42919922
1493782566373	4.0273895	-10.565445	0.1222229
1493782566392	1.8826752	-10.4591675	0.45265198
1493782566412	-1.2965088	-10.334351	0.2915802
1493782566432	-2.3405457	-8.676529	0.045547485
1493782566452	-1.2716675	-6.598633	2.5052338
1493782566471	5.1042023	-3.4018402	1.9555511
1493782566491	15.043808	-1.1024017	0.8063965
1493782566511	14.74057	-5.6527557	1.3053589
1493782566531	6.2802887	-11.906494	-4.1060333
1493782566551	4.7576447	-12.129059	-2.9721375
1493782566570	7.7260437	-10.468857	3.7518768
1493782566590	0.26600647	-11.9145355	3.8669891
1493782566611	6.968567	-9.976807	2.3029175
1493782566630	14.627884	-7.8254395	0.1349945
1493782566650	6.5657196	-8.583771	-2.606964
1493782566669	0.73194885	-8.468597	-1.6566315
1493782566690	1.1053162	-7.6192017	-1.8759155
1493782566709	2.178711	-6.969269	-2.2722015
1493782566729	2.2782135	-7.084732	-0.21607971
1493782566749	2.428894	-8.212128	0.9606018
1493782566768	3.6664429	-9.616745	0.69407654
1493782566788	3.9500427	-9.814377	-0.15112305
1493782566808	2.8801727	-7.546768	-1.3192902
1493782566828	4.003891	-7.2473297	1.7800903
1493782566847	1.5025635	-8.071823	2.3999634
1493782566867	5.6755676	-9.878967	3.1715546
1493782566887	4.4695435	-10.324997	2.2150574
1493782566907	4.491562	-9.162842	2.4052734
1493782566926	0.8552704	-10.726944	2.0529633
1493782566946	0.050582886	-10.009323	2.126419
1493782566966	-0.39601135	-9.318756	1.1925659
1493782566986	10.144211	-3.212265	3.46875
1493782567006	13.328598	-5.884201	5.2871857
1493782567025	10.921585	-9.369843	1.8493958
1493782567045	4.9170685	-9.2812805	-0.8365631
1493782567065	3.1418152	-6.9635925	-0.30392456
1493782567105	3.1947784	-4.4422607	-0.58462524
1493782567124	4.0909576	-3.5575562	-0.34942627
1493782567144	3.181076	-4.677475	2.5827942
1493782567164	-2.9473877	-12.011963	7.920471
1493782567184	5.3637695	-11.964996	2.098587
1493782567203	4.049469	-14.59346	0.92866516
1493782567223	5.5719757	-11.504669	-0.23324585
1493782567243	5.2982025	-8.391739	0.69522095
1493782567263	0.14996338	-15.932251	1.7493439
1493782567282	6.6145935	-9.431595	-0.3922119
1493782567302	3.0195007	-9.803192	-0.3325653
1493782567323	4.0802917	-7.650482	-0.19569397
1493782567343	3.0665894	-8.478989	2.5195007
1493782567362	1.4833527	-9.457001	0.43563843
1493782567382	2.6776428	-9.145706	0.05091858
1493782567402	3.3070068	-8.557877	0.9296875
1493782567422	3.9127808	-6.9900055	-0.8289795
1493782567441	3.4021149	-9.320557	1.8734741
1493782567461	3.5978088	-8.988495	-0.44537354
1493782567481	3.9944916	-7.874466	-1.8147736
1493782567501	3.4157562	-5.0924377	-1.2226563
1493782567520	3.2438202	-1.9068451	-5.761963
1493782567540	5.5908813	-1.5139465	-8.630951
1493782567560	7.0621033	-2.7355804	-1.3418579
1493782567580	-0.48156738	-10.111557	8.295486
1493782567600	-3.6126251	-18.122604	9.075043
1493782567619	0.2976532	-13.514481	-1.8599854
1493782567638	4.6461945	-9.184784	-2.5200348
1493782567659	6.9546356	-14.027588	1.6365356
1493782567680	5.648163	-18.708084	2.8932648
1493782567698	-0.9263916	-18.84111	1.1705475
1493782567718	-3.6508179	-16.707687	3.4384155
1493782567738	-0.27853394	-11.617584	2.7785797
1493782567758	1.8700104	-9.881668	0.20141602
1493782567778	1.1373749	-10.588287	-1.2646942
1493782567798	-0.428833	-11.350372	-0.43733215
1493782567817	-1.3219757	-11.2278595	0.51312256
1493782567837	-1.3065033	-10.345062	-0.056640625
1493782567857	-0.5142212	-9.192413	-0.17562866
1493782567876	0.49435425	-7.762024	0.2258606
1493782567896	1.4659882	-7.2846375	0.9981079
1493782567916	0.8923645	-9.813843	0.63023376
1493782567936	-0.13998413	-6.994919	-0.74746704
1493782567956	-1.7166138	-6.9630585	0.38613892
1493782567975	-1.4034576	-6.1101685	0.52563477
1493782567995	-1.2420654	-5.674103	-0.10144043
1493782568015	-1.0384216	-5.9670563	-2.0446167
1493782568035	-0.6555939	-6.793701	-3.0265656
1493782568055	-0.7058258	-7.8706055	-3.9282684
1493782568074	-0.99253845	-9.356903	-5.4673615
1493782568094	-0.67710876	-10.698624	-7.343231
1493782568114	0.10391235	-11.981934	-9.2061
1493782568134	1.2173767	-12.18306	-7.7397156
1493782568153	-0.11051941	-10.130676	-6.1737213
1493782568173	-1.6997528	-7.2789764	-5.3468475
1493782568213	-4.7465515	-8.248856	-0.95977783
1493782568232	-7.596405	-12.382706	1.0668488
1493782568252	-6.6848755	-14.652283	3.473877
1493782568272	1.2235413	-11.238342	-0.052978516
1493782568292	3.7655945	-8.454819	4.422928
1493782568312	-1.0093231	-8.970856	5.196991
1493782568331	-0.36209106	-8.219177	3.6624756
1493782568351	1.7320709	-10.009293	2.2699432
1493782568371	3.5505219	-11.763184	1.3291626
1493782568391	5.056793	-12.954681	1.5853424
1493782568411	4.093109	-11.399887	1.3128052
1493782568430	0.6428833	-9.711029	-0.3483734
1493782568450	-1.1535645	-8.14653	-1.967041
1493782568470	-2.0685425	-7.684952	-1.7287903
1493782568490	-0.9685669	-7.8505554	-0.16915894
1493782568509	0.365036	-8.378662	0.863678
1493782568529	1.3836212	-8.923828	0.14781189
1493782568549	1.9308014	-8.887253	0.60769653
1493782568569	1.3865662	-8.735016	0.9576111
1493782568589	0.65849304	-8.946503	1.1531982
1493782568610	0.12832642	-9.501099	1.4057465
1493782568628	-0.056488037	-9.5034485	1.312973
1493782568647	0.52012634	-9.130096	1.2823486
1493782568668	0.1333313	-9.539886	0.74980164
1493782568688	0.108428955	-10.997101	0.248703
1493782568707	1.6308594	-12.694046	0.4657898
1493782568727	2.8572693	-13.893158	0.6426239
1493782568746	1.9122314	-13.7790985	0.18371582
1493782568767	0.3617859	-12.973053	-1.1535645
1493782568786	1.0543365	-12.862976	-2.0250702
1493782568806	2.7259216	-13.326126	-2.5421295
1493782568826	4.049103	-12.547073	-3.2339172
1493782568846	4.219986	-12.19574	-1.8999786
1493782568866	2.8385468	-10.256866	-1.1216431
1493782568885	0.38859558	-9.018463	0.14840698
1493782568905	-2.5320587	-12.35025	2.1697693
1493782568926	-5.3847504	-16.757355	3.6095734
1493782568945	-6.3827667	-17.892212	2.6325684
1493782568965	-5.396408	-15.785767	0.21705627
1493782568985	-4.0055084	-12.8910675	-0.99742126
1493782569003	-1.2315063	-10.841461	1.429184
1493782569024	1.125534	-10.554901	0.73669434
1493782569044	2.2645874	-10.306351	-0.6626587
1493782569064	2.8395844	-9.142731	0.7212372
1493782569084	1.5574646	-7.147995	1.6824341
1493782569103	-0.6022186	-5.011078	2.558319
1493782569123	-1.4454803	-3.5541687	3.5273895
1493782569143	-1.492279	-3.3933868	3.8320618
1493782569163	-1.8377838	-2.8154297	3.7992554
1493782569183	-2.1580048	-2.939743	3.315628
1493782569202	-2.1951752	-3.4803467	0.86364746
1493782569222	-2.7015228	-4.543808	-2.4304657
1493782569242	-2.7091217	-6.9044495	-7.9467926
1493782569262	-2.9390717	-11.023758	-7.9576416
1493782569281	-0.9135437	-13.803192	-11.900803
1493782569301	-2.9845276	-14.531769	-12.791122
1493782569341	-2.0647278	-12.35878	-10.0980835
1493782569361	-0.032669067	-10.831879	-6.716385
1493782569380	-3.1902924	-6.94281	-6.4119263
1493782569400	-7.1411896	-5.074127	-6.6912537
1493782569420	-8.658722	-10.540482	-5.2519226
1493782569440	-8.155777	-16.80072	-4.2955627
1493782569460	-1.961853	-14.036545	0.23327637
1493782569479	2.316681	-7.8482513	3.3547516
1493782569499	0.50401306	-6.1619263	8.1015625
1493782569525	-1.7032013	-7.4932404	5.53685
1493782569545	-0.68141174	-9.238647	5.050644
1493782569564	0.42773438	-11.265686	2.8308563
1493782569580	2.0144958	-13.741394	1.791214
1493782569598	3.4091034	-14.187195	0.405365
1493782569620	4.5295563	-12.072433	-0.6542969
1493782569641	3.4211578	-9.926468	-0.6600342
1493782569660	1.5171967	-7.977234	-0.59324646
1493782569679	0.20411682	-7.33992	-0.8213043
1493782569703	0.082717896	-7.961914	-1.4869537
1493782569723	-0.3652954	-9.061279	-1.096756
1493782569743	-0.11351013	-9.274261	-0.016418457
1493782569763	-0.3634491	-8.518921	0.6771393
1493782569781	-0.75849915	-7.920929	1.0454865
1493782569802	-1.4302979	-7.8318176	0.7663574
1493782569823	-1.6035919	-8.571518	-0.12632751
1493782569842	0.025817871	-9.910614	-0.44485474
1493782569861	2.1945953	-10.738373	-0.32598877
1493782569882	2.2759705	-11.350372	-0.5148163
1493782569901	1.349762	-12.203369	-1.3375244
1493782569918	2.4978943	-12.661896	-0.7770233
1493782569940	3.9934235	-12.495926	-0.44709778
1493782569961	3.876358	-12.1766815	-1.9122925
1493782569981	4.022461	-12.429871	-3.1179047
1493782570000	5.6480865	-13.190277	-2.6702118
1493782570018	7.202194	-12.183517	-2.310257
1493782570040	4.6769104	-11.372635	-2.2537537
1493782570059	0.044769287	-10.873978	-1.9567261
1493782570081	-2.8743134	-12.108765	0.6525421
1493782570104	-4.0645905	-15.428848	3.6301422
1493782570113	-5.496933	-18.699005	4.5902863
1493782570135	-5.514023	-18.891495	2.2665405
1493782570154	-5.04805	-16.16893	-0.270813
1493782570174	-4.20726	-14.135956	-0.9037323
1493782570193	-1.6560059	-13.019974	2.2265015
1493782570214	1.6444855	-12.333221	-0.6935425
1493782570238	3.3631897	-11.18869	-1.6552124
1493782570257	2.8889618	-9.145401	0.8560333
1493782570277	1.261673	-6.6840515	2.9013672
1493782570297	-0.64727783	-3.6320496	4.65773
1493782570316	-2.4044647	-1.0919495	5.314041
1493782570337	-3.0216522	-0.023773193	5.135132
1493782570356	-3.1126099	0.1917572	4.012314
1493782570376	-1.9835968	-0.22297668	2.5611115
1493782570396	-1.1044617	-1.338974	0.70147705
1493782570413	-0.77612305	-3.6416168	-1.553009
1493782570435	-1.4851227	-8.68689	-8.381363
1493782570455	-3.8912964	-16.194809	-9.384552
1493782570494	-5.2841187	-19.378632	-14.890167
1493782570513	-3.4759827	-16.088638	-10.536331
1493782570534	-0.67430115	-10.693893	-6.222397
1493782570554	-1.0405273	-6.56662	-6.7095184
1493782570574	-3.6697235	-3.035324	-7.797928
1493782570592	-6.65567	-6.4682007	-7.111023
1493782570623	-9.212158	-16.026016	-4.7685394
1493782570632	-4.8421783	-18.70897	-1.3352966
1493782570650	2.1511078	-13.371658	1.6310272
1493782570669	1.7410736	-5.667053	9.024994
1493782570688	-1.6698914	-5.012192	7.3108063
1493782570708	-1.0391388	-7.8831177	7.3539124
1493782570730	0.19242859	-11.326965	6.2857666
1493782570750	1.9412079	-13.67189	1.4757233
1493782570770	2.9155731	-14.513504	-0.72114563
1493782570789	3.414215	-11.918198	0.40507507
1493782570808	2.618866	-10.149918	0.79556274
1493782570830	0.13531494	-7.9300537	-0.48094177
1493782570851	-0.7974701	-7.045746	-0.97436523
1493782570871	-1.0896606	-8.199066	-1.1875
1493782570891	-0.38708496	-9.496979	-0.84280396
1493782570908	0.108566284	-9.4028015	-0.3179779
1493782570927	0.5858002	-8.236603	0.6586609
1493782570951	1.2669678	-7.8890533	0.5931549
1493782570967	1.5056915	-8.416595	0.20196533
1493782570989	1.373703	-9.179916	-0.41957092
1493782571008	1.548172	-9.556	-0.918808
1493782571026	1.3104706	-10.076477	-0.30734253
1493782571047	0.05406189	-11.099442	-0.36531067
1493782571067	0.14085388	-12.2391815	-1.1954651
1493782571088	2.9369965	-12.942657	-0.070617676
1493782571104	4.828293	-12.96283	0.6838684
1493782571124	3.1699677	-12.49678	-0.98794556
1493782571145	1.6148987	-12.100586	-2.7691956
1493782571163	2.2260437	-12.466492	-2.784317
1493782571183	3.5499878	-12.970108	-3.8110504
1493782571202	5.2479706	-12.436844	-3.3520813
1493782571224	3.8866272	-11.655914	-1.9568024
1493782571244	0.45599365	-11.567017	-0.21640015
1493782571263	-3.0282135	-13.620789	3.1638947
1493782571284	-6.4556274	-17.20819	4.7036896
1493782571303	-7.806473	-19.02655	3.1090088
1493782571322	-6.361313	-17.007233	-0.7450409
1493782571346	-4.844513	-14.612076	-1.5204468
1493782571365	0.32981873	-11.90538	1.9608765
1493782571385	4.4882813	-11.26062	0.1789856
1493782571404	5.0432434	-10.489349	-0.67289734
1493782571423	4.599457	-8.314453	1.3522644
1493782571444	1.7945557	-5.800476	3.0894165
1493782571463	-0.91947937	-3.2138824	4.4209137
1493782571483	-2.7926636	-2.2251892	5.102371
1493782571503	-2.7440643	-1.3646545	5.047714
1493782571523	-3.3095245	-1.1607513	4.520401
1493782571543	-2.9040985	-1.3301544	2.8826141
1493782571562	-2.3332825	-2.468933	0.1277008
1493782571605	-1.7070923	-4.7610474	-3.751068
1493782571626	-1.5126648	-8.915436	-9.95697
1493782571637	-2.9625244	-13.616531	-6.4557953
1493782571658	-3.3624268	-16.644058	-13.37587
1493782571677	-3.35141	-15.430206	-11.782715
1493782571697	-1.7887421	-12.599091	-8.075394
1493782571717	-2.16716	-9.185699	-6.075058
1493782571737	-5.1661987	-5.0324554	-6.510788
1493782571758	-7.4189453	-4.853134	-6.9565887
1493782571778	-9.530411	-12.563095	-3.9269104
1493782571798	-6.8788757	-17.525452	-0.6910858
1493782571818	0.0025482178	-15.054581	1.8117371
1493782571839	3.9970398	-9.804855	5.6865845
1493782571860	2.3089294	-6.316223	7.6294403
1493782571880	0.38645935	-6.478302	5.5891113
1493782571898	0.28862	-9.253372	5.380829
1493782571918	0.80766296	-12.870132	2.2700806
1493782571937	1.900177	-14.768127	0.044006348
1493782571958	3.4533844	-12.886215	0.85762024
1493782571977	2.8674316	-10.927948	0.85762024
1493782571998	0.29000854	-8.202194	-0.8455353
1493782572017	-0.9134979	-7.134079	-1.8749237
1493782572034	-1.1087799	-7.5216217	-0.69233704
1493782572057	-0.4581604	-8.584061	0.091537476
1493782572075	0.49320984	-9.093201	0.53967285
1493782572097	0.9180145	-8.672638	0.4971466
1493782572113	1.0366669	-8.17659	-0.33270264
1493782572133	0.5892029	-8.799927	-1.5172424
1493782572156	0.7975006	-9.958801	-1.7567749
1493782572171	2.2761078	-9.831085	-0.34884644
1493782572191	2.4399414	-9.626678	0.9421692
1493782572211	0.4906311	-11.094345	0.42196655
1493782572235	-0.25427246	-12.481888	-0.7838135
1493782572254	2.253891	-11.94017	0.14753723
1493782572274	4.5731964	-11.344406	0.5314636
1493782572294	4.1270447	-11.723038	-0.5204773
1493782572314	2.9272003	-12.93811	-1.4949646
1493782572332	3.3823242	-14.48024	-2.1188202
1493782572354	5.0359344	-14.112579	-4.090576
1493782572373	2.8173828	-12.497787	-4.285782
1493782572394	-0.56987	-10.495773	-3.2668915
1493782572413	-1.7490845	-10.989471	0.9575653
1493782572433	-3.3018494	-14.581314	4.074829
1493782572453	-6.7673035	-18.670105	4.5411987
1493782572472	-6.2263336	-19.241653	0.2826233
1493782572493	-5.4210205	-15.972717	-1.7852478
1493782572512	-4.351349	-13.281479	-0.553833
1493782572533	-0.0423584	-11.469498	1.7922211
1493782572552	2.1135864	-10.533035	-0.38867188
1493782572571	3.5819855	-9.471298	-0.6644592
1493782572591	4.592041	-7.8155212	1.7772522
1493782572612	2.3160706	-6.3101196	3.6245422
1493782572633	0.22705078	-4.041092	5.4684296
1493782572667	-2.3713684	-1.9600372	5.0194244
1493782572686	-2.6862335	-1.1385651	4.915512
1493782572706	-2.7285156	-0.7736206	3.9324493
1493782572725	-2.1507416	-1.2704315	2.3675537
1493782572746	-1.5447083	-2.5278625	0.41729736
1493782572766	-1.3769836	-4.5197144	-3.2694244
1493782572785	-2.8033905	-8.8984375	-10.584885
1493782572806	-5.6378937	-14.166855	-7.8418427
1493782572825	-5.793396	-18.425674	-15.61351
1493782572845	-3.3806915	-17.178818	-11.405853
1493782572867	-1.9333191	-11.662872	-6.920395
1493782572887	-4.5412903	-6.4976196	-6.76532
1493782572906	-9.009277	-6.7489014	-8.786987
1493782572925	-9.551071	-16.737717	-7.6453705
1493782572944	-3.9589386	-16.743317	-0.54104614
1493782572964	3.1927032	-7.314972	3.9573517
1493782572985	1.2808075	-2.967331	9.208786
1493782573006	-1.6317902	-5.246567	6.4521637
1493782573025	-1.2882538	-9.504288	6.6010284
1493782573046	0.25917053	-12.8415985	4.492035
1493782573064	2.785614	-15.26767	1.6981964
1493782573081	4.786606	-15.136902	0.64115906
1493782573101	4.3101654	-12.787369	0.10240173
1493782573121	2.7631836	-9.711731	0.6302643
1493782573141	-0.19232178	-7.7232056	-0.05508423
1493782573162	-2.0402222	-7.5939484	-0.72694397
1493782573181	-1.7721558	-8.423691	-0.6335602
1493782573200	-1.0719299	-9.424271	-1.40448
1493782573220	-0.08996582	-9.412842	-0.8855438
1493782573241	0.99076843	-8.369644	0.69314575
1493782573262	1.3672028	-7.6255493	0.9221802
1493782573281	1.0141754	-7.790695	0.55029297
1493782573300	0.20982361	-8.713608	0.019165039
1493782573319	0.92863464	-9.365707	-0.6522522
1493782573341	2.54451	-9.780075	-1.3045654
1493782573362	2.344223	-10.522064	-0.9987793
1493782573379	0.7063141	-11.693436	-1.4042206
1493782573401	0.7846527	-12.414261	-1.4629211
1493782573426	3.2877197	-12.343369	0.0031433105
1493782573436	4.770981	-12.146881	0.18835449
1493782573458	2.9848633	-11.800766	-1.5121002
1493782573475	0.68800354	-11.985962	-3.4075012
1493782573495	2.448227	-13.1562195	-2.8832703
1493782573515	5.9143066	-13.055756	-2.7971954
1493782573534	5.167404	-12.035324	-1.8684235
1493782573557	0.9219208	-11.040924	-1.3837128
1493782573574	-2.7339783	-12.601303	1.7519226
1493782573594	-5.681488	-17.23642	5.175049
1493782573614	-9.060364	-19.30754	4.453186
1493782573633	-6.5838776	-18.25882	-0.25889587
1493782573653	-5.3970795	-14.991699	-2.3851166
1493782573673	-1.3660736	-12.553406	-0.15960693
1493782573700	2.902893	-11.015015	-0.8121338
1493782573714	5.5543976	-10.234634	-0.09968567
1493782573753	5.0166626	-8.967697	1.5615387
1493782573772	1.9504395	-6.904129	2.647232
1493782573792	-0.006210327	-4.2122498	4.1736298
1493782573812	-2.3061676	-2.2564697	5.1118164
1493782573831	-3.1581879	-1.249649	4.8590393
1493782573851	-2.8187256	-1.0375519	4.3482056
1493782573871	-2.807602	-1.6166687	3.2421417
1493782573890	-2.2856598	-2.5945587	1.0570984
1493782573911	-1.7353363	-4.0329437	-0.82707214
1493782573933	-1.9840088	-6.66745	-4.103119
1493782573950	-3.0861359	-11.379929	-10.916092
1493782573971	-3.6700592	-15.7074585	-9.46344
1493782573990	-3.479538	-18.286743	-14.938751
1493782574010	-2.8309479	-13.897354	-9.924454
1493782574029	-1.9263306	-9.26828	-6.1533356
1493782574049	-4.078583	-5.5407104	-5.9663544
1493782574069	-7.430603	-5.2429047	-7.101486
1493782574088	-8.778992	-13.204376	-6.811783
1493782574108	-5.313202	-17.934814	-3.0215454
1493782574128	0.56217957	-12.635986	4.2008057
1493782574149	2.0676727	-7.364624	7.8585815
1493782574168	-0.49749756	-5.828415	6.4522095
1493782574187	-1.6214905	-7.526825	5.3332825
1493782574207	-0.2892456	-10.222229	5.49498
1493782574227	1.4593048	-13.316391	3.036728
1493782574247	3.7157593	-14.577408	0.28930664
1493782574266	4.440323	-13.387039	-0.42552185
1493782574285	3.2416382	-10.712097	-0.16856384
1493782574306	0.48623657	-8.333786	-0.39041138
1493782574326	-1.7881317	-7.777405	-0.8800659
1493782574346	-1.8302155	-8.108597	-1.0589142
1493782574365	-1.1557007	-9.09787	-1.4201508
1493782574385	0.0690918	-9.74234	-1.0908203
1493782574405	1.3513641	-9.328674	-0.3096161
1493782574425	1.8975372	-8.4687805	0.07727051
1493782574445	1.8055267	-8.250473	0.08242798
1493782574465	1.1247711	-8.702637	0.37498474
1493782574488	0.17991638	-9.058868	0.38986206
1493782574509	0.31977844	-9.1697235	-0.4370575
1493782574528	1.1395111	-9.7122345	-1.1613464
1493782574545	1.1212463	-10.947952	-1.3699341
1493782574566	0.5413971	-12.353546	-1.3531189
1493782574586	1.4445343	-12.751038	-1.0220337
1493782574606	3.6349945	-12.349884	-0.46351624
1493782574629	4.6144257	-11.830338	-0.36720276
1493782574647	2.9096527	-11.9118805	-2.2210236
1493782574671	3.0767365	-13.373123	-2.1569824
1493782574685	5.180069	-12.608292	-2.2668
1493782574704	4.8262024	-12.507019	-2.8620148
1493782574729	0.5430298	-11.047058	-2.6158905
1493782574749	-2.9680176	-11.417786	-0.784729
1493782574764	-5.0969086	-14.944412	3.306244
1493782574788	-7.308014	-19.000076	4.862015
1493782574812	-6.9572296	-18.00766	1.7376862
1493782574820	-4.9064484	-14.724213	-1.8473663
1493782574839	-3.2756653	-12.605072	-1.8749695
1493782574880	1.9494781	-10.598282	1.9801941
1493782574900	4.9188385	-10.140106	-6.4086914E-4
1493782574919	5.9206085	-9.574692	0.27146912
1493782574939	3.902298	-8.138351	1.6685028
1493782574959	0.7800751	-5.959152	3.5188904
1493782574979	-2.126236	-4.66951	4.4223022
1493782575001	-3.4962616	-2.879013	4.4910736
1493782575018	-3.304062	-2.166092	4.2591705
1493782575038	-2.9793243	-2.2036438	3.3582916
1493782575058	-2.4347076	-2.8357697	2.1744995
1493782575078	-1.6971741	-3.7003174	0.23739624
1493782575097	-1.6680145	-5.162796	-2.8273163
1493782575117	-2.7810974	-7.8786774	-5.9252167
1493782575197	-4.416931	-12.040497	-8.637329
1493782575197	-3.7263184	-15.893951	-14.408508
1493782575197	-3.7583923	-17.177414	-13.8281555
1493782575197	-1.9184418	-12.718826	-8.196243
1493782575281	-1.7297668	-9.682022	-4.796234
1493782575281	-1.3628235	-11.224442	-2.797287
1493782575281	-0.99591064	-12.766769	-0.7984619
1493782575281	-0.62898254	-14.309082	1.2003479
1493782575300	0.22584534	-14.364578	3.685852
1493782575320	2.3488312	-8.256668	7.870804
1493782575340	-0.12246704	-5.7520905	8.731812
1493782575359	-1.6593018	-7.6089935	6.3517914
1493782575379	-0.19703674	-10.695587	5.660736
1493782575399	1.6419067	-14.810944	3.3415527
1493782575419	3.5362854	-15.084702	1.3142548
1493782575439	4.48526	-13.757294	-0.42749023
1493782575477	3.3612518	-10.367157	0.18511963
1493782575482	0.47206116	-8.298996	0.597229
1493782575503	-2.6627197	-7.6248016	-0.30378723
1493782575523	-3.6630096	-8.234131	-1.5336456
1493782575542	-2.166031	-9.064255	-1.0536346
1493782575562	0.10713196	-9.732101	-0.7911072
1493782575582	2.2138367	-9.755203	0.13879395
1493782575602	2.671753	-8.983963	0.39649963
1493782575622	1.6846771	-8.300751	-0.14434814
1493782575643	0.43180847	-8.545654	-0.42575073
1493782575662	-0.3382721	-9.227737	-0.3292389
1493782575682	0.1639862	-9.485382	-1.5156403
1493782575701	1.0929565	-10.000427	-1.3742371
1493782575722	0.7092743	-10.956528	-0.7398529
1493782575744	-0.20004272	-11.332825	-0.6748352
1493782575766	1.0437775	-11.335861	-0.1882019
1493782575785	3.9855804	-11.166138	1.2699127
1493782575804	4.457611	-11.137039	1.1866455
1493782575823	1.8599243	-11.378967	-1.36026
1493782575843	0.3856659	-11.571014	-2.803772
1493782575864	1.8742065	-12.319366	-2.18721
1493782575884	4.757843	-12.495529	-1.9633179
1493782575905	5.681839	-11.3980255	-1.5890045
1493782575924	2.0231934	-11.312485	-1.4601898
1493782575941	-2.1083832	-12.223999	-0.35224915
1493782575965	-4.5637665	-14.83847	2.4866028
1493782575983	-6.295807	-17.864594	4.2057953
1493782576001	-6.0539703	-17.61821	2.6899567
1493782576023	-4.2508545	-14.477386	-0.34933472
1493782576046	-1.9922485	-11.930679	-1.4817352
1493782576065	0.6018219	-10.732498	0.7711029
1493782576082	2.586609	-10.324799	1.3287964
1493782576101	3.5625305	-9.884598	0.89598083
1493782576119	3.243927	-9.006012	1.5683136
1493782576140	1.4838867	-7.6902466	2.304184
1493782576162	-0.30715942	-6.312088	3.1732178
1493782576176	-1.7995758	-5.3369904	3.6527557
1493782576195	-2.425476	-4.722458	3.5577087
1493782576215	-2.6172028	-3.9887848	2.8226929
1493782576235	-2.3353424	-3.7837372	1.7588196
1493782576255	-2.3106995	-4.6229553	0.25593567
1493782576276	-2.8234253	-6.4123535	-2.827057
1493782576295	-3.510437	-9.421646	-6.517624
1493782576331	-2.877304	-11.7534485	-6.4003296
1493782576350	-2.0282135	-13.377716	-5.427643
1493782576369	-1.9189758	-9.666626	-3.9625854
1493782576391	-2.813858	-7.1172485	-4.900757
1493782576411	-3.2084808	-6.8898773	-6.2207794
1493782576430	-3.3774872	-8.516769	-6.57135
1493782576449	-1.9141388	-9.720169	-5.7921906
1493782576473	-0.71069336	-9.019882	-4.6598053
1493782576494	-0.7607727	-6.668625	-4.4028473
1493782576513	-2.4426575	-4.578781	-3.3518066
1493782576531	-6.698639	-4.266342	-0.8194885
1493782576555	-10.523575	-13.520782	-1.4755402
1493782576572	-6.027817	-19.474823	-4.842697
1493782576591	-3.3544464	-18.103912	-1.7646027
1493782576610	3.2662048	-10.1875	2.0899963
1493782576629	6.2964325	0.3956604	2.7336273
1493782576654	6.499298	-1.0809326	3.0402527
1493782576668	1.2887115	-7.2861633	1.0749207
1493782576687	-0.67326355	-12.053879	1.2464905
1493782576708	-1.309555	-14.5529785	1.0272369
1493782576727	-1.8987122	-12.97377	-0.5022583
1493782576746	-3.387268	-9.420105	-1.5818787
1493782576768	-3.7125702	-7.222763	-1.9259338
1493782576789	-2.6923676	-7.1912384	-1.9818268
1493782576812	-1.775238	-7.980591	-2.0605927
1493782576827	-1.574997	-8.495209	-2.087326
1493782576849	-1.7924347	-8.924377	-1.9817352
1493782576864	-1.8115234	-9.421524	-1.2361908
1493782576883	-1.7212677	-10.1137085	-0.16757202
1493782576903	-1.5931854	-10.771469	0.55766296
1493782576923	-1.4694519	-11.027191	0.98023987
1493782576942	-1.1529694	-10.784683	0.74076843
1493782576963	-0.64112854	-10.119583	0.40693665
1493782576984	0.011871338	-9.410614	0.035583496
1493782577002	0.66619873	-8.970123	-0.04222107
1493782577024	1.0464325	-8.95755	2.746582E-4
1493782577044	0.8656616	-9.304855	0.34225464
1493782577061	0.07987976	-9.704147	0.58914185
1493782577083	-0.79447937	-9.656967	0.57102966
1493782577102	-1.6606445	-9.574417	0.5315399
1493782577122	-2.0894775	-9.853592	0.4325714
1493782577147	-2.0541992	-10.3160095	0.43470764
1493782577162	-1.7627411	-10.4986725	0.5418854
1493782577181	-1.2849121	-10.15036	0.5944214
1493782577200	-0.76234436	-9.780899	0.28086853
1493782577220	-0.25506592	-9.830383	0.29000854
1493782577242	0.52593994	-10.039627	0.6451874
1493782577260	1.1100769	-10.085098	1.1003418
1493782577283	1.3365784	-9.841812	1.6716766
1493782577304	0.6786041	-9.8359375	2.2099457
1493782577323	-0.15556335	-9.52858	2.4958496
1493782577341	-1.2046204	-9.510696	2.227951
1493782577363	-1.4275055	-9.796448	1.6867218
1493782577402	-1.2922974	-10.06105	1.2742462
1493782577421	-1.0657959	-10.186127	1.484436
1493782577444	-0.9959564	-10.159683	1.7373047
1493782577460	-1.0835876	-9.915985	2.0083313
1493782577481	-1.1018219	-9.828842	1.8716431
1493782577502	-0.94750977	-10.011078	1.5592346
1493782577521	-0.611557	-10.292496	1.7701263
1493782577541	-0.35266113	-10.36557	2.1367798
1493782577559	-0.30821228	-10.186981	2.3416443
1493782577581	-0.14089966	-10.282715	2.5776978
1493782577600	0.27566528	-10.285294	2.4737854
1493782577620	0.4957428	-10.261368	2.4623718
1493782577639	0.064331055	-10.169785	2.1897583
1493782577660	-0.5103607	-9.956787	1.7029266
1493782577677	-0.68270874	-9.5013275	1.3149414
1493782577697	-0.52627563	-9.181946	0.90937805
1493782577716	-0.10671997	-9.040192	0.7987671
1493782577736	0.28785706	-8.941971	1.2135162
1493782577756	0.31188965	-9.011185	1.56987
1493782577776	-0.067214966	-8.996185	1.4352112
1493782577797	-0.27409363	-8.976181	1.1632843
1493782577818	-0.3824005	-9.149948	1.269455
1493782577835	-0.72032166	-9.330917	1.4245148
1493782577856	-1.0174713	-9.420456	1.4886932
1493782577876	-0.8222351	-9.624573	1.4690094
1493782577897	-0.57199097	-9.821579	1.5992584
1493782577913	-0.3300476	-9.8441925	1.4822388
1493782577935	-0.13543701	-9.791687	1.4718475
1493782577956	-0.058685303	-9.829575	1.4036865
1493782577974	0.10491943	-9.866104	1.2058105
1493782577996	0.22433472	-9.957901	1.2661285
1493782578013	0.19799805	-10.047989	1.3879089
1493782578036	0.1458435	-9.982895	1.3196716
1493782578054	0.2513275	-9.9561615	1.1559601
1493782578075	0.39631653	-10.126068	0.7606354
1493782578098	0.44091797	-10.242569	0.27253723
1493782578113	0.611969	-10.188705	-0.3340454
1493782578132	1.121521	-10.388153	-0.9466858
1493782578157	2.149887	-11.297958	-0.7766266
1493782578168	3.124817	-12.475311	-0.14399719
1493782578189	2.7915802	-12.178635	-0.5578613
1493782578208	0.6825409	-10.939026	-1.6687775
1493782578228	-1.0031586	-10.8112335	-1.448288
1493782578248	-2.4000092	-10.723373	-1.1443787
1493782578267	-3.615982	-11.179871	-1.1423798
1493782578290	-4.627365	-12.058701	-0.03718567
1493782578309	-3.4570007	-12.461777	0.2627716
1493782578328	-1.3760529	-12.346359	0.71759033
1493782578348	0.509964	-11.700806	2.0662231
1493782578372	0.77256775	-11.617004	2.0567932
1493782578390	1.2273102	-11.206131	-1.0637512
1493782578411	-0.0740509	-10.491226	-2.110382
1493782578430	-0.2962036	-9.251526	-0.9987488
1493782578449	-0.32377625	-8.888351	0.13700867
1493782578490	-1.7217255	-8.960098	0.19911194
1493782578511	-2.5270386	-8.292511	0.10093689
1493782578528	-3.004547	-7.6946716	0.2768097
1493782578546	-3.3920593	-6.873352	0.2852173
1493782578566	-3.1425781	-6.223816	-0.37080383
1493782578588	-2.4790192	-5.694397	-0.6968384
1493782578607	-1.701355	-5.4952087	-0.6449127
1493782578629	-1.1765137	-5.5295105	-1.4353638
1493782578648	-1.0848236	-5.477112	-2.5959625
1493782578665	-0.7466278	-6.0077515	-3.7739105
1493782578685	-1.1154785	-7.612503	-6.1333466
1493782578705	-1.2404785	-9.611389	-8.234756
1493782578724	-1.0640259	-10.409653	-8.6605835
1493782578745	-1.1793365	-9.867386	-7.247635
1493782578764	-1.7261047	-8.751068	-6.0141754
1493782578788	-2.6233826	-7.529007	-5.3638
1493782578806	-3.3730927	-6.2998047	-4.4772034
1493782578824	-5.43486	-7.0605164	-3.8574219
1493782578844	-10.325302	-13.303436	-2.798996
1493782578864	-11.244049	-19.474823	-1.6056824
1493782578886	-5.7706604	-15.796936	-2.2132568
1493782578904	-0.5837097	-7.0019073	2.3697357
1493782578927	1.1484222	-2.5767365	7.9592743
1493782578944	0.5304718	-3.4244537	7.3923798
1493782578963	-0.41474915	-7.3034515	6.301239
1493782578983	0.40266418	-11.819611	5.7524414
1493782579004	2.9094849	-15.039001	2.936966
1493782579023	4.3079376	-14.577133	-1.1023102
1493782579043	2.0130615	-11.327423	-1.8338165
1493782579062	-1.0278931	-8.51799	-0.42208862
1493782579086	-2.1272888	-7.4705353	1.0728607
1493782579103	-1.8205414	-7.8375397	1.9611511
1493782579123	-0.42185974	-9.286728	2.3937683
1493782579140	1.6675262	-10.947922	2.898941
1493782579167	3.6487427	-11.659393	2.6807098
1493782579179	3.6885223	-10.751755	1.280777
1493782579197	2.832016	-9.488632	0.7681732
1493782579217	2.3627625	-9.148209	1.0232697
1493782579237	2.6290436	-9.320267	1.0139313
1493782579257	2.836441	-9.3567505	0.3460846
1493782579277	2.2827759	-9.42627	-0.78279114
1493782579298	1.8443451	-10.204346	-0.947525
1493782579317	2.1618652	-10.931793	-0.4356079
1493782579336	2.8600311	-11.3134	-0.81829834
1493782579359	3.2111511	-11.209885	-1.0892944
1493782579376	2.7102966	-11.050842	-1.7523193
1493782579397	2.057785	-11.05809	-2.1145782
1493782579416	1.2875366	-11.315689	-2.3280334
1493782579436	1.2615967	-11.325485	-4.0125732
1493782579457	2.6229553	-11.7907715	-5.023117
1493782579476	4.0816193	-13.686249	-3.575821
1493782579496	2.0531464	-12.087097	-2.5435944
1493782579515	-0.832428	-11.280762	-3.7978668
1493782579535	-1.7091522	-14.213211	-1.7033234
1493782579555	-4.689926	-19.45874	4.547043
1493782579595	-7.657135	-19.422668	5.6144104
1493782579614	-5.2269135	-15.202652	0.98825073
1493782579635	-2.6225128	-13.583328	-2.5773926
1493782579652	0.22479248	-13.329315	-3.0105743
1493782579674	3.0549316	-12.069458	-0.9568176
1493782579693	3.8787994	-10.01857	2.218399
1493782579714	1.6241608	-8.460266	2.6542053
1493782579734	-0.92375183	-5.937393	3.386917
1493782579756	-2.648117	-3.6164398	4.4647217
1493782579775	-2.4755554	-2.0184631	4.3316193
1493782579796	-2.2776642	-1.2236633	3.750824
1493782579816	-1.709549	-0.9297333	2.682724
1493782579835	-1.7043762	-1.957489	0.90252686
1493782579855	-1.8822784	-4.1250305	-1.4809875
1493782579872	-1.9962311	-6.928955	-5.171646
1493782579892	-3.580719	-9.909546	-8.5673065
1493782579913	-5.582855	-11.992279	-8.476578
1493782579932	-5.721573	-14.0933075	-11.842102
1493782579953	-4.6742706	-12.032455	-9.5238495
1493782579972	-3.367157	-8.288239	-7.17482
1493782579991	-3.5307312	-5.7878265	-6.1118164
1493782580016	-6.587433	-4.1297607	-4.0955353
1493782580034	-9.484604	-8.445435	-2.9207764
1493782580053	-6.865387	-17.188828	-4.265167
1493782580073	1.4552765	-15.1714325	1.635376
1493782580090	3.565384	-6.722824	8.262238
1493782580110	-0.99783325	-4.064972	5.341217
1493782580130	-1.395401	-7.097641	6.1253357
1493782580158	-1.3364563	-11.756271	4.755127
1493782580173	1.157547	-15.80751	1.4141693
1493782580186	3.939682	-17.019302	-0.069625854
1493782580206	4.2268677	-14.391373	0.06602478
1493782580226	2.4259796	-10.683975	0.27575684
1493782580246	0.7529602	-8.246414	-0.70706177
1493782580266	-1.3313904	-7.4990997	-1.5559387
1493782580286	-1.9762573	-7.9075317	-1.8296509
1493782580307	-1.6912842	-8.9266205	-1.4250793
1493782580325	-0.9503784	-9.622299	-0.77171326
1493782580346	-0.10623169	-8.93161	-1.2332458
1493782580365	1.0373993	-7.5981903	-0.87745667
1493782580384	1.8749237	-7.0307465	0.073287964
1493782580407	1.9304504	-6.929291	1.2492981
1493782580425	1.1207428	-7.83107	2.0771027
1493782580446	0.8662262	-9.541199	1.4981995
1493782580468	1.4396057	-10.042206	-0.53131104
1493782580483	1.1360931	-10.466415	-2.1775055
1493782580506	-0.36384583	-11.9900055	-1.4764099
1493782580523	-0.8857422	-13.220612	-0.86979675
1493782580544	1.1446533	-13.428787	-0.9993744
1493782580563	3.7717743	-13.331604	-0.93811035
1493782580583	4.841263	-12.4449005	-2.3545532
1493782580602	3.2133179	-11.8181305	-5.282135
1493782580621	3.841217	-12.357513	-6.255951
1493782580642	5.208374	-11.807053	-4.3053436
1493782580680	5.970978	-11.660538	-2.3487244
1493782580702	3.1555634	-11.880264	-0.00843811
1493782580721	-3.1878815	-14.681931	2.4932404
1493782580745	-7.941513	-19.115723	4.6135406
1493782580765	-9.839844	-19.272644	3.1672058
1493782580784	-6.0255127	-15.359253	-0.0796051
1493782580814	-1.496933	-12.984924	0.28944397
1493782580823	5.3780212	-12.429428	-3.0527496
1493782580843	7.1692047	-12.491562	-0.806839
1493782580860	3.141098	-11.985291	1.2911835
1493782580879	-1.6201172	-9.993851	2.1307983
1493782580898	-3.1720886	-6.5268555	3.4282684
1493782580918	-3.5183563	-3.6004639	3.9790497
1493782580939	-3.4498901	-1.2713623	4.173691
1493782580958	-3.7391815	-0.48472595	3.5667877
1493782580978	-3.2947235	-1.0927429	2.261261
1493782580997	-1.788269	-2.1381226	0.9567566
1493782581017	-0.95047	-3.1953125	-0.6096802
1493782581039	-0.53012085	-4.841156	-2.7775116
1493782581059	-1.1222992	-6.95697	-5.645294
1493782581077	-2.598709	-9.433624	-8.465317
1493782581098	-3.2970123	-12.413803	-9.962219
1493782581122	-2.3870697	-14.788467	-10.768219
1493782581140	-2.1453552	-14.315826	-8.938278
1493782581164	-2.9491577	-11.64357	-6.861679
1493782581182	-4.8299713	-8.290085	-6.4122314
1493782581195	-7.268631	-6.5016937	-4.335022
1493782581215	-9.292786	-10.235916	-1.7595825
1493782581234	-8.936279	-16.825348	-3.7422638
1493782581255	-2.5845795	-16.513107	-4.79718
1493782581275	5.362213	-10.234772	3.711029
1493782581295	5.494995	-5.933304	9.8628235
1493782581314	2.2183228	-6.43808	7.8103333
1493782581334	1.112915	-9.484222	4.656555
1493782581353	1.0565186	-12.828812	-0.19589233
1493782581373	2.9408112	-13.960159	-2.3406982
1493782581396	4.2512665	-12.614426	-0.6423645
1493782581415	1.3013458	-10.33728	0.86413574
1493782581435	-1.576477	-8.168335	0.93530273
1493782581461	-3.2125397	-7.3671417	0.089767456
1493782581479	-4.39624	-8.199661	-1.8099976
1493782581493	-2.9333496	-9.49057	-1.121994
1493782581516	0.84828186	-10.02655	0.005203247
1493782581536	3.5182648	-9.6311035	0.82606506
1493782581556	4.0982666	-8.9561	0.063690186
1493782581576	3.5292664	-8.899033	-0.4634552
1493782581593	2.4511719	-9.034012	0.24154663
1493782581615	1.2156677	-9.459518	0.14172363
1493782581635	0.900177	-9.896194	-0.34477234
1493782581657	1.1361237	-10.438614	-0.97325134
1493782581676	0.84375	-10.670303	-2.069641
1493782581694	0.0049438477	-11.152985	-2.1996002
1493782581712	0.9069977	-11.813873	-1.0883484
1493782581731	3.4204254	-11.537491	-0.0541687
1493782581751	4.602463	-11.472549	0.071258545
1493782581791	2.5252075	-11.094681	-1.9039459
1493782581813	0.050827026	-11.900665	-3.6452332
1493782581813	1.9303131	-13.189911	-3.5830994
1493782581853	5.4558563	-12.313675	-3.0238647
1493782581873	4.7447205	-11.279251	-1.9135284
1493782581892	0.6575165	-10.6241455	-0.31069946
1493782581913	-3.8220367	-13.452026	2.075592
1493782581931	-7.4413605	-18.137375	4.922409
1493782581952	-8.746002	-18.975296	3.057785
1493782581971	-6.518387	-15.674194	-0.27017212
1493782581989	-4.3418884	-12.789154	-1.8368988
1493782582012	0.04147339	-11.24202	0.18579102
1493782582032	4.2117157	-10.553513	0.3807068
1493782582052	5.0780487	-10.017212	0.48753357
1493782582071	3.3075714	-8.346329	1.2486877
1493782582090	0.3634796	-6.6774445	2.779068
1493782582109	-2.2633972	-5.140381	2.8787384
1493782582129	-2.9523315	-3.201645	3.6900482
1493782582148	-2.8102112	-2.4791412	3.6618805
1493782582174	-2.6686707	-2.3780518	2.9333801
1493782582186	-2.555252	-2.9031525	1.6190338
1493782582204	-2.2952576	-3.9724274	-0.491745
1493782582223	-2.2193146	-5.612442	-2.3728333
1493782582243	-2.8115234	-8.5724945	-5.200302
1493782582263	-3.8558655	-12.576279	-8.966995
1493782582283	-3.8506775	-15.981064	-12.478836
1493782582303	-2.3838806	-15.5321045	-12.113815
1493782582324	-0.86390686	-11.311707	-7.1252136
1493782582342	-1.4814453	-7.17778	-4.6408234
1493782582364	-3.681961	-4.3431396	-5.4780426
1493782582383	-6.277878	-7.195221	-6.2167206
1493782582403	-7.442978	-14.066086	-5.131653
1493782582426	-5.294525	-17.161484	-1.1136932
1493782582444	0.32617188	-14.222504	3.29187
1493782582465	2.4842987	-8.2127075	7.023041
1493782582484	0.55249023	-6.343033	8.2052
1493782582504	-0.21917725	-7.8213654	6.257065
1493782582527	0.28977966	-11.118423	3.9091492
1493782582542	1.3261871	-13.654739	1.217514
1493782582564	3.3348083	-14.575592	-0.4404602
1493782582583	3.539505	-11.882126	-0.48487854
1493782582601	0.4774933	-9.028992	-0.2936554
1493782582623	-1.9307251	-7.7247314	-0.82473755
1493782582643	-2.8526306	-7.9397125	-1.0785217
1493782582675	-2.5413055	-9.096497	-0.57881165
1493782582684	-0.3068695	-9.880966	-1.0035553
1493782582700	2.0929413	-9.829498	-0.77633667
1493782582718	2.599472	-9.0082855	-0.37355042
1493782582738	2.0969696	-8.406082	-0.44699097
1493782582757	1.0242004	-8.5842285	0.44950867
1493782582779	-0.0887146	-8.752289	1.3448639
1493782582798	-0.5350189	-9.027481	0.96240234
1493782582819	-0.09124756	-9.858261	-0.72224426
1493782582839	0.9477844	-10.602463	-2.298645
1493782582878	0.8704071	-11.265823	-3.080307
1493782582878	-0.1413269	-12.011551	-2.5664673
1493782582919	0.57432556	-11.839157	-2.4886627
1493782582938	2.397522	-11.483078	-1.7835541
1493782582962	4.2266083	-11.572266	-1.7150116
1493782582980	4.980545	-12.559921	-2.4819794
1493782582997	5.474762	-14.410385	-2.8311462
1493782583017	5.565735	-12.6180725	-3.0841522
1493782583039	4.311035	-11.2981415	-2.0650177
1493782583061	0.6754303	-10.545822	-1.4868011
1493782583081	-3.480011	-12.581238	0.4659729
1493782583098	-5.9411316	-16.718918	3.3083954
1493782583121	-5.792206	-17.531265	4.118744
1493782583135	-2.9642944	-15.027542	2.1695251
1493782583156	0.57281494	-12.464798	0.8110199
1493782583174	3.8034058	-11.234299	-1.685669
1493782583193	4.4703674	-11.485306	-1.8620758
1493782583212	2.781784	-11.033325	0.82273865
1493782583233	0.8739624	-9.448029	1.8106842
1493782583252	-0.24531555	-7.4861755	1.9953308
1493782583274	-1.1926727	-6.2083282	2.861496
1493782583292	-1.9465332	-4.745041	3.6332703
1493782583312	-2.3660736	-3.7323303	3.6712494
1493782583332	-2.7993011	-3.1426086	3.1336823
1493782583353	-2.9207916	-3.0557404	2.202179
1493782583374	-2.7933044	-3.49794	0.680603
1493782583391	-3.058838	-4.65213	-0.8627472
1493782583411	-3.1578217	-6.4299316	-3.0048523
1493782583431	-2.9817963	-9.164429	-6.2374268
1493782583450	-2.7693024	-12.740463	-9.229553
1493782583471	-3.0963287	-15.555603	-11.168289
1493782583490	-2.927536	-14.221207	-9.339966
1493782583510	-2.3044739	-9.7651825	-5.411606
1493782583531	-2.4621735	-6.811432	-5.2281036
1493782583550	-5.792404	-9.707596	-6.569397
1493782583571	-7.0740814	-16.692917	-4.747757
1493782583590	-3.8695068	-16.593353	-0.7670288
1493782583609	0.04815674	-9.863495	4.277878
1493782583629	0.07507324	-5.864258	8.008987
1493782583648	-1.3145447	-6.7092896	7.5148926
1493782583674	-0.45118713	-8.897675	6.0300293
1493782583691	1.3578186	-11.150528	3.273758
1493782583708	2.7838593	-13.147354	-0.37947083
1493782583729	4.516983	-13.093903	-0.94281006
1493782583749	3.8090973	-11.628128	0.18269348
1493782583770	0.52508545	-9.901672	-0.009979248
1493782583793	-2.0363464	-8.635498	-0.25639343
1493782583808	-2.7690735	-8.297791	0.02104187
1493782583831	-2.611786	-9.328934	-0.69706726
1493782583850	-0.45309448	-9.497726	0.59916687
1493782583872	0.6400757	-9.90979	0.2941742
1493782583888	1.4341888	-8.965118	-0.08805847
1493782583911	0.96580505	-8.330475	-0.7652588
1493782583932	0.09220886	-8.420761	0.007461548
1493782583949	-0.16473389	-9.144455	0.5293274
1493782583991	-0.39515686	-9.603516	0.0034179688
1493782584009	-0.1375122	-10.044647	-0.18540955
1493782584026	0.33421326	-10.02063	-0.044555664
1493782584048	0.25102234	-10.523819	0.072143555
1493782584068	0.09085083	-10.780014	-0.36853027
1493782584088	0.48683167	-11.073608	-1.3651123
1493782584108	1.3887634	-10.943756	-0.64793396
1493782584125	2.3387756	-10.8346405	-1.1944427
1493782584145	2.5703125	-11.062271	-0.5795746
1493782584164	1.9526062	-11.51593	-1.3791962
1493782584182	0.97132874	-12.310089	-3.2505493
1493782584201	2.3904877	-13.258759	-3.9772644
1493782584222	4.936432	-12.650421	-3.1953278
1493782584241	4.7891693	-11.905487	-1.2969666
1493782584262	1.3526764	-12.051819	0.0398407
1493782584282	-3.9269104	-13.872421	1.9767151
1493782584301	-7.0530853	-16.739105	3.1447754
1493782584324	-7.001053	-16.755707	2.4897766
1493782584341	-4.2064667	-14.435242	1.2066498
1493782584360	-0.0019226074	-12.072708	0.936676
1493782584380	3.233017	-11.192459	-0.6521759
1493782584400	4.947159	-11.078735	-0.24075317
1493782584419	3.6535034	-10.522446	1.2732086
1493782584442	1.0812073	-9.251846	2.780487
1493782584462	-1.2931061	-7.8575745	2.6176453
1493782584480	-2.4381561	-6.1961365	2.591339
1493782584499	-2.4238892	-4.384018	3.6886444
1493782584519	-2.5897827	-3.6879578	3.7466888
1493782584541	-2.8509064	-3.4556732	3.0034027
1493782584557	-2.8939362	-3.6927185	1.2573853
1493782584578	-2.722351	-4.320801	-0.49263
1493782584601	-2.9280396	-5.55954	-1.744873
1493782584620	-3.4022522	-7.7761993	-2.761383
1493782584642	-4.5907593	-11.426163	-5.8513336
1493782584664	-4.0912476	-15.520477	-11.324051
1493782584689	-1.5049133	-17.223022	-13.0260315
1493782584699	0.8634186	-13.788544	-8.474503
1493782584721	0.14805603	-7.6178894	-4.9267273
1493782584737	-1.9484253	-3.4882507	-4.514282
1493782584757	-3.0303955	-2.948532	-5.391037
1493782584777	-5.602646	-9.125427	-4.977478
1493782584800	-6.2886963	-17.523438	-2.8647003
1493782584821	-2.4716034	-19.474823	0.64604187
1493782584839	1.6118317	-12.861084	2.0358276
1493782584858	0.07696533	-5.1129303	6.696701
1493782584878	-2.633255	-3.3155212	8.014328
1493782584901	-3.1257782	-5.5489655	5.651001
1493782584916	-2.529953	-11.009033	4.9196167
1493782584938	1.2816315	-13.864059	3.079071
1493782584956	6.7296906	-14.174347	0.14538574
1493782584977	5.963394	-11.92514	-1.9776764
1493782584999	1.1096802	-9.636749	-1.1579437
1493782585019	-1.5926361	-7.909546	-0.3066864
1493782585057	-3.114563	-7.8142242	0.46902466
1493782585074	-2.3554077	-8.53125	-0.2328949
1493782585094	-0.13578796	-9.923508	-0.3011322
1493782585111	2.4958649	-10.653931	-0.502182
1493782585132	2.7759247	-10.193344	-0.86216736
1493782585155	1.7398071	-9.371475	-0.38719177
1493782585156	0.8014374	-9.015472	1.061966
1493782585174	0.29212952	-9.30217	0.79255676
1493782585200	0.51094055	-9.643433	-0.015609741
1493782585220	1.1574707	-9.813934	-0.720459
1493782585239	1.3016815	-9.770386	-1.1194
1493782585259	0.7470398	-10.099411	-1.4622803
1493782585279	0.43099976	-10.843689	-1.4049377
1493782585298	1.4800568	-11.169556	-1.1243134
1493782585317	2.7700043	-11.304123	-0.58158875
1493782585338	2.7156372	-11.58847	-0.6472168
1493782585358	2.2201538	-12.98819	-1.6696625
1493782585379	2.6173096	-14.169006	-2.6653595
1493782585400	3.487259	-14.438538	-4.460144
1493782585419	1.9415436	-12.53862	-2.9460297
1493782585443	-1.8142548	-10.52243	-2.248352
1493782585462	-5.6016083	-11.188156	-0.7608185
1493782585482	-7.0091248	-14.092667	1.9473572
1493782585501	-7.280411	-16.52974	3.083664
1493782585523	-4.592041	-14.923508	0.7186432
1493782585542	-1.7243805	-12.476425	-0.6260681
1493782585562	1.6130219	-11.024582	1.0662079
1493782585579	3.0377197	-10.114487	-0.37806702
1493782585619	3.69458	-9.805374	0.101760864
1493782585642	0.6908417	-9.174515	0.8415222
1493782585643	-0.8424835	-7.5812836	1.201004
1493782585683	-2.1459045	-6.444748	1.3924866
1493782585697	-1.8986969	-5.2386475	1.4793854
1493782585716	-1.933258	-4.1651764	2.2159271
1493782585736	-2.3674622	-4.1237793	2.2188873
1493782585756	-2.5281982	-3.9585571	1.437851
1493782585776	-2.6233673	-4.114334	-0.23124695
1493782585799	-2.8377838	-4.9333496	-1.7084503
1493782585816	-2.9445648	-6.6286774	-3.1826477
1493782585838	-2.90831	-9.248138	-5.3270874
1493782585859	-2.4667206	-12.643326	-8.259003
1493782585878	-1.7335968	-14.246735	-10.678085
1493782585897	-2.3075714	-12.042404	-9.795273
1493782585915	-2.8077393	-10.042374	-7.518921
1493782585934	-2.4380646	-9.613434	-4.563736
1493782585954	-2.944519	-9.05278	-3.8265686
1493782585972	-5.925186	-10.090408	-3.1343231
1493782585991	-7.94162	-12.572144	-0.68966675
1493782586011	-8.2256775	-10.697235	2.609436
1493782586030	-9.663681	-7.293915	0.73631287
1493782586050	-7.511032	-8.166061	-1.5601196
1493782586071	4.3312073	-10.429077	2.9940186
1493782586090	13.361633	-12.231201	9.496063
1493782586110	9.440826	-12.378906	7.0286865
1493782586130	3.6966705	-12.779678	-0.5797119
1493782586149	3.14859	-13.309525	-3.4403534
1493782586170	2.9185333	-11.5173645	-1.7375488
1493782586189	-0.8770447	-9.361465	3.7741852
1493782586209	-7.0263214	-8.793762	0.2832489
1493782586228	-5.4697723	-9.273941	-4.647644
1493782586249	0.86302185	-10.433502	-2.72818
1493782586268	3.81987	-10.2803955	-0.98727417
1493782586288	2.8637695	-8.572952	-1.3961182
1493782586308	1.1155243	-7.427658	-0.8388977
1493782586327	0.720047	-7.9073486	-0.36058044
1493782586347	1.1171417	-8.720169	-0.31378174
1493782586367	1.1978607	-8.730087	-0.474823
1493782586387	1.101944	-8.76442	-0.773407
1493782586406	0.8440552	-9.005127	-0.9961853
1493782586425	0.6445465	-9.11734	-1.2063446
1493782586446	0.76123047	-9.22522	-1.6069946
1493782586466	1.0915833	-9.455048	-2.2181244
1493782586485	1.6221008	-9.681381	-2.1473236
1493782586505	2.0203094	-9.430847	-1.612793
1493782586525	2.492859	-9.773148	-1.2629547
1493782586545	3.2840424	-10.547546	-1.019516
1493782586565	4.043167	-10.955475	-1.2158661
1493782586585	4.889511	-12.976395	-0.7279358
1493782586605	5.9395294	-17.45456	2.55365
1493782586624	-3.8865051	-16.375763	-3.46109
1493782586644	-3.3779755	-12.200485	-5.3861694
1493782586666	-4.0325775	-12.24144	-3.5025024
1493782586695	-5.0491486	-17.61937	0.02267456
1493782586722	-8.764923	-19.422012	4.239334
1493782586743	-5.204941	-16.291916	1.9083405
1493782586762	-3.3632355	-9.884338	2.6696472
1493782586782	-3.2014923	-8.671829	-0.15927124
1493782586805	0.8395233	-8.901657	-6.88443
1493782586822	0.96520996	-11.88472	-5.297455
1493782586843	-3.3899536	-9.308136	-3.0571747
1493782586862	-4.4251556	-6.3001556	-1.6060181
1493782586882	-3.2561035	-5.7122955	0.009460449
1493782586902	-2.5588684	-6.1700134	1.5875549
1493782586921	-3.314392	-6.4292297	1.1636658
1493782586943	-5.056076	-7.2043457	-0.29055786
1493782586962	-5.4322357	-7.271576	-1.2325287
1493782586982	-4.2722626	-6.9069214	-1.1105194
1493782587003	-2.4818268	-6.873993	-0.75035095
1493782587023	-1.4496765	-7.1338196	-1.066742
1493782587042	-1.5048676	-6.7729797	-1.7525635
1493782587063	-1.652771	-6.0519257	-2.3942719
1493782587083	-1.3623047	-5.330002	-2.6022644
1493782587103	-0.87939453	-5.064377	-3.1791382
1493782587124	-0.70991516	-5.4964905	-4.2615967
1493782587142	-1.2053833	-6.514496	-5.949188
1493782587163	-2.0021667	-8.023834	-8.019669
1493782587179	-2.6339874	-9.567917	-9.177567
1493782587203	-3.0516968	-10.608383	-9.002869
1493782587220	-3.4917145	-10.405869	-8.108139
1493782587242	-4.386688	-9.109741	-7.125702
1493782587259	-4.7749176	-7.268219	-6.227646
1493782587278	-4.5786133	-5.642456	-4.9494476
1493782587299	-5.215576	-5.3828125	-2.560501
1493782587320	-7.6345215	-10.014465	-0.16116333
1493782587342	-7.977539	-17.08142	-3.2540588
1493782587361	-1.000824	-17.708725	-6.1872864
1493782587380	5.525177	-11.483353	1.4693756
1493782587396	4.329544	-7.1121674	6.776596
1493782587415	1.7255402	-7.260498	6.9200897
1493782587435	1.2652435	-9.085297	5.505142
1493782587455	0.7447357	-12.59407	-0.4559021
1493782587475	1.8693085	-13.320816	-2.0956116
1493782587494	2.7624664	-12.131805	-0.3334198
1493782587514	1.1607513	-10.238388	-0.06350708
1493782587533	-0.36003113	-8.063507	-0.5239563
1493782587554	-1.0092163	-7.5801086	-0.9387207
1493782587574	0.22120667	-8.241226	-0.58784485
1493782587593	1.7826385	-10.168396	0.4498291
1493782587613	2.6579437	-10.843826	0.894104
1493782587632	2.206009	-9.961945	-0.20166016
1493782587653	1.093338	-9.764587	-1.9150085
1493782587672	0.59783936	-9.81102	-1.1986542
1493782587693	0.82901	-9.737061	0.70747375
1493782587712	1.0876312	-9.414017	1.1477203
1493782587731	0.5402069	-9.163712	0.24443054
1493782587752	0.36587524	-9.624756	-0.06517029
1493782587771	-0.17449951	-10.158707	-0.44683838
1493782587811	-0.4025421	-10.028473	-1.5471954
1493782587830	0.41067505	-11.018127	-1.6591797
1493782587850	2.1090393	-11.385498	-1.492279
1493782587870	3.187851	-11.030273	-1.014801
1493782587890	3.3747406	-10.766632	-0.8777771
1493782587910	2.47995	-11.550781	-1.9186096
1493782587930	2.711197	-13.781784	-1.7776489
1493782587949	3.7855988	-13.408966	-2.5796356
1493782587969	3.0834503	-12.08049	-3.1902924
1493782587989	-0.6646881	-9.906784	-2.1942139
1493782588009	-3.7723694	-10.791824	-0.85554504
1493782588028	-5.6410675	-14.842041	2.062088
1493782588048	-7.059494	-17.996689	4.059906
1493782588068	-5.2737427	-16.280289	0.71928406
1493782588088	-2.2835999	-13.212402	-0.5516205
1493782588107	0.5474396	-11.478683	0.24630737
1493782588127	2.2786407	-10.838211	-0.880188
1493782588147	2.6213684	-10.206757	0.2821808
1493782588167	1.5683441	-9.63121	0.7000427
1493782588187	-0.21203613	-8.096176	1.4824219
1493782588206	-1.9331207	-6.3014374	1.927002
1493782588226	-2.6817474	-4.9623566	2.021576
1493782588246	-2.2694092	-3.7829132	2.4010773
1493782588266	-1.9901123	-3.130722	2.3840332
1493782588285	-1.6788788	-3.1788788	1.789093
1493782588305	-1.4030457	-3.6274567	0.5036926
1493782588325	-1.1856079	-4.389496	-1.3892212
1493782588345	-1.1666565	-5.709137	-3.0722961
1493782588365	-1.804306	-7.8972015	-5.6435394
1493782588384	-3.106079	-10.885696	-8.078171
1493782588405	-3.3694	-13.520386	-10.765564
1493782588424	-2.2407532	-13.986313	-11.448608
1493782588443	-0.7804413	-12.185364	-7.911072
1493782588464	-0.35002136	-9.286026	-5.346115
1493782588483	-1.9082336	-5.935974	-5.346283
1493782588503	-5.3636475	-7.340988	-5.6181793
1493782588523	-9.008209	-14.665787	-5.931656
1493782588542	-6.82193	-18.9169	-2.0007172
1493782588563	-0.8108368	-14.263031	-0.4472351
1493782588582	2.833786	-7.0438232	6.6846924
1493782588602	0.2467804	-4.8008575	7.9552155
1493782588622	-1.3683472	-6.6327057	6.8703613
1493782588640	-0.8137207	-9.939438	4.6734314
1493782588661	1.6078796	-12.865021	2.5622253
1493782588681	3.321045	-14.472275	-0.05180359
1493782588701	4.216217	-13.267349	-0.43899536
1493782588721	2.1886597	-10.772232	-0.06417847
1493782588740	-0.1449585	-8.829437	0.18061829
1493782588760	-1.9995575	-8.323242	-0.10050964
1493782588780	-2.3999634	-8.613876	-0.085617065
1493782588800	-1.4479828	-9.696732	-0.21635437
1493782588820	0.4986725	-10.175262	-0.20541382
1493782588839	1.773407	-10.282898	-0.017181396
1493782588859	1.8301086	-9.472794	-0.62724304
1493782588879	1.1610413	-8.843613	-0.7961731
1493782588919	1.1676483	-8.778046	-0.23927307
1493782588938	1.1048584	-9.005295	0.31237793
1493782588958	0.985199	-9.48056	0.8212433
1493782588978	0.9430084	-9.844772	0.27246094
1493782588998	0.8766632	-9.90123	-0.6212158
1493782589018	-0.04850769	-10.029266	-1.3461761
1493782589037	-1.1407776	-10.032486	-1.4836884
1493782589057	-0.75346375	-10.115753	-1.4856415
1493782589077	1.338974	-10.4170685	-0.49899292
1493782589097	2.6859894	-10.542328	0.1710968
1493782589116	2.2101898	-10.450317	-0.17527771
1493782589136	0.51000977	-10.404068	-0.9740753
1493782589156	-0.6047058	-10.152573	-2.9804993
1493782589176	0.16967773	-10.317886	-3.4863129
1493782589196	3.2575226	-11.482895	-1.9207001
1493782589215	5.3578644	-12.053513	-0.6856384
1493782589235	5.9245453	-12.575272	0.15802002
1493782589255	2.0657654	-12.266846	0.023651123
1493782589275	-4.8789673	-12.817734	0.11151123
1493782589294	-8.110596	-15.862549	2.2632904
1493782589314	-6.4578094	-16.489166	3.3148956
1493782589334	-3.5954132	-14.184494	1.1562195
1493782589354	-1.0761108	-12.380585	-0.0975647
1493782589373	0.76841736	-11.40419	-1.0564423
1493782589393	1.0247498	-11.158035	0.04408264
1493782589413	0.30851746	-10.781921	1.6542358
1493782589433	-0.5579071	-9.496948	0.9877472
1493782589453	-1.1193848	-8.186737	0.63679504
1493782589472	-1.2233887	-6.966217	1.4511719
1493782589491	-1.0460663	-5.8863983	2.272934
1493782589512	-0.9438629	-5.29834	2.3893127
1493782589532	-0.7887573	-5.096161	2.0314941
1493782589551	-0.74546814	-5.341278	1.3470459
1493782589571	-0.9642334	-6.3560944	-0.10652161
1493782589591	-1.201355	-7.76503	-1.8924408
1493782589611	-1.1677551	-9.578598	-3.8184814
1493782589631	-0.8201904	-11.167511	-5.004242
1493782589650	-0.7524872	-11.255234	-5.5280304
1493782589670	-1.2956543	-10.177338	-6.2878723
1493782589690	-2.1081238	-9.742157	-4.8702393
1493782589710	-2.8871155	-9.939819	-2.047882
1493782589730	-2.7797546	-10.0815735	-2.3326263
1493782589748	-1.9203491	-9.0327	-2.5276031
1493782589769	-1.9892426	-7.8415375	-2.362259
1493782589789	-3.321045	-9.871475	-4.1364136
1493782589809	-2.6787415	-15.352722	-1.6835175
1493782589828	-0.72317505	-17.43332	2.6265411
1493782589848	0.97950745	-12.127289	2.9809723
1493782589868	2.1347046	-7.9082947	4.7375793
1493782589888	0.63993835	-6.972458	4.504883
1493782589908	-0.9328766	-8.355179	1.4497833
1493782589927	-0.34324646	-9.871216	0.20678711
1493782589949	1.234024	-10.462524	0.08352661
1493782589967	2.4951935	-10.371231	-0.09484863
1493782589987	2.6674347	-9.659103	0.44810486
1493782590027	1.2751923	-9.050858	0.47816467
1493782590045	-0.46562195	-9.557953	-0.8049469
1493782590066	-0.97387695	-10.282364	-1.4620972
1493782590086	-0.91748047	-10.71489	-1.2749329
1493782590105	-0.71624756	-10.189621	-1.5061798
1493782590125	-0.1381836	-9.8363495	-1.4731903
1493782590145	0.46372986	-9.788864	-0.60113525
1493782590165	0.44792175	-9.908752	0.50686646
1493782590185	-0.36141968	-9.932831	0.8969269
1493782590205	-1.4129181	-9.978027	0.5955658
1493782590224	-1.2194824	-10.063736	0.5182495
1493782590244	-0.5019989	-10.092651	0.24438477
1493782590264	0.42404175	-9.942657	0.19821167
1493782590284	0.9167633	-9.86348	0.93743896
1493782590303	0.69602966	-9.833817	1.9310608
1493782590323	-0.2934723	-9.799545	2.114334
1493782590343	-0.720871	-9.809402	1.6381989
1493782590362	-0.4623413	-9.838379	1.2223053
1493782590382	0.08526611	-10.055389	0.63783264
1493782590402	0.36639404	-10.157135	0.5285797
1493782590422	0.22685242	-10.084869	0.32136536
1493782590442	0.27775574	-9.941635	0.105651855
1493782590461	0.8852997	-9.947342	0.14019775
1493782590481	1.0542755	-9.948883	-0.11553955
1493782590500	0.5051422	-9.927322	-0.7412262
1493782590521	0.61909485	-10.180481	-1.3235779
1493782590541	1.0321655	-10.730301	-1.9800873
1493782590560	1.8641205	-12.014145	-2.005722
1493782590580	1.6591187	-13.28804	-1.6007538
1493782590599	-0.47702026	-12.087479	-1.9972382
1493782590620	-2.0901184	-10.368835	-3.1882324
1493782590639	-1.6015472	-10.229462	-2.7673035
1493782590658	-0.846405	-10.981659	-1.1537018
1493782590683	-1.2191467	-12.103409	-0.41189575
1493782590706	-1.3170013	-12.064499	-1.0513153
1493782590721	-0.12788391	-10.740585	-1.5637512
1493782590740	1.3639374	-9.301849	-1.0185242
1493782590762	3.593872	-8.793991	1.1278534
1493782590784	5.3745575	-9.27478	3.5578308
1493782590800	4.721405	-9.717194	2.9083252
1493782590822	2.426529	-10.193451	1.2593842
1493782590842	-0.052856445	-10.843292	0.05455017
1493782590859	-1.6621704	-11.030579	-0.1579895
1493782590883	-2.7105408	-10.941666	-0.27946472
1493782590901	-3.0758514	-10.55191	-0.59384155
1493782590929	-2.8524475	-10.037857	-0.37545776
1493782590939	-2.291565	-9.519852	-0.038879395
1493782590957	-1.989502	-8.904892	0.24653625
1493782590977	-2.0535889	-8.132507	0.36351013
1493782590997	-2.2807312	-7.3988495	-0.23649597
1493782591017	-2.492569	-7.024872	-1.0387268
1493782591036	-2.696579	-6.6334534	-1.4782562
1493782591055	-2.5850677	-6.411621	-1.7973633
1493782591076	-2.2778168	-6.7586365	-2.2284546
1493782591116	-1.6915283	-7.8884735	-2.9673462
1493782591135	-2.090271	-9.102264	-4.482956
1493782591154	-3.0868378	-9.970383	-6.459732
1493782591175	-2.727539	-9.898987	-7.8054047
1493782591196	-1.7537079	-9.448151	-7.237976
1493782591215	-0.9816437	-8.58107	-5.817627
1493782591234	-1.0314331	-8.000702	-4.526291
1493782591254	-5.5634155	-11.217194	-0.3936615
1493782591274	-8.079666	-18.002304	-0.23812866
1493782591295	-4.348999	-18.474869	-2.9103394
1493782591317	0.6793823	-12.174759	-1.4116516
1493782591337	1.649292	-5.8826904	6.4063263
1493782591356	0.04147339	-3.3923492	9.43306
1493782591376	-1.1956787	-5.6631317	7.8521423
1493782591396	-1.9042511	-10.106094	4.1048584
1493782591415	-0.078125	-12.350601	0.09877014
1493782591436	3.6708374	-12.542709	-0.6535034
1493782591455	4.9939575	-11.409912	0.460083
1493782591475	1.4939575	-9.189941	-0.3738098
1493782591495	-0.8800049	-8.061951	-0.29644775
1493782591517	-2.5917206	-8.820206	-0.11280823
1493782591536	-2.9752197	-10.42804	-1.4438324
1493782591554	-1.1147003	-10.966843	-2.0657806
1493782591573	1.2429504	-10.671219	-1.5971527
1493782591594	2.8778381	-9.878067	-0.34638977
1493782591612	2.977005	-9.335419	1.2127075
1493782591633	1.9166718	-9.240112	2.0760498
1493782591652	0.48876953	-9.482651	1.811264
1493782591672	-0.5046387	-9.879822	0.6492462
1493782591691	-0.6634369	-10.169189	-0.48944092
1493782591710	-0.3404541	-10.425568	-1.3148193
1493782591733	-0.2091217	-10.496902	-1.7081299
1493782591749	-0.5128784	-10.757431	-2.4202118
1493782591769	0.116378784	-11.180267	-2.7988892
1493782591789	2.0270386	-10.881485	-1.6504669
1493782591808	3.4006348	-10.580551	-0.6979675
1493782591835	2.85437	-11.221954	-0.8705597
1493782591851	0.81681824	-12.466324	-1.6787109
1493782591868	-0.32121277	-10.848145	-3.765625
1493782591889	2.6194763	-11.45105	-3.414978
1493782591909	5.4142456	-12.027725	-1.1209564
1493782591932	2.8271637	-10.994827	0.7166443
1493782591948	-3.9172516	-12.368088	-0.85902405
1493782591967	-7.765991	-15.75621	1.6417389
1493782591990	-6.493469	-16.442947	2.4500122
1493782592006	-3.5021362	-14.003174	1.5231934
1493782592027	0.7706604	-11.117233	1.3886719
1493782592050	4.931534	-10.333878	-0.35697937
1493782592066	5.763687	-10.942932	-2.7662048
1493782592087	2.684082	-11.080933	-0.30249023
1493782592107	-0.20469666	-10.2161255	0.9299469
1493782592128	-1.916626	-8.596054	1.2204895
1493782592150	-2.629959	-6.931671	1.4573364
1493782592164	-2.5731964	-5.4125824	2.1148224
1493782592185	-2.5947723	-4.5134583	2.8917542
1493782592224	-2.8922424	-4.619873	2.438095
1493782592244	-2.857788	-4.546646	1.6161652
1493782592264	-2.2418365	-5.0723114	0.15231323
1493782592283	-1.8207092	-6.068863	-1.2790375
1493782592303	-1.8033295	-7.295105	-2.387085
1493782592325	-2.0751648	-8.722031	-3.3855286
1493782592348	-2.6461334	-10.181854	-4.9907227
1493782592364	-2.5131683	-11.351685	-7.0963745
1493782592382	-1.9578857	-12.370163	-8.075821
1493782592404	-1.981247	-12.592773	-7.343506
1493782592425	-2.1614532	-11.282242	-6.485901
1493782592444	-1.9689484	-8.72821	-6.0138702
1493782592464	-1.4095612	-6.7348175	-5.093338
1493782592482	-1.5112305	-7.851944	-3.828659
1493782592504	-3.1102753	-12.27298	-2.3708801
1493782592523	-4.168915	-14.963333	-2.060791
1493782592543	-3.8007507	-15.182602	-1.9261017
1493782592563	-1.0306396	-9.538757	0.9337158
1493782592582	0.016723633	-5.428314	5.494919
1493782592602	-0.40405273	-4.9265594	6.883621
1493782592621	-0.9441376	-7.636017	5.359024
1493782592642	-0.44200134	-11.752502	2.8036194
1493782592663	2.618042	-13.091934	1.5181427
1493782592682	4.805252	-11.732361	-0.3045349
1493782592706	2.66893	-10.512329	-1.0654602
1493782592721	-0.76789856	-9.729858	-0.42311096
1493782592738	-2.495697	-9.041061	0.15150452
1493782592758	-2.7911835	-9.022324	0.2102356
1493782592779	-1.4891357	-9.272781	-0.38728333
1493782592797	0.6885834	-9.722824	-0.2632599
1493782592818	2.0899658	-10.011993	-0.08065796
1493782592840	2.1567535	-9.84462	-0.53796387
1493782592859	1.5628662	-9.6058655	0.037002563
1493782592879	0.7607422	-9.452591	1.124466
1493782592900	0.24227905	-9.625275	0.75083923
1493782592918	0.08123779	-10.04274	-0.22860718
1493782592936	0.11869812	-10.237183	-0.7953186
1493782592957	0.033477783	-10.193268	-1.1923981
1493782592976	0.010681152	-10.415588	-1.3917236
1493782592999	0.31292725	-10.668777	-1.3511963
1493782593016	1.1153717	-10.869827	-1.7724915
1493782593037	2.3664398	-10.774597	-2.458969
1493782593054	3.4866333	-10.545807	-1.6289215
1493782593074	3.058548	-10.895996	-1.0337524
1493782593096	1.4479828	-12.351242	-1.9944153
1493782593115	0.99154663	-12.724518	-3.186615
1493782593134	1.7162628	-12.642075	-3.1759644
1493782593155	2.167389	-12.032272	-2.108261
1493782593175	0.40644836	-11.058929	-0.71725464
1493782593195	-3.494049	-11.996613	0.8913727
1493782593215	-5.080017	-14.521866	3.0393982
1493782593235	-3.1785889	-14.947556	3.043579
1493782593252	-1.1601105	-13.522278	4.0984344
1493782593271	3.329483	-10.8125305	2.672882
1493782593314	4.778763	-11.173599	-2.139862
1493782593334	4.1217346	-11.460556	-0.9737091
1493782593354	0.84039307	-11.709885	0.027069092
1493782593373	-1.2010803	-9.908081	1.7571564
1493782593395	-1.789917	-7.9502716	1.9651642
1493782593412	-2.0355225	-7.1194153	2.44812
1493782593433	-1.8895111	-6.2655487	2.7138824
1493782593453	-1.6492004	-5.4111176	2.4875793
1493782593472	-2.0643463	-4.9820557	1.4193726
1493782593491	-2.2355194	-5.0289764	0.6277008
1493782593514	-2.211563	-5.7262726	-0.28733826
1493782593533	-2.3685455	-6.84317	-1.3087769
1493782593552	-2.160492	-8.206192	-2.8888397
1493782593572	-1.5842743	-9.82843	-4.1521454
1493782593592	-1.2857971	-11.201874	-5.8115997
1493782593614	-1.0141296	-11.808609	-6.7465363
1493782593633	-0.30485535	-11.188522	-6.444107
1493782593653	-0.17700195	-9.814301	-5.553238
1493782593670	-0.72084045	-9.125916	-4.411545
1493782593689	-2.1488342	-12.286377	-2.6001282
1493782593710	-3.0414734	-16.488358	1.703949
1493782593727	-1.1937103	-13.023941	5.2957764
1493782593747	0.22402954	-6.5657043	4.46286
1493782593767	0.13121033	-5.3322144	1.3906403
1493782593786	2.814972	-9.390823	1.7711945
1493782593806	8.546692	-14.50914	4.239334
1493782593825	7.3967285	-14.39035	2.4013672
1493782593847	-0.31774902	-10.435852	-0.47157288
1493782593867	-5.5707855	-8.4769745	-1.5364532
1493782593885	-7.1387177	-8.751968	-1.0740051
1493782593912	-4.9999847	-9.393143	-0.85398865
1493782593930	-0.59036255	-10.274597	-1.0235748
1493782593980	2.747635	-10.515244	-0.87991333
1493782593980	2.9832916	-9.840012	-0.8688965
1493782593982	1.5250702	-9.365997	-0.7992401
1493782594002	0.95248413	-9.751511	-0.55752563
1493782594032	-0.10984802	-9.532761	0.26194763
1493782594041	-1.1015778	-9.338104	0.05378723
1493782594061	-1.5996246	-9.155655	-0.104141235
1493782594079	-1.4210815	-9.186752	-0.15446472
1493782594101	-1.2501373	-9.037582	0.2611084
1493782594120	-0.9811554	-8.547699	0.2518463
1493782594140	-0.50816345	-8.305603	-0.02494812
1493782594160	-0.565094	-8.629913	0.3843994
1493782594179	-0.8257904	-9.448502	0.74928284
1493782594199	-0.83854675	-10.317535	0.5762787
1493782594219	-0.6595459	-10.440735	0.5141144
1493782594239	-0.031951904	-10.050842	-0.051101685
1493782594259	1.0871887	-9.983383	-0.31582642
1493782594278	2.1746674	-10.409988	-0.38554382
1493782594299	3.2502594	-11.062027	-0.44075012
1493782594320	3.688034	-11.342743	0.043060303
1493782594339	2.844818	-11.011093	0.47302246
1493782594359	1.6772308	-10.9748535	0.25398254
1493782594398	1.0319214	-10.955948	-0.30827332
1493782594417	2.0150757	-12.840103	-0.008972168
1493782594439	2.354248	-14.500977	1.4179077
1493782594459	1.6938629	-14.014847	-0.3588562
1493782594477	1.3739471	-13.495041	-2.7145386
1493782594498	-0.75505066	-10.695282	-2.287033
1493782594516	-3.6299438	-9.39418	-4.0486145
1493782594536	-4.3452454	-12.559326	-4.6742554
1493782594555	-4.8322144	-16.471832	0.9672699
1493782594575	-3.245285	-16.430481	3.550644
1493782594595	-0.22154236	-12.466782	5.041046
1493782594614	0.3050537	-9.875946	4.654785
1493782594634	2.4474335	-8.662109	-1.7574921
1493782594654	2.422882	-10.24144	-6.185272
1493782594674	1.1025848	-11.058823	-4.140854
1493782594694	0.41459656	-10.255386	-0.09820557
1493782594713	-0.58251953	-9.090469	1.8203278
1493782594733	-1.9399109	-8.629761	1.6844635
1493782594753	-2.8342133	-8.829514	0.9416199
1493782594773	-2.779007	-8.775574	0.8413696
1493782594793	-2.9107056	-8.245132	1.1217804
1493782594813	-2.8544922	-7.227356	1.1841431
1493782594832	-2.3934479	-6.1786957	1.2045898
1493782594852	-2.2559662	-5.316971	1.2247467
1493782594872	-2.2184143	-4.733719	1.2193909
1493782594892	-1.60289	-4.556122	1.0275726
1493782594911	-1.5203552	-4.3577423	-0.033935547
1493782594930	-2.4718628	-4.352295	-1.8292999
1493782594951	-3.2584229	-5.7964478	-5.080475
1493782594971	-3.003128	-8.535599	-8.5876465
1493782594991	-1.7135925	-11.558594	-10.778183
1493782595010	-1.0334167	-13.82547	-12.025345
1493782595030	-1.3095093	-13.472229	-10.930069
1493782595050	-3.865326	-11.110535	-10.746246
1493782595070	-9.513306	-14.271179	-8.554398
1493782595090	-7.3823547	-15.390732	-0.20639038
1493782595109	-1.3879547	-9.808716	4.292099
1493782600577	1.1924896	-5.3544006	7.141205
1493782600577	0.0811615	-5.8987885	8.468521
1493782600577	-0.47418213	-9.695618	7.7000732
1493782600577	1.1351471	-14.384445	3.7440033
1493782600577	2.8867493	-14.917938	-0.84017944
1493782600577	4.00412	-13.491104	-1.6907959
1493782600577	3.6682434	-11.362778	-0.0054473877
1493782600577	1.6548004	-9.552139	1.2913971
1493782600577	-0.6710663	-8.103683	1.2179413
1493782600577	-2.5841827	-8.058533	0.41433716
1493782600577	-3.5253906	-9.105621	-1.3449707
1493782600577	-2.5811157	-9.877228	-1.2664185
1493782600577	0.07543945	-9.826416	-0.15208435
1493782600577	1.8497009	-9.728027	-0.05580139
1493782600577	2.434906	-9.347046	0.17684937
1493782600577	1.3552094	-9.253021	0.6028137
1493782600577	0.18936157	-9.149185	1.3308258
1493782600577	-0.4076233	-9.27803	0.91656494
1493782600578	0.22828674	-9.436508	-0.12963867
1493782600578	0.49565125	-9.888687	-0.3812256
1493782600578	0.29077148	-10.457764	-0.54667664
1493782600578	0.15127563	-10.702286	-1.3138428
1493782600578	0.48590088	-10.43692	-2.6268005
1493782600578	1.1925659	-10.647873	-2.2994232
1493782600578	3.4090118	-10.154602	-1.1308289
1493782600578	6.00502	-10.105286	1.5033264
1493782600578	3.3375854	-11.935562	-1.226593
1493782600578	-1.7258301	-12.19545	-5.0412903
1493782600578	-0.51060486	-11.906479	-4.1432953
1493782600578	5.1915283	-9.665054	-0.99809265
1493782600578	7.390274	-11.761398	0.039230347
1493782600578	1.798996	-11.635574	-0.096084595
1493782600578	-6.6428375	-14.181107	-0.99642944
1493782600578	-9.914993	-18.207336	2.6664734
1493782600578	-8.8255005	-18.373154	3.6804657
1493782600578	-5.4137726	-14.841034	0.6253357
1493782600580	-2.376999	-12.394302	0.06970215
1493782600580	3.149002	-10.646866	-0.09315491
1493782600580	6.438339	-10.219681	-1.8606873
1493782600580	4.1885834	-9.859619	0.099853516
1493782600580	0.65579224	-8.677109	1.1017761
1493782600580	-1.8144531	-7.1244965	2.2486877
1493782600581	-2.6110687	-4.9566345	2.877472
1493782600581	-2.8726654	-3.6078339	3.2078247
1493782600581	-2.9123383	-3.0242462	3.3220673
1493782600581	-2.786728	-3.296524	2.6789703
1493782600581	-2.4295807	-3.9322968	1.2864685
1493782600581	-1.7874756	-4.8697205	-0.15376282
1493782600581	-1.559372	-6.261032	-1.2235413
1493782600581	-1.6214752	-8.0837555	-2.5643158
1493782600581	-2.1451874	-11.276627	-6.344803
1493782600581	-1.8552856	-15.292343	-11.080612
1493782600581	-1.2032776	-15.757736	-12.293335
1493782600581	-1.328537	-12.393936	-8.879181
1493782600581	-1.1399231	-9.275467	-3.9468079
1493782600581	-1.2655487	-7.401001	-3.4904938
1493782600581	-2.857895	-6.1674347	-4.958496
1493782600581	-6.3013916	-10.417099	-6.044525
1493782600581	-6.91362	-17.225739	-3.8407593
1493782600581	-4.2789764	-18.280884	1.9635468
1493782600581	-0.022872925	-10.688477	3.9380035
1493782600581	0.80700684	-4.5576477	8.338959
1493782600581	-0.94636536	-4.1371155	8.311127
1493782600581	-1.8574829	-7.303543	5.320587
1493782600581	-0.5081024	-13.309555	3.1409454
1493782600581	2.5778046	-14.658447	1.0755463
1493782600581	5.486603	-13.318695	-0.1751709
1493782600581	4.5054626	-11.132843	0.02255249
1493782600582	1.6322937	-9.662933	0.1940155
1493782600582	-0.40045166	-8.548187	0.8106537
1493782600582	-1.990509	-8.565231	-0.2158966
1493782600582	-1.9309387	-9.027969	-1.1238861
1493782600582	-0.7893524	-9.751816	-1.0670013
1493782600582	0.49798584	-10.073288	-0.17884827
1493782600582	1.8337097	-9.886612	0.010375977
1493782600582	3.0701141	-9.464355	0.13076782
1493782600582	3.0138397	-9.779724	0.3493805
1493782600582	2.1869965	-9.739288	0.48579407
1493782600582	1.7556152	-9.698486	-0.41723633
1493782600582	1.4515533	-9.794708	-0.8497467
1493782600582	1.2378693	-9.494156	-1.1477661
1493782600582	1.1600037	-9.497681	-1.1909637
1493782600582	1.1470642	-10.031464	-0.81073
1493782600582	1.9202728	-10.533157	-0.54374695
1493782600582	3.7810364	-10.908218	-0.5450592
1493782600582	5.1480103	-10.905182	-0.74861145
1493782600582	4.166031	-10.734161	-2.0761566
1493782600582	1.9460297	-10.820114	-3.9763947
1493782600582	1.3913269	-11.605759	-4.339447
1493782600582	1.966095	-12.097519	-3.5884247
1493782600582	2.1576538	-12.012253	-2.5042114
1493782600582	0.09370422	-12.296478	-1.9569855
1493782600582	-4.3290253	-11.617264	-1.768692
1493782600582	-7.6530304	-12.641006	-0.6938629
1493782600582	-8.25325	-14.471344	1.5063782
1493782600583	-4.6193542	-14.430466	1.9802704
1493782600583	0.8109741	-12.575211	1.1373596
1493782600583	3.5957794	-11.140945	-1.7160797
1493782600583	2.386322	-10.642685	-2.471344
1493782600583	-0.38876343	-10.65332	-0.6856537
1493782600583	-2.401825	-9.948975	0.2662506
1493782600583	-3.015091	-8.438324	-0.06465149
1493782600583	-2.5637665	-6.802414	0.42689514
1493782600583	-2.194168	-5.571518	0.8816376
1493782600583	-2.11174	-5.205017	0.95202637
1493782600583	-2.1672668	-5.501709	0.9849243
1493782600583	-1.9238434	-5.734848	0.738266
1493782600583	-1.5371246	-5.5661926	0.2594757
1493782600583	-1.4213562	-5.3606873	-0.64749146
1493782600583	-1.5756989	-5.7055206	-1.7935028
1493782600583	-1.3275299	-6.7343597	-2.2424927
1493782600583	-1.3331604	-8.477875	-3.9842834
1493782600583	-0.8574066	-10.933365	-7.0841064
1493782600583	0.48188782	-12.930435	-8.918823
1493782600583	0.85124207	-13.279968	-8.976486
1493782600583	0.7447052	-11.94722	-7.460434
1493782600583	0.053710938	-10.4843445	-5.6190643
1493782600583	-1.3717957	-8.42218	-5.607483
1493782600583	-2.2391205	-7.3729095	-3.242096
1493782600583	-5.516876	-11.522446	-0.3180542
1493782600583	-6.637253	-16.060165	-0.1031189
1493782600584	-4.1127777	-16.72792	-1.696106
1493782600584	1.0451355	-10.757538	-0.7989197
1493782600584	1.0075226	-7.0101776	5.917267
1493782600584	-0.34275818	-5.216812	9.049454
1493782600584	-2.370636	-6.8657227	6.1483
1493782600584	-3.2017822	-10.651718	1.904602
1493782600584	1.5407867	-12.316513	3.250412
1493782600584	6.388214	-12.559525	2.0502777
1493782600584	4.3976593	-11.421341	0.21430969
1493782600584	0.37748718	-9.953384	-1.2157593
1493782600584	-1.6533508	-8.7643585	-1.8057098
1493782600584	-1.5829773	-8.985062	-1.1751251
1493782600584	0.20457458	-9.937958	-0.41893005
1493782600584	2.7430725	-10.445969	-0.33494568
1493782600584	3.9447174	-10.200882	-0.23474121
1493782600584	2.3841248	-9.913055	-0.25071716
1493782600584	0.22018433	-9.771881	0.3568573
1493782600584	-0.6010132	-9.533249	1.141861
1493782600584	-0.7310333	-9.594727	1.0019379
1493782600584	-0.279068	-9.565201	0.7080231
1493782600584	0.11277771	-9.706833	0.1778717
1493782600584	-0.00680542	-9.680618	0.019363403
1493782600584	-0.17732239	-9.728668	-0.28527832
1493782600584	0.054733276	-9.944077	-0.18621826
1493782600584	0.7387085	-9.828796	-0.28701782
1493782600584	1.502533	-9.568008	-0.49884033
1493782600584	2.1001892	-9.875275	-0.431427
1493782600584	2.5110474	-10.431473	-0.016067505
1493782600585	2.6038513	-10.451645	0.33580017
1493782600585	1.9468079	-10.341583	0.122161865
1493782600585	0.51249695	-10.389374	-1.6399078
1493782600585	-0.43920898	-10.075958	-3.8146667
1493782600585	-0.039611816	-10.540283	-4.6268005
1493782600585	1.7782135	-11.865356	-4.1354675
1493782600585	3.2187042	-12.134491	-2.7991486
1493782600585	1.4972382	-10.998779	-1.8632813
1493782600585	-2.292633	-11.0316925	-1.5994415
1493782600585	-4.5412445	-13.603439	0.43688965
1493782600585	-5.181778	-15.707748	2.3424072
1493782600585	-0.997406	-14.442627	3.4315186
1493782600585	3.7720642	-12.324341	1.7896271
1493782600585	4.894638	-11.723938	-1.749939
1493782600585	2.7580566	-12.221802	-2.957428
1493782600585	-1.0602417	-12.062134	-1.0813141
1493782600585	-3.1044464	-10.62056	0.2578125
1493782600585	-2.8762207	-8.631348	0.10557556
1493782600585	-1.5522461	-6.6544495	0.8692627
1493782600585	-1.2413635	-5.452652	1.7845917
1493782600585	-2.0796967	-4.997589	1.8629303
1493782600585	-2.6519012	-5.1313477	1.5188599
1493782600585	-2.5846558	-5.062973	1.0484467
1493782600585	-2.6322632	-4.9396057	0.25881958
1493782600585	-2.5874634	-5.222336	-0.795578
1493782600585	-2.064911	-6.2019653	-2.1748352
1493782600585	-1.542038	-7.311249	-3.4532318
1493782600586	-1.2722015	-8.378723	-4.4150085
1493782600586	-1.243454	-10.268738	-6.9062805
1493782600586	-0.07354736	-11.66951	-9.068375
1493782600586	0.48109436	-12.342911	-9.065628
1493782600586	-0.21502686	-12.275009	-8.3042755
1493782600586	-1.6447754	-11.420914	-6.849762
1493782600586	-2.882187	-9.982315	-5.5318146
1493782600586	-2.8372192	-8.472092	-4.647766
1493782600586	-2.5746918	-8.133179	-2.9977264
1493782600586	-4.6915436	-10.648605	-0.4532013
1493782600586	-5.901535	-12.060089	0.2086029
1493782600586	-6.011627	-11.41275	0.14303589
1493782600586	-3.9481049	-9.914169	0.26148987
1493782600586	-0.7786255	-8.226959	4.714264
1493782600586	1.0945587	-7.546295	7.1074066
1493782600586	1.0949097	-9.132187	3.813263
1493782600586	2.727478	-12.19696	0.34428406
1493782600586	5.718094	-12.214661	-0.08459473
1493782600586	6.0451508	-10.402206	-0.04650879
1493782600586	2.6459503	-9.096619	0.22451782
1493782600586	-0.8903351	-8.4785	0.32252502
1493782600586	-2.7598114	-8.709579	-0.25419617
1493782600586	-2.7406616	-9.43335	-0.10131836
1493782600586	-2.2454224	-9.845657	-0.31495667
1493782600587	-0.95617676	-9.980072	-1.6408081
1493782600587	0.7117462	-10.0607605	-1.1742859
1493782600587	1.5240936	-9.987274	-0.28486633
1493782600587	1.1345215	-9.459091	1.0991211
1493782600587	0.34457397	-9.110199	1.636383
1493782600587	-0.277771	-9.435135	1.2160492
1493782600587	-0.52485657	-10.135422	0.60647583
1493782600587	0.13571167	-10.625946	-0.21473694
1493782600587	0.9611206	-10.544937	-1.500946
1493782600587	1.4802246	-10.666733	-2.4423676
1493782600587	1.7628632	-11.126083	-2.3930664
1493782600587	2.1831665	-11.235138	-2.2960052
1493782600587	2.9956818	-10.932114	-1.3238068
1493782600587	2.981369	-10.994583	-0.5153351
1493782600587	1.7962494	-12.2990265	-1.6894379
1493782600587	1.6844177	-13.402008	-3.1481934
1493782600587	3.6554718	-13.592728	-3.4682312
1493782600587	3.0352173	-12.1874695	-1.4442444
1493782600587	-1.6047058	-11.258957	-1.0327148
1493782600587	-6.413452	-12.534897	7.4768066E-4
1493782600587	-8.186371	-15.145889	2.8435974
1493782600587	-6.5515137	-15.1484375	2.8765411
1493782600587	-3.508789	-13.283096	0.81752014
1493782600587	-0.9423065	-11.9254	-0.43804932
1493782600587	1.9530792	-11.013962	1.7462463
1493782600587	2.9582367	-10.521164	0.9212494
1493782600587	1.8636322	-9.867371	0.6962433
1493782600587	-0.41036987	-8.85881	0.39787292
1493782600588	-1.3657379	-7.1824036	0.9805298
1493782600588	-1.5726624	-5.849121	1.1127014
1493782600588	-1.4741211	-5.0803833	1.8018494
1493782600588	-1.5615082	-4.5948334	2.3744812
1493782600600	-1.8858948	-4.5990906	2.3447113
1493782600619	-2.0925446	-4.338928	1.2991791
1493782600659	-2.0618439	-4.4455566	-0.02420044
1493782600679	-2.0864716	-5.1575317	-1.4310608
1493782600699	-2.2409515	-7.0956573	-2.7527618
1493782600719	-2.8556213	-10.561722	-7.652054
1493782600739	-2.2463684	-14.857956	-10.265793
1493782600758	-1.3336945	-15.439255	-10.996155
1493782600778	-1.9390564	-11.8103485	-8.422089
1493782600798	-2.2513123	-9.665512	-4.9809723
1493782600818	-2.5344696	-8.913269	-4.3799133
1493782600837	-2.7962189	-6.8189697	-5.1122894
1493782600857	-2.286621	-5.018997	-4.7269897
1493782600877	-2.3726501	-5.8352356	-3.3778229
1493782600897	-5.587021	-10.631851	0.5164795
1493782600917	-6.2322235	-16.135773	2.7614594
1493782600936	-4.2925873	-17.000702	0.39227295
1493782600956	-0.9493103	-14.00061	-1.6916351
1493782600976	0.7078247	-8.150696	3.2699127
1493782600996	-0.46168518	-5.116989	7.5937805
1493782601015	-0.20266724	-6.218918	7.2846985
1493782601035	0.9195404	-10.36467	4.833664
1493782601055	3.8163147	-13.5455475	1.7379456
1493782601074	6.1550446	-12.367508	-0.30264282
1493782601095	4.3928833	-10.599899	-1.9179382
1493782601114	0.32192993	-9.041519	-2.1079254
1493782601134	-1.969574	-8.303192	-1.1322784
1493782601154	-2.8418121	-8.597977	0.09524536
1493782601173	-2.1349487	-9.6073	0.010681152
1493782601193	-0.20492554	-10.298874	-0.76104736
1493782601213	1.7555847	-10.105881	-0.57203674
1493782601233	2.3032837	-9.476013	-0.28089905
1493782601253	1.6981201	-8.941711	0.2850952
1493782601272	0.7003937	-9.00267	0.7293701
1493782601293	0.14193726	-9.319946	0.56718445
1493782601313	0.18927002	-9.5420685	0.1590271
1493782616300	0.2949829	-9.789841	-0.27885437
1493782616300	0.31863403	-10.026474	-0.8542938
1493782616300	0.42947388	-10.380707	-1.123764
1493782616300	0.61756897	-11.1020355	-1.3419647
1493782616300	1.6155853	-11.580719	-1.6625061
1493782616300	2.7938385	-11.4591675	-0.6973114
1493782616300	3.0543518	-11.367554	0.17178345
1493782616300	2.0285034	-11.433655	-1.3123779
1493782616300	1.4058685	-10.645187	-3.2072144
1493782616300	2.7354279	-11.698624	-4.0986633
1493782616300	4.1559296	-12.176163	-3.3710938
1493782616300	5.2614136	-12.501297	-1.2547607
1493782616300	3.9913483	-11.881592	-0.20098877
1493782616301	-1.9277954	-12.546127	0.71684265
1493782616301	-7.7173615	-15.521042	2.5242004
1493782616301	-8.848022	-17.377258	3.681839
1493782616301	-6.3099976	-15.706375	0.88508606
1493782616301	-3.4419098	-13.7816925	-1.3134918
1493782616301	0.26438904	-11.809006	0.95680237
1493782616301	4.4609528	-10.311615	0.26957703
1493782616301	4.893997	-10.09346	1.1993408
1493782616301	2.5332947	-9.455734	0.7924652
1493782616301	-0.02331543	-7.8041687	1.7002106
1493782616301	-1.7443237	-6.0132904	1.6257782
1493782616301	-2.0991516	-4.4805756	2.84729
1493782616301	-2.3864899	-3.8518677	2.8206482
1493782616301	-2.2697296	-3.69635	3.0144348
1493782616301	-2.1233673	-3.6770935	2.5374908
1493782616301	-2.1553955	-4.1172943	0.34352112
1493782616301	-2.2796478	-5.2532806	-1.2924957
1493782616301	-2.5624542	-6.9286194	-2.4326782
1493782616301	-3.2569427	-9.560608	-5.2640686
1493782616301	-2.7424622	-13.48494	-9.401657
1493782616301	-0.80558777	-16.0578	-12.835373
1493782616301	-0.78964233	-14.287384	-10.352173
1493782616301	-1.0709381	-10.956375	-6.536728
1493782616301	-1.524353	-8.378296	-4.4522705
1493782616301	-2.7649536	-6.4054565	-5.2282715
1493782616302	-3.4133606	-6.6163177	-5.2533875
1493782616302	-5.109619	-11.120728	-2.5695953
1493782616302	-6.307144	-15.389862	-0.09101868
1493782616302	-4.2914886	-14.946915	0.72198486
1493782616302	-0.7196808	-10.045242	1.7222748
1493782616302	0.17562866	-6.322708	5.2208405
1493782616302	-0.026992798	-6.185913	6.448639
1493782616302	0.35188293	-8.860123	4.860962
1493782616302	2.2280884	-12.117081	1.8521729
1493782616302	5.307205	-13.596695	-0.44718933
1493782616302	5.68544	-12.565659	-1.1036987
1493782616302	3.0276947	-10.2951355	-1.0608826
1493782616303	0.107803345	-9.131699	-1.4035339
1493782616303	-2.0876923	-8.489105	-0.7348175
1493782616304	-3.3228455	-8.154053	0.5304718
1493782616304	-3.5175781	-8.889114	0.18661499
1493782616304	-2.396347	-9.864258	-0.6327667
1493782616304	-0.15609741	-9.908722	-0.58143616
1493782616305	1.2696991	-9.669998	-0.45785522
1493782616305	1.5122833	-9.427307	-0.4858551
1493782616305	1.2404022	-9.139648	-0.4481659
1493782616305	1.132782	-9.027542	-0.43545532
1493782616305	1.271637	-9.530029	-0.4432068
1493782616305	1.4417114	-9.970306	-0.9648895
1493782616305	1.2060089	-9.854767	-2.2705078
1493782616305	0.7556915	-10.190201	-2.8435974
1493782616305	0.8891754	-10.774414	-2.1590729
1493782616305	1.4171753	-11.06749	-1.8371582
1493782616305	1.4672699	-10.977982	-2.4026642
1493782616305	1.1203613	-10.5594635	-2.857895
1493782616305	1.2264862	-10.324692	-3.0299377
1493782616305	1.9780579	-10.307266	-4.2008667
1493782616305	3.3601837	-9.807175	-4.117676
1493782616305	5.8299866	-12.257645	-1.8255157
1493782616306	5.738266	-15.212997	0.42807007
1493782616306	-1.378418	-15.287582	2.1834717
1493782616306	-7.068268	-15.706192	5.1840363
1493782616306	-7.5977783	-15.966614	3.8140717
1493782616306	-4.04747	-14.023331	2.3568268
1493782616306	0.33737183	-11.427124	0.9586487
1493782616306	4.201767	-10.529953	-0.3182068
1493782616306	3.9249878	-10.789047	1.000061
1493782616306	2.022049	-10.964661	1.2585449
1493782616306	-1.2246246	-10.143494	1.2860107
1493782616306	-1.9015808	-8.557343	2.1321716
1493782616306	-1.6586304	-6.7233887	2.5936737
1493782616306	-1.1932983	-5.458069	3.0735168
1493782616306	-0.8575134	-4.5637817	3.2115479
1493782616306	-0.78874207	-5.0414886	2.692276
1493782616306	-1.2749481	-6.5212097	1.2216187
1493782616306	-1.2373047	-7.613739	0.9559326
1493782616306	-0.22172546	-9.047226	1.4666443
1493782616306	1.1242981	-11.0924835	-0.5853729
1493782616306	0.22821045	-12.044571	-4.5068817
1493782616306	-1.8239441	-10.635468	-6.120636
1493782616306	-3.3472443	-8.838715	-0.17170715
1493782616306	-5.1795654	-8.807114	4.4556427
1493782616306	-5.433029	-10.707672	3.3820648
1493782616306	-5.7660522	-12.593292	1.7076263
1493782616306	-4.232544	-13.346863	1.0125732
1493782616306	0.74980164	-14.551804	-0.6966858
1493782616307	5.761963	-14.907761	-3.1382446
1493782616307	5.839081	-12.311203	-3.9053955
1493782616307	3.0644073	-9.36705	-1.6174011
1493782616307	1.2152405	-8.396301	1.7846832
1493782616307	0.022277832	-8.654709	2.931305
1493782616307	-0.86413574	-9.053192	1.0677948
1493782616307	-0.8658447	-9.021851	-0.7016144
1493782616307	-0.77030945	-8.852951	-1.289566
1493782616307	-1.0527954	-8.682159	-0.9831848
1493782616307	-1.0971832	-8.625351	-0.5405731
1493782616307	-1.0499268	-8.888794	-0.15734863
1493782616307	-1.2103882	-9.26619	0.4965973
1493782616307	-1.170227	-9.541565	0.6990509
1493782616307	-0.39579773	-9.962311	0.478302
1493782616307	0.93666077	-10.477936	0.45941162
1493782616307	1.817215	-10.605423	0.88461304
1493782616307	1.7403717	-10.516556	1.3956451
1493782616307	1.6245422	-10.543579	2.0671692
1493782616307	1.6206055	-10.708008	1.8635712
1493782616307	1.5636597	-11.448532	0.99542236
1493782616307	0.88726807	-11.59758	0.15196228
1493782616307	0.45404053	-10.922226	-0.25283813
1493782616307	0.48077393	-10.505859	-0.99287415
1493782616307	0.6977234	-10.363312	-2.0847778
1493782616307	1.4731445	-10.639984	-2.3398132
1493782616307	0.5182953	-11.893997	-3.0768738
1493782616308	0.2865448	-13.123505	-3.4677277
1493782616308	0.35749817	-12.009155	-3.194046
1493782616308	0.0022583008	-10.263046	-2.259201
1493782616308	-0.44674683	-10.467941	-0.8549957
1493782616308	-2.0890808	-12.907761	-0.10116577
1493782616308	-1.7540894	-14.065369	-0.285614
1493782616308	-1.4684143	-13.36058	0.5302429
1493782616308	-1.0715637	-11.698807	1.4293976
1493782616308	-1.3934021	-10.68602	2.8937836
1493782616308	-0.8204498	-10.991852	3.6090088
1493782616308	0.43492126	-11.219711	1.5775146
1493782616308	0.5666504	-10.945496	-1.3969269
1493782616308	0.02961731	-10.042862	-1.7511139
1493782616308	-0.684845	-8.914383	-0.019821167
1493782616308	-1.3994904	-7.3198395	1.411087
1493782616308	-2.5163574	-6.348877	1.6585388
1493782616308	-2.687851	-5.742813	1.6399078
1493782616308	-2.7458038	-5.569519	1.3060303
1493782616308	-2.861847	-5.548477	0.19206238
1493782616308	-2.8769684	-5.8004913	-1.2316437
1493782616308	-2.9548492	-6.1375275	-3.3080292
1493782616308	-3.1904602	-7.3942566	-6.007675
1493782616309	-2.9069824	-9.203873	-7.3759613
1493782616309	-2.8560638	-10.319794	-7.150467
1493782616309	-3.2438507	-10.35202	-6.9474487
1493782616309	-3.292923	-9.210175	-6.7335815
1493782616309	-3.6555634	-8.0707855	-6.1957703
1493782616309	-4.5299835	-6.4141846	-4.3813934
1493782616309	-4.2569275	-3.9611053	-0.82995605
1493782616309	-7.3660583	-7.5102234	-1.9706573
1493782616309	-9.481995	-16.15306	-6.50914
1493782616309	-2.1046143	-17.815125	0.044647217
1493782616309	2.858139	-9.434387	7.778778
1493782616309	0.47465515	-3.2843933	7.188675
1493782616309	-2.4014282	-5.84523	6.0147095
1493782616309	-2.6333618	-10.880676	4.127777
1493782616309	0.8464813	-14.175919	1.3214417
1493782616309	5.9776764	-15.13266	0.13842773
1493782616310	6.1737976	-12.404907	0.22457886
1493782616310	2.70253	-9.219635	-0.14936829
1493782616310	-1.9028168	-7.626068	-1.4303741
1493782616310	-4.452667	-7.519348	-1.8211823
1493782616310	-4.6148987	-8.165543	-2.179779
1493782616310	-2.475586	-9.085785	-1.6529694
1493782616310	0.3640747	-9.976074	-0.9611664
1493782616310	2.6559143	-9.720673	-0.7598419
1493782616310	2.789917	-9.155777	-1.0700073
1493782616310	1.4116821	-8.983612	-0.71409607
1493782616310	0.13212585	-9.143188	-0.024917603
1493782616310	-0.18823242	-9.233978	0.78556824
1493782616310	0.05935669	-9.254669	1.0491486
1493782616310	-0.1164093	-9.443512	0.3101349
1493782616310	-0.31228638	-10.024567	-0.11289978
1493782616310	-0.59085083	-10.586395	0.2654419
1493782616310	-0.27604675	-10.983475	0.09828186
1493782616310	0.3575592	-11.549225	-0.4173584
1493782616310	1.4450073	-11.822235	-0.3405609
1493782616310	2.3693542	-12.345551	-0.5801544
1493782616310	3.2966156	-12.313797	-1.0558777
1493782616310	4.081131	-12.234924	-2.0706177
1493782616310	4.505951	-12.754868	-2.7937622
1493782616310	5.3780518	-12.283997	-3.651596
1493782616310	5.774704	-11.81044	-3.8173523
1493782616310	4.2788696	-10.718216	-1.7395935
1493782616310	0.22299194	-10.950287	-1.6674957
1493782616311	-4.1377563	-13.036636	0.2731781
1493782616311	-6.8588104	-17.150208	2.6646118
1493782616311	-8.265671	-19.03975	4.405136
1493782616311	-6.9674377	-16.3555	2.0640259
1493782616311	-4.5886383	-13.109879	1.0112152
1493782616311	-0.74642944	-11.151108	0.3809967
1493782616311	3.7363129	-11.746353	-3.1335907
1493782616311	3.5555267	-12.027466	-2.539917
1493782616311	1.3425446	-11.387665	-0.57476807
1493782616311	-1.326004	-9.382034	0.23731995
1493782616311	-2.288742	-6.2228394	2.062851
1493782616311	-3.5801086	-3.3786774	2.6582794
1493782616311	-4.614624	-1.8008575	2.8300323
1493782616311	-4.4492493	-1.3269348	2.666031
1493782616311	-3.269699	-1.7534637	1.6351013
1493782616311	-1.5423279	-2.7997284	0.43589783
1493782616311	-0.26635742	-3.8760376	-1.3947449
1493782616311	0.14682007	-5.426193	-3.8144379
1493782616311	0.1640625	-7.3230286	-5.8346252
1493782616311	0.41307068	-9.054016	-7.1614227
1493782616311	0.75805664	-10.387482	-7.9555206
1493782616311	-0.07940674	-11.463501	-7.6765594
1493782616311	-1.8303223	-12.38446	-7.4653015
1493782616311	-3.160904	-12.820267	-7.6707306
1493782616311	-4.022522	-11.5392	-6.9206085
1493782616311	-4.3988495	-9.101364	-6.113205
1493782616311	-4.778656	-8.8880005	-4.4445496
1493782616312	-6.7803345	-11.96608	-3.2006073
1493782616312	-7.306061	-15.580322	-3.9532928
1493782616312	-2.6058044	-14.2603	-2.7239532
1493782616312	3.5753632	-10.231354	2.9509277
1493782616312	3.3899536	-6.72139	7.46109
1493782616312	0.594574	-6.023056	7.9733734
1493782616312	-0.9990845	-8.214081	4.413681
1493782616312	0.76013184	-11.623962	1.0941162
1493782616312	3.0286407	-13.341248	-0.7687683
1493782616312	4.477539	-12.557007	-0.20533752
1493782616312	4.0390472	-10.995789	-0.07862854
1493782616312	1.4227295	-9.278931	0.24873352
1493782616312	-0.88243103	-8.215408	-0.019897461
1493782616312	-2.150528	-8.195999	-0.47117615
1493782616312	-2.494278	-9.336655	-1.3105774
1493782616312	-1.101059	-9.822006	0.038345337
1493782616312	-0.40402222	-9.65416	0.08370972
1493782616312	0.45018005	-9.442291	0.07015991
1493782616312	1.2466278	-9.2699585	-0.045013428
1493782616312	1.0176849	-9.21373	0.8987427
1493782616312	0.22157288	-9.057297	0.7818146
1493782616312	-0.17564392	-9.360474	-0.21177673
1493782616312	0.292984	-9.870529	-1.4328156
1493782616312	1.0757599	-10.238068	-1.0993805
1493782616312	1.1418915	-10.70018	-0.81755066
1493782616312	1.0668488	-11.047592	-0.9538269
1493782616313	1.5940399	-10.984985	-1.1606445
1493782616313	2.805359	-11.113937	-0.4100647
1493782616313	3.321869	-11.480728	0.3334198
1493782616313	2.114441	-11.875717	-0.6110687
1493782616313	0.93029785	-12.671539	-2.473648
1493782616313	2.6781769	-12.881348	-2.6725311
1493782616313	5.0371094	-11.430115	-2.2745361
1493782616313	3.2016296	-11.757355	-2.3183746
1493782616313	-1.2833405	-10.828613	-1.6850281
1493782616313	-4.8748474	-12.346161	0.50445557
1493782616313	-6.8313446	-15.701736	3.615448
1493782616313	-6.925995	-17.046265	4.280609
1493782616313	-5.536255	-14.891922	1.1786041
1493782616313	-4.117935	-12.460037	-1.1572571
1493782616313	-1.4808807	-11.044357	-0.51223755
1493782616313	2.1597137	-10.297989	1.4895935
1493782616313	3.1399689	-9.774017	0.87857056
1493782616313	1.8555603	-8.624084	0.333786
1493782616313	0.43707275	-7.100937	0.9530182
1493782616313	-1.0286102	-5.6682587	1.7750244
1493782616313	-1.6793671	-4.484604	2.2602692
1493782616313	-1.3535461	-3.834137	2.5037537
1493782616313	-1.2279663	-3.7340088	2.3120575
1493782616313	-1.5247345	-4.034149	1.4151917
1493782616313	-1.9233398	-4.657074	-0.43685913
1493782616313	-2.140503	-5.732025	-2.328537
1493782616313	-2.1567383	-7.4958954	-4.254318
1493782616314	-2.9405365	-10.733368	-7.2134857
1493782616314	-2.2786255	-14.449356	-11.2790985
1493782616314	-1.3987732	-15.193634	-12.095383
1493782616314	-1.384079	-12.967651	-8.677765
1493782616314	-1.1277618	-10.29689	-4.9858856
1493782616314	-1.4388428	-6.6531525	-4.941803
1493782616314	-2.038208	-3.8134308	-4.7650757
1493782616314	-2.7940369	-3.6436157	-4.924057
1493782616314	-6.43454	-9.04924	-2.102066
1493782616314	-8.245987	-17.39412	-0.39027405
1493782616314	-5.332794	-19.439575	-2.1658783
1493782616314	2.5302887	-13.59935	2.0469818
1493782616314	1.2724609	-6.355667	7.5998535
1493782616314	-1.4047546	-4.6690063	9.389999
1493782616314	-1.7044525	-7.093979	6.051483
1493782616314	-0.27212524	-12.158417	2.8144073
1493782616314	4.4967194	-14.099716	0.77282715
1493782616314	6.894623	-14.090042	-1.0002289
1493782616314	5.166687	-10.803604	-1.7317352
1493782616314	1.3420868	-9.194214	-2.3748474
1493782616314	-2.2416534	-8.367554	-1.8504486
1493782616314	-2.7456665	-7.914261	-1.2853546
1493782616314	-3.255539	-8.504349	-0.23901367
1493782616314	-2.4199219	-9.13356	-1.6958618
1493782616314	-0.22042847	-9.50621	-1.0522308
1493782616314	1.3413239	-9.153351	-0.3806305
1493782616314	1.3789673	-8.523392	0.5449524
1493782616315	0.3477173	-8.714661	0.8703613
1493782616315	-0.4305725	-9.360718	1.1389008
1493782616315	-0.1661377	-10.058273	0.8816986
1493782616315	0.5396881	-10.622787	-0.13328552
1493782616315	1.0847015	-10.687347	-1.6318817
1493782616315	0.6043396	-10.857178	-2.641632
1493782616315	-0.3631897	-11.293335	-2.5603485
1493782616315	0.35203552	-11.456741	-1.4844971
1493782616315	2.1060638	-11.5372925	-0.45439148
1493782616315	3.256363	-11.292633	0.024032593
1493782616315	3.3407745	-10.848267	-0.4408722
1493782616315	2.7913055	-10.728867	-2.0403748
1493782616315	2.6690216	-11.533859	-3.1884308
1493782616315	3.3133392	-12.391617	-3.7167816
1493782616315	3.9096832	-12.461761	-2.8589783
1493782616315	3.246704	-11.771057	-0.88526917
1493782616315	-0.17466736	-10.799789	-0.3179016
1493782616315	-4.60289	-12.704605	0.99902344
1493782616315	-6.6192017	-16.387192	3.036209
1493782616315	-5.944214	-17.44542	3.142273
1493782616315	-3.780426	-15.042816	1.2773743
1493782616315	-0.09664917	-12.514709	0.17407227
1493782616315	4.012253	-11.3437195	-1.0086517
1493782616315	4.7416077	-10.834457	-0.9131317
1493782616315	2.4092865	-10.146896	0.074905396
1493782616315	-0.056625366	-8.930801	1.5034637
1493782616316	-1.5478516	-7.6128845	2.3471527
1493782616316	-2.1707916	-6.5570984	2.6286163
1493782616316	-2.4440002	-5.746109	2.7008057
1493782616316	-2.4147797	-5.191818	2.3271942
1493782616316	-2.4668732	-4.782089	1.8527985
1493782616316	-2.2547913	-4.357788	1.2131805
1493782616316	-2.2289886	-4.3721313	0.23867798
1493782616316	-2.4537354	-5.480789	-1.4401855
1493782616316	-2.1890259	-7.1349792	-3.1252594
1493782616316	-2.1802368	-9.675278	-6.415497
1493782616316	-2.1522827	-12.067871	-8.340195
1493782616316	-1.658783	-12.397949	-8.339401
1493782616316	-1.56427	-10.772903	-7.1909943
1493782616316	-1.5869598	-9.810669	-5.790756
1493782616316	-1.8910217	-9.655579	-4.834915
1493782616316	-2.618225	-8.923676	-4.720352
1493782616316	-3.2654114	-7.6605988	-5.1075745
1493782616316	-3.4974976	-6.927017	-4.7306976
1493782616316	-5.4904633	-6.8054504	-0.33387756
1493782616316	-9.45668	-13.009933	-0.9712372
1493782616316	-9.458298	-19.257874	-5.738632
1493782616316	-0.6194	-18.258057	-3.0666962
1493782616316	4.484131	-8.093155	6.407425
1493782616316	1.6842499	-4.1675873	8.810287
1493782616316	-0.24124146	-4.662079	7.8354187
1493782616316	-0.85894775	-7.3874664	3.9801788
1493782616317	0.14515686	-11.320847	1.5761871
1493782616317	3.0645142	-13.706009	0.12658691
1493782616317	6.59581	-13.279724	-0.58395386
1493782616317	4.6996613	-10.880615	-2.506256
1493782616317	0.6339264	-9.255981	-2.2151642
1493782616317	-1.3450623	-8.092773	-1.7382813
1493782616317	-2.0984192	-8.526794	-0.1295166
1493782616317	-1.7700806	-9.340042	-0.110580444
1493782616317	-0.9474182	-9.627563	-0.10028076
1493782616317	-0.33691406	-9.6861725	-0.90927124
1493782616317	0.1426239	-9.594971	-1.0265503
1493782616317	0.35684204	-9.259811	-0.5231018
1493782616317	0.34773254	-9.066528	0.3203125
1493782616317	-0.20422363	-9.205429	1.1552582
1493782616317	-0.09906006	-9.605377	1.5949554
1493782616317	-0.043136597	-10.025726	1.3994598
1493782616317	-0.49609375	-9.989471	0.7996216
1493782616317	-1.0054321	-9.903275	-0.26203918
1493782616317	-1.24263	-10.450714	-1.0018768
1493782616317	-0.5093231	-11.061935	-1.5570221
1493782616317	1.0749359	-11.4010315	-1.4082031
1493782616317	2.5960846	-11.493118	-0.11099243
1493782616317	3.06958	-11.817902	0.41918945
1493782616317	1.8011475	-11.948883	-0.6407623
1493782616317	-0.43144226	-11.556534	-2.7421265
1493782616317	0.34469604	-11.796219	-3.8594208
1493782616317	3.5920715	-11.586166	-3.74263
1493782616317	5.2698364	-11.316864	-3.0050507
1493782616318	5.006531	-11.099716	-1.3096161
1493782616318	1.7327576	-10.619705	0.17094421
1493782616318	-3.2283783	-11.836945	1.0324402
1493782616318	-6.403778	-14.488663	2.8199463
1493782616318	-5.889618	-15.159576	3.0173492
1493782616318	-3.035675	-14.095703	2.1151733
1493782616318	-1.3815308	-13.295486	1.5535583
1493782616318	0.9287262	-12.314987	-0.06565857
1493782616318	3.6369934	-11.400101	-0.21543884
1493782616318	2.8558655	-11.061569	-0.24397278
1493782616318	0.75779724	-10.169479	0.18392944
1493782616318	-0.3111725	-8.384933	0.86727905
1493782616318	-0.9503021	-6.489807	1.8151855
1493782616318	-1.3983917	-5.137726	2.9026337
1493782616319	-1.9477692	-4.36615	3.152832
1493782616319	-2.3802795	-4.318405	2.8822784
1493782616319	-3.2991943	-4.527893	1.7320251
1493782616319	-2.7161102	-4.8214417	0.5018158
1493782616319	-2.271347	-5.307892	-0.693573
1493782616319	-1.9988098	-6.3861084	-2.4188232
1493782616319	-1.7325592	-8.238327	-4.453644
1493782616319	-1.810379	-10.998871	-6.6733704
1493782616319	-1.2492523	-13.2673645	-9.175446
1493782616319	-1.7978363	-13.446671	-9.922531
1493782616320	-2.1918793	-13.094513	-8.917374
1493782616320	-1.7117462	-12.369598	-6.0729065
1493782616320	-2.6048126	-9.040619	-5.641281
1493782616320	-3.6539917	-5.575165	-5.68277
1493782616320	-3.381134	-4.3885345	-5.5122223
1493782616320	-4.035843	-9.520767	-5.3540955
1493782616320	-4.795639	-16.924133	-1.4884949
1493782616320	-1.8114319	-15.995407	3.7547302
1493782616320	-1.2331848	-11.423874	1.1204529
1493782616320	-2.0984192	-6.5232697	3.4524078
1493782616320	-3.376831	-4.6654816	5.1916656
1493782616320	-2.450241	-5.9163513	5.557434
1493782616320	-0.21951294	-9.477264	4.4907227
1493782616320	2.6248627	-13.802734	1.405716
1493782616320	6.8342896	-14.449265	-1.0502472
1493782616320	7.225479	-12.350555	-2.313568
1493782616320	3.0950928	-9.733566	-2.4594574
1493782616320	0.18411255	-8.387299	-0.84799194
1493782616320	-1.7743835	-8.336624	0.44841003
1493782616320	-2.647812	-8.830032	0.22579956
1493782616320	-2.8528748	-9.526886	-0.35630798
1493782616320	-2.0353394	-9.840149	-0.086380005
1493782616321	-0.3408661	-9.680634	0.46722412
1493782616321	0.787323	-9.21907	0.9698944
1493782616321	0.55067444	-8.764542	1.2074432
1493782616321	-0.03767395	-8.787323	1.2441101
1493782616321	-0.21109009	-9.312271	1.0091705
1493782616321	-0.026794434	-9.854538	0.44221497
1493782616321	0.25730896	-9.921387	-0.45266724
1493782616321	0.3874054	-9.992157	-0.96765137
1493782616321	0.57899475	-10.623856	-1.1545105
1493782616321	1.0380249	-11.357285	-1.2708588
1493782616321	1.783905	-11.38147	-1.0654144
1493782616321	2.8757935	-11.419479	0.23716736
1493782616321	3.0759888	-11.863312	-0.08604431
1493782616321	3.0631104	-12.546097	-1.5636902
1493782616321	3.7315674	-12.847717	-2.0325928
1493782616321	3.8954926	-12.54155	-2.7027588
1493782616321	2.7056732	-12.525345	-2.8237457
1493782616321	-0.21243286	-11.117523	-2.2620544
1493782616321	-2.848877	-11.220108	-0.71165466
1493782616321	-5.137375	-13.336334	2.25029
1493782616321	-6.783066	-15.874298	3.8993378
1493782616321	-6.7642365	-16.546982	2.247696
1493782616321	-5.402252	-14.605331	-0.31446838
1493782616321	-3.4163055	-13.022263	-1.5034637
1493782616321	-0.2571106	-11.559921	0.51864624
1493782616321	3.7728577	-10.232864	0.48440552
1493782616321	4.674835	-9.829666	0.30480957
1493782616321	2.6151123	-8.612793	-0.12471008
1493782616321	0.54893494	-7.1531982	1.4701996
1493782616322	-1.970871	-5.9908295	2.2601776
1493782616322	-2.8572693	-5.4740143	2.2326508
1493782616322	-2.2576294	-4.095215	2.6922455
1493782616322	-2.0782623	-3.665268	1.9772339
1493782616322	-2.152771	-3.7659912	1.0309753
1493782616322	-2.47258	-4.2255554	-0.87228394
1493782616322	-2.5496368	-5.511383	-2.72081
1493782616322	-2.9069977	-7.7892	-4.8126526
1493782616322	-3.314331	-10.158646	-6.322891
1493782616322	-2.7762756	-12.051239	-7.968521
1493782616322	-2.1088257	-11.553009	-7.775131
1493782616322	-2.028534	-9.969086	-7.1366577
1493782616322	-1.7444916	-9.490067	-6.073456
1493782616322	-1.5522461	-9.119522	-5.6146545
1493782616322	-2.5805206	-8.165512	-5.636383
1493782616322	-4.227997	-8.043274	-6.5869904
1493782616322	-6.374771	-11.261093	-5.6218414
1493782616322	-7.9701233	-16.69806	-3.991211
1493782616322	-4.700943	-16.574753	-0.59580994
1493782616322	0.3464508	-9.90419	6.2397003
1493782616322	0.75053406	-4.811264	9.160263
1493782616322	-0.15444946	-5.827545	7.9131927
1493782616322	0.91734314	-9.684219	5.309799
1493782616322	3.174469	-14.0108795	1.90979
1493782616322	6.1180115	-15.129822	-0.8317566
1493782616322	6.454834	-13.114838	-1.1351776
1493782616322	3.3042145	-10.2211	-0.8796692
1493782616322	-0.9483948	-8.6466675	-1.3991547
1493782616322	-3.7825623	-8.754822	-1.4916077
1493782616322	-3.7825775	-9.380783	-1.7393341
1493782616322	-1.3683472	-9.9531555	-1.3569794
1493782616322	1.6737823	-10.606186	-0.2059021
1493782616322	3.007019	-10.401779	-0.40759277
1493782616322	1.8265533	-9.5634	-1.7357483
1493782616322	0.8834839	-8.889175	-1.1390381
1493782616322	0.46437073	-8.127563	0.49389648
1493782616322	0.06976318	-8.206985	0.98365784
1493782616322	-0.13578796	-8.320663	0.8095856
1493782616322	0.14247131	-8.093018	0.8108368
1493782616322	0.28466797	-7.8632813	0.44750977
1493782616322	0.08427429	-7.761368	0.28259277
1493782616323	-0.09741211	-8.315964	0.19670105
1493782616323	-0.041641235	-9.801544	-0.0038604736
1493782616323	0.19152832	-11.314026	-0.12792969
1493782616323	0.73143005	-11.291122	-0.42436218
1493782616323	1.1065216	-10.557312	-0.56944275
1493782616323	1.2747192	-10.4166565	0.01914978
1493782616323	1.5435028	-10.46434	1.2669067
1493782616323	1.4228821	-10.200867	2.3154602
1493782616323	0.65245056	-9.854462	1.736618
1493782616323	0.412735	-9.182419	0.09857178
1493782616323	0.30497742	-9.372467	-0.45030212
1493782616323	0.6221771	-11.988754	-0.10824585
1493782616323	0.66252136	-14.865952	1.9025879
1493782616323	2.7587738	-12.996582	1.5145264
1493782616323	2.694641	-11.595245	-1.5536346
1493782616323	0.66244507	-11.35173	-4.581497
1493782616323	-0.3887024	-11.563629	-4.193878
1493782616323	-1.887207	-11.309113	-1.6559753
1493782616323	-3.1403503	-12.338516	-0.7497101
1493782616323	-4.663681	-13.672455	1.0637817
1493782616323	-6.1508484	-13.440918	1.8964081
1493782616323	-6.096573	-12.013428	2.4365845
1493782616323	-6.6445923	-11.667648	3.3463593
1493782616323	-6.249283	-10.918091	0.16215515
1493782616323	-5.2573853	-10.450851	-5.9089355
1493782616323	-4.091919	-11.074829	-4.2068024
1493782616323	-5.0574036	-10.639236	-3.1511078
1493782616323	-4.8102875	-9.885956	-0.96403503
1493782616323	-3.3303223	-10.491074	0.62319946
1493782616323	-1.4131775	-11.533142	0.036239624
1493782616323	-1.3097839	-11.50592	-0.9247894
1493782616323	-2.3650665	-9.942459	-1.6214752
1493782616323	-2.769867	-8.073776	-0.85443115
1493782616323	-2.616562	-6.9581604	0.11383057
1493782616323	-1.9006653	-6.5621796	0.4772339
1493782616323	-1.0442505	-6.4964905	0.06425476
1493782616323	-0.44677734	-6.211624	-0.7649689
1493782616323	-0.105895996	-5.796097	-1.9003754
1493782616323	0.517334	-5.5092926	-2.7901459
1493782616323	0.7979889	-5.176651	-3.6433716
1493782616323	0.3683777	-4.8767548	-4.562973
1493782616323	-0.57702637	-5.324005	-6.285843
1493782616323	-1.0629883	-6.933609	-8.445404
1493782616324	-1.3369293	-8.672684	-9.20401
1493782616324	-2.443161	-9.43251	-8.926361
1493782616324	-3.9626007	-9.2717285	-8.507233
1493782616324	-5.2240143	-8.567703	-7.3884735
1493782616324	-6.149597	-6.5503845	-3.6363068
1493782616324	-6.86174	-4.2590485	-0.34684753
1493782616324	-9.9088745	-6.893921	-1.2775879
1493782616324	-10.01207	-15.795364	-3.9265137
1493782616324	-0.59051514	-18.917038	-2.7632751
1493782616324	6.2147827	-12.633194	2.6812744
1493782616324	6.198883	-8.3763275	5.2723694
1493782616324	3.684433	-8.047546	8.02359
1493782616324	1.6689606	-9.76738	5.1677246
1493782616324	0.3227234	-12.076965	-0.9723511
1493782616324	1.2586365	-13.304825	-3.4863434
1493782616324	3.1282043	-12.779907	-0.37316895
1493782616324	1.5799255	-10.72612	1.3838959
1493782616324	0.23291016	-8.147751	0.8950958
1493782616324	-0.64523315	-7.529251	-1.5631714
1493782616324	-0.24954224	-8.35733	-2.413147
1493782616324	0.81655884	-9.555939	-0.041488647
1493782616324	1.0763397	-10.111908	0.7418976
1493782616324	0.72758484	-9.63649	0.048339844
1493782616324	1.1035156	-9.179138	-1.2744141
1493782616324	0.9143677	-9.882294	-1.071167
1493782616324	1.2690887	-10.149811	-0.35725403
1493782616324	1.0531006	-9.642548	-0.018112183
1493782616324	0.07835388	-9.567001	0.47399902
1493782616324	-1.388977	-10.201981	-0.3031006
1493782616324	-0.9784241	-10.515503	0.03730774
1493782616324	-0.33763123	-10.453873	0.41073608
1493782616324	0.94548035	-10.734558	1.0250092
1493782616324	2.4463196	-10.801712	1.6704407
1493782616324	3.3005676	-11.172043	0.87309265
1493782616324	3.4783783	-11.631561	0.47833252
1493782616324	3.0504913	-12.179855	-0.47465515
1493782616324	2.640854	-12.82045	-1.421936
1493782616324	2.362732	-12.444504	-3.268692
1493782616324	2.6742249	-10.613922	-4.129364
1493782616324	1.726532	-10.730148	-3.6310425
1493782616324	0.6938019	-10.552231	-0.80181885
1493782616324	-1.7732239	-11.8535	1.5390472
1493782616325	-5.8748627	-14.502289	3.250351
1493782616325	-7.810135	-16.685425	3.0035553
1493782616325	-6.567108	-15.813431	0.22267151
1493782616325	-3.8541412	-13.202225	-1.1417847
1493782616325	-0.38174438	-11.162659	-0.4446106
1493782616325	2.8944397	-10.18689	0.2893219
1493782616325	3.1459503	-9.928253	0.119018555
1493782616325	1.8568268	-9.031982	0.2614441
1493782616325	-0.04043579	-7.943527	1.5361023
1493782616325	-1.6007996	-6.6345673	2.3308105
1493782616325	-2.2133331	-5.212616	2.2548523
1493782616325	-2.014267	-3.9719696	2.9736023
1493782616325	-1.5404205	-3.20195	3.3826904
1493782616325	-1.3110809	-3.2166138	2.330658
1493782616325	-1.226471	-4.039673	0.3348236
1493782616325	-1.3672485	-5.427719	-1.5359955
1493782616325	-1.5648346	-7.238968	-3.8786469
1493782616325	-2.37117	-10.466049	-7.5112915
1493782616325	-2.8352966	-13.897308	-10.101608
1493782616325	-2.7805176	-14.703033	-10.291748
1493782616325	-2.7710114	-11.964447	-8.578964
1493782616325	-2.1973267	-9.302216	-5.5815277
1493782616325	-1.7183228	-8.4158325	-4.4642487
1493782616325	-2.9633636	-8.141678	-6.3999634
1493782616325	-6.262726	-12.529694	-7.1490173
1493782616325	-7.6367493	-17.4469	-6.1204376
1493782616325	-3.7898712	-15.019974	-0.6360016
1493782616325	0.69577026	-7.5958405	4.9895782
1493782616325	0.44961548	-4.40213	7.5489197
1493782616325	-0.79148865	-5.4195404	6.7424316
1493782616325	0.22383118	-8.58284	5.993225
1493782616325	1.9897766	-13.903488	3.3853455
1493782616325	3.2941284	-14.711044	-0.12802124
1493782616325	4.237091	-14.047195	-0.98498535
1493782616325	2.8363647	-11.520004	-0.57164
1493782616325	0.04940796	-9.73642	-0.3668518
1493782616325	-1.4461365	-8.585709	0.43296814
1493782616325	-2.9214783	-8.50766	1.0048065
1493782616325	-3.3660889	-8.755356	0.11856079
1493782616325	-1.9621124	-9.09465	-0.3631134
1493782616325	0.40266418	-9.494202	-0.30020142
1493782616325	2.1637573	-9.953476	0.73757935
1493782616326	2.07547	-9.666534	0.8725891
1493782616326	1.3750458	-9.360565	-0.34362793
1493782616326	0.72387695	-9.244812	-0.6436615
1493782616326	0.4487152	-9.584778	-0.38928223
1493782616326	0.40496826	-10.49733	-0.5815735
1493782616326	0.42399597	-10.418152	-0.987854
1493782616326	0.2456665	-9.884399	-1.1676483
1493782616326	-0.29006958	-10.128387	-0.47633362
1493782616326	-0.010787964	-10.570679	-0.34539795
1493782616326	0.9676666	-10.434998	-0.20635986
1493782616326	2.1136475	-9.873062	0.14427185
1493782616326	2.7835388	-9.915543	0.44447327
1493782616326	2.8118134	-10.385605	0.43855286
1493782616326	1.4898682	-10.452896	-1.0567017
1493782616326	0.17356873	-10.180893	-2.9039612
1493782616326	1.0648193	-10.875412	-2.859146
1493782616326	3.8403625	-12.656082	-1.0997009
1493782616326	4.579193	-12.721085	0.08375549
1493782616326	1.5158234	-10.682144	-0.97036743
1493782616326	-2.8464813	-10.05278	-1.6439667
1493782616326	-6.3646545	-11.272369	-0.39039612
1493782616326	-6.8444366	-13.796951	1.8967133
1493782616326	-4.2628326	-14.700287	2.6956635
1493782616326	-1.6509857	-13.622513	1.5436401
1493782616326	-0.60313416	-12.055435	0.5182953
1493782616326	-0.23146057	-11.010574	0.6293335
1493782616326	-0.17375183	-10.019745	1.0516815
1493782616326	0.21690369	-9.628906	1.0540619
1493782616326	0.361557	-9.087662	0.60295105
1493782616326	0.2941742	-8.258408	0.42414856
1493782616326	0.10649109	-7.5691223	0.79389954
1493782616326	-0.16210938	-6.8516693	1.3696289
1493782616326	-0.19059753	-6.226715	1.3219757
1493782616326	-0.34622192	-5.789795	0.8783722
1493782616326	-0.15127563	-5.923645	0.44039917
1493782616326	-0.28137207	-6.779373	-0.2416687
1493782616326	-0.78552246	-8.308884	-2.0041504
1493782616326	-0.855423	-10.864883	-4.6306915
1493782616326	0.10270691	-13.148636	-5.894165
1493782616326	1.4376373	-13.514572	-4.6742096
1493782616326	0.38330078	-11.443436	-1.3674011
1493782616326	-2.2087402	-9.242432	1.0964203
1493782616327	-4.7884674	-8.221191	2.092575
1493782616327	-6.2916107	-7.917877	3.8995972
1493782616327	-5.809189	-8.70929	4.276123
1493782616327	-4.3227997	-10.476486	2.3624725
1493782616327	-2.7386322	-12.498077	-1.5606537
1493782616327	0.54829407	-14.227386	-3.4322815
1493782616327	4.481201	-13.6614685	-2.414383
1493782616327	3.4771423	-10.219818	-2.1359863
1493782616327	2.0027618	-8.280273	-1.3120117
1493782616327	1.1660004	-7.558304	1.0035553
1493782616327	0.41600037	-8.323349	1.792633
1493782616327	-0.35517883	-9.727005	1.3509674
1493782616327	-0.80485535	-10.589355	0.41085815
1493782616327	-0.92066956	-10.46788	-0.11009216
1493782616327	-0.78619385	-9.743118	-0.50183105
1493782616327	-0.4705963	-9.287704	-0.15556335
1493782616327	-0.5459137	-9.545807	0.5711365
1493782616327	-0.67892456	-9.867004	0.87257385
1493782616327	-0.7884979	-9.977631	1.0113983
1493782616327	-0.89068604	-10.269424	0.9302063
1493782616327	-0.68418884	-10.263321	0.46788025
1493782616327	-0.1537323	-10.214432	0.010009766
1493782616327	0.41101074	-10.384689	-0.35943604
1493782616327	0.68533325	-10.358032	-0.5630646
1493782616327	1.0246277	-10.197418	-0.40585327
1493782616327	1.4758453	-10.267929	0.29786682
1493782616327	1.670639	-10.376678	1.1532135
1493782616327	1.4855194	-10.269745	1.5606232
1493782616327	1.2008972	-10.018814	1.6069183
1493782616327	1.2660217	-9.80249	1.297287
1493782616327	1.5399475	-9.766113	0.8729706
1493782616327	1.7227478	-9.954025	0.4627838
1493782616327	1.4425812	-10.210846	-0.17773438
1493782616327	1.0451965	-10.538544	-0.93022156
1493782616327	1.0051117	-10.927109	-1.6143951
1493782616327	1.1532288	-11.593414	-1.673584
1493782616327	0.2885437	-12.227173	-1.648941
1493782616327	-1.8550262	-11.624832	-2.6027985
1493782616327	-2.2609253	-10.7664795	-3.5231628
1493782616327	-0.8529053	-10.247452	-2.790924
1493782616327	1.1023712	-9.599716	-0.3014984
1493782616327	5.2676086	-11.084152	4.7423553
1493782616328	0.15045166	-12.029556	-2.017929
1493782616328	-5.238785	-12.274902	-6.9468384
1493782616328	-5.6762085	-11.465759	-5.477066
1493782616328	-2.1138763	-10.273132	-1.3938446
1493782616328	3.0476227	-10.2903595	2.8558502
1493782616328	6.481537	-10.426575	5.1420593
1493782616328	4.7688446	-9.943726	1.9124451
1493782616328	1.6106415	-9.376572	0.4641571
1493782616328	-0.7006073	-8.979721	0.13201904
1493782616328	-3.059372	-9.218048	-0.36769104
1493782616328	-4.155487	-9.321442	-0.14782715
1493782616328	-3.4967499	-8.935074	0.44802856
1493782616328	-2.3345947	-8.222427	0.11631775
1493782616328	-1.3915558	-7.7421417	-0.36460876
1493782616328	-1.3451996	-7.5893097	-0.640625
1493782616328	-1.3436127	-7.1181183	-0.7986145
1493782616328	-2.045517	-7.114517	-1.5830383
1493782616328	-2.4286957	-7.068527	-1.9684601
1493782616328	-2.729126	-7.306259	-2.645279
1493782616328	-3.046173	-8.083481	-4.2263794
1493782616328	-2.938446	-9.663574	-5.7785187
1493782616328	-2.7276917	-11.0047	-6.6875
1493782616328	-2.6638641	-11.427139	-7.5845795
1493782616328	-2.1451874	-9.837601	-6.8486633
1493782616328	-2.0462646	-7.947235	-5.963318
1493782616328	-2.5672913	-7.337448	-5.5117035
1493782616328	-3.4314575	-9.778366	-6.9269867
1493782616328	-4.13266	-15.388657	-5.2102966
1493782616328	-1.8133545	-15.944916	-0.5029144
1493782616328	-0.5791321	-10.506363	2.9587555
1493782616328	-2.4896393	-6.1418457	4.3137665
1493782616328	-3.1238556	-5.1236115	5.4054565
1493782616328	-2.747757	-6.828293	5.722702
1493782616328	-1.2093201	-9.572205	5.4078217
1493782616328	-0.35447693	-12.330963	3.058899
1493782616328	0.9374237	-13.221237	0.33184814
1493782616328	3.5126495	-12.606369	-0.60346985
1493782616328	3.8763733	-11.009949	0.3070526
1493782616328	1.1943817	-8.9001465	0.25605774
1493782616328	-0.4203949	-8.17897	0.64027405
1493782616328	-1.7625122	-8.839737	-0.16390991
1493782616338	-2.8731842	-9.622726	-1.1976013
1493782616358	-2.6721191	-9.609787	-1.6624908
1493782616377	-0.79447937	-9.080307	-0.98809814
1493782631298	0.9726105	-8.993515	0.40541077
1493782631298	1.9456329	-9.414825	1.3292542
1493782631298	1.888977	-9.784363	1.4682617
1493782631298	1.1434937	-9.835724	1.1717377
1493782631298	0.56340027	-10.03566	0.68492126
1493782631298	0.12760925	-10.42218	-0.29438782
1493782631298	-0.34484863	-10.822601	-1.6741486
1493782631298	-0.39744568	-11.583679	-2.3412476
1493782631298	1.1876678	-11.819382	-1.3004608
1493782631299	2.854721	-11.380356	-0.05052185
1493782631299	3.048935	-11.354019	-0.027557373
1493782631299	2.4580688	-11.740219	-0.7086029
1493782631299	2.8593292	-12.823334	-0.72229004
1493782631299	3.4258728	-13.197205	-1.1495056
1493782631299	3.633438	-12.416824	-4.001053
1493782631299	2.6667328	-10.910492	-4.112335
1493782631299	1.4802246	-10.286331	-3.2791138
1493782631299	0.58096313	-10.755325	-0.32647705
1493782631299	-1.9752655	-13.212891	1.9507599
1493782631299	-5.322876	-18.092957	4.372116
1493782631299	-6.381607	-18.25882	3.5373077
1493782631299	-5.277176	-14.597473	-0.053955078
1493782631299	-3.4781342	-11.855148	-0.4464569
1493782631299	-0.7664032	-10.818161	1.5036163
1493782631299	3.3248138	-10.589172	0.2761078
1493782631299	4.1609955	-10.334869	-0.8010559
1493782631299	2.746231	-9.69989	0.02720642
1493782631299	0.24742126	-8.468506	1.5224152
1493782631299	-1.5488739	-6.5223083	2.758438
1493782631299	-3.2238312	-4.505661	3.038437
1493782631299	-3.6446228	-3.0645447	3.5189514
1493782631299	-2.7201538	-2.2646484	2.8411865
1493782631299	-1.8850708	-1.9968262	2.351944
1493782631299	-1.2826996	-2.6630707	0.94836426
1493782631300	-0.7207489	-4.2278748	-1.6804199
1493782631300	-0.90652466	-7.418747	-7.4308014
1493782631300	-0.7230072	-12.173767	-13.291641
1493782631300	-0.80651855	-13.577423	-12.11087
1493782631302	-2.3409119	-13.727325	-8.97348
1493782631302	-5.351471	-11.134399	-3.9167938
1493782631302	-9.900299	-9.025223	-3.8670197
1493782631302	-12.258881	-14.218597	-4.005844
1493782631302	-5.417755	-18.217926	-4.617859
1493782631302	4.261841	-12.052002	4.199478
1493782631302	4.4468994	-5.4985046	9.635361
1493782631302	1.3094482	-6.640045	9.6698
1493782631302	-1.6013947	-10.764801	6.270584
1493782631302	0.19812012	-13.476074	0.25567627
1493782631302	4.105652	-14.907593	-2.7801666
1493782631302	5.6844482	-13.113052	-1.4638672
1493782631302	2.9279327	-10.250214	0.85176086
1493782631302	-1.1385193	-9.129501	0.95944214
1493782631302	-4.320923	-8.6651	-1.3576813
1493782631302	-5.2282867	-8.619232	-2.672165
1493782631302	-4.0551147	-8.870377	-1.684494
1493782631302	-1.4770508	-9.032959	-0.56295776
1493782631302	1.0038147	-9.17041	-0.7025604
1493782631303	3.0347443	-9.060501	-0.52033997
1493782631304	3.3674316	-8.9496765	0.10067749
1493782631304	1.426178	-9.184402	1.0230255
1493782631304	-0.5232544	-9.362259	0.7471924
1493782631304	-0.4486847	-9.49472	-0.26176453
1493782631304	0.6386261	-9.936661	-0.99905396
1493782631304	1.045105	-10.367294	-1.2744293
1493782631304	0.7172241	-10.260132	-1.4445496
1493782631304	0.53318787	-10.296127	-1.309021
1493782631304	1.2200623	-10.749939	-0.75323486
1493782631304	2.3787842	-11.255981	-0.72268677
1493782631304	3.0742645	-11.538101	-1.4628448
1493782631304	2.8532562	-11.443787	-2.3833466
