accelerometer_timestamp	accelerometer_x_data	accelerometer_y_data	accelerometer_z_data
1493852642277	-1.3005676	5.0633698	8.495834
1493852642282	-1.0565033	5.176285	8.837875
1493852642304	-0.8953552	5.2644043	8.733994
1493852642324	-0.95480347	5.2310486	8.298737
1493852642342	-0.9921875	5.211136	7.821228
1493852642361	-0.83361816	5.209198	7.7250977
1493852642381	-0.5669861	5.232025	8.473267
1493852642401	-0.66249084	5.17247	8.440002
1493852642420	-0.8447418	5.05986	8.098999
1493852642441	-0.7758026	5.0957336	7.931381
1493852642460	-0.7064667	5.117157	7.5484314
1493852642480	-0.48292542	5.139221	7.656662
1493852642500	-0.13166809	5.141632	8.440353
1493852642519	-0.17970276	5.0725403	8.9776
1493852642540	-0.83721924	4.8376007	8.520096
1493852642559	-1.2773438	4.6459656	7.627777
1493852642579	-1.0137482	4.686203	7.1991425
1493852642599	-0.17156982	4.656769	7.20784
1493852642618	0.39593506	4.4732056	7.7693787
1493852642638	0.76524353	4.39769	8.187012
1493852642658	0.9747925	4.466446	7.511032
1493852642678	1.2428741	4.310089	6.9217834
1493852642698	1.4095001	3.9437866	6.2282104
1493852642717	1.8118439	3.505539	5.997162
1493852642737	2.0715637	3.4324493	7.3029633
1493852642757	2.9764252	3.6874237	8.201065
1493852642777	2.83078	3.7111816	8.180481
1493852642796	2.0070496	3.7667236	8.538818
1493852642816	2.379486	4.0741577	9.912735
1493852642836	2.659958	4.2811737	10.455917
1493852642857	2.3637543	4.493805	10.9543915
1493852642876	2.3115845	4.7212524	11.279846
1493852642915	1.797699	4.5497894	10.545105
1493852642935	1.4553223	4.4480743	9.867203
1493852642955	1.4472046	4.3515015	9.38559
1493852642975	2.542038	4.4246063	11.0759735
1493852642994	1.8677673	4.136902	10.923508
1493852643014	1.352066	3.9019623	10.104965
1493852643034	2.006424	4.1448517	9.760925
1493852643054	2.6624298	4.232834	9.683258
1493852643074	2.6129456	4.0966797	9.476242
1493852643094	2.4489288	4.1897583	9.353394
1493852643113	2.4684906	4.1053467	9.73967
1493852643133	2.7253723	3.9909973	9.1082
1493852643153	2.9350586	3.7887115	8.734573
1493852643173	2.9806213	3.6175385	8.961197
1493852643192	2.759964	3.6489258	9.037994
1493852643212	2.605713	3.7418518	9.025299
1493852643232	3.0257568	3.63591	8.424759
1493852643252	2.9184418	3.738617	8.245438
1493852643272	2.7639313	3.8732758	8.209503
1493852643291	2.6808167	3.9868927	8.021042
1493852643311	2.688919	4.0230255	7.829605
1493852643331	2.6900482	3.9650116	7.8190002
1493852643351	2.6595306	4.010895	7.9814606
1493852643371	2.8684235	4.0582886	8.082138
1493852643390	2.879547	4.108032	8.199356
1493852643410	2.9295502	4.1458282	8.000687
1493852643431	2.9692078	4.1830444	7.8369446
1493852643450	3.054245	4.2111206	8.00322
1493852643469	3.1015778	4.2301483	7.9035187
1493852643489	3.2628326	4.198639	7.5013885
1493852643509	3.6906128	4.316025	7.385895
1493852643529	3.8630066	4.599579	7.9279785
1493852643549	3.6542053	4.613968	8.521927
1493852643568	3.5339355	4.440048	8.509918
1493852643588	3.5582428	4.424286	8.270935
1493852643608	3.387268	4.3762054	7.8228455
1493852643628	3.432602	4.318985	7.343872
1493852643648	3.5753021	4.425766	7.1758575
1493852643667	3.6677704	4.4337006	7.2409515
1493852643687	3.6523743	4.428589	7.6265564
1493852643707	3.546341	4.4150085	7.957184
1493852643727	3.6526184	4.263199	7.898163
1493852643747	3.7870636	4.2039795	7.9427032
1493852643766	3.9068756	4.437546	8.127975
1493852643786	4.1055603	4.716278	8.212189
1493852643806	4.5737915	5.010666	8.477463
1493852643826	4.60997	4.93779	8.174316
1493852643846	4.3172607	4.566101	7.8338165
1493852643865	4.172241	4.2012787	7.857788
1493852643885	3.9740753	3.7820435	7.688843
1493852643905	3.4773407	2.7802582	6.856369
1493852643925	2.9202423	1.6690979	5.9158936
1493852643945	2.3039246	0.7642517	4.7518616
1493852643965	2.1122742	-1.1545258	2.796997
1493852643984	1.5529938	-2.694519	1.6879883
1493852644004	1.3834534	-3.3738708	0.9081116
1493852644024	1.851471	-4.3704987	0.76950073
1493852644044	3.828415	-4.7867126	0.15026855
1493852644083	5.931946	-3.8833313	-1.2723541
1493852644103	8.389282	-3.1815338	3.342636
1493852644123	10.408676	-2.5214996	9.171967
1493852644143	12.923294	-0.95466614	10.512802
1493852644162	17.287964	1.1306305	9.963333
1493852644182	19.461044	2.6885529	7.821884
1493852644202	19.461044	4.190201	7.005707
1493852644222	19.461044	4.818466	7.905258
1493852644242	19.187714	4.185211	8.252502
1493852644261	17.131454	3.5578308	5.0274506
1493852644281	12.589859	3.0283356	-2.787735
1493852644301	4.7311554	-3.932663	3.8946686
1493852644321	6.7499084	-1.1454468	-3.7979584
1493852644341	8.400772	-0.6501465	-9.555038
1493852644360	10.40564	-0.70236206	-3.3760834
1493852644380	9.939377	-1.0187225	2.5667572
1493852644401	7.2125244	-1.5281982	2.8299713
1493852644420	4.457077	-3.152069	2.3306732
1493852644444	4.5115204	-3.0490112	0.52815247
1493852644460	4.6013336	-3.6869812	-0.29379272
1493852644479	5.329605	-4.1151733	1.1392517
1493852644499	6.902176	-4.7279663	1.2564545
1493852644519	8.612442	-6.698471	1.7611084
1493852644539	10.277924	-7.4691925	2.3739014
1493852644558	9.615433	-6.3484344	1.4199066
1493852644578	8.606125	-8.0829315	6.195755
1493852644598	8.199371	-9.167587	12.646744
1493852644618	6.836685	-6.339157	5.825058
1493852644637	5.6380157	-4.2091827	1.1289825
1493852644657	5.4356384	-5.465042	1.3327789
1493852644677	5.188568	-11.452225	3.7400513
1493852644697	5.410507	-14.860352	1.8412018
1493852644717	7.1351166	-12.8354645	-0.3115387
1493852644736	10.018112	-7.65271	-1.5799713
1493852644756	4.9318237	-6.664917	2.161255
1493852644776	-1.2840881	-9.009003	2.947525
1493852644796	-0.8720093	-11.777069	1.1465759
1493852644816	0.31248474	-12.082947	2.118576
1493852644836	4.206787	-8.905518	1.7420807
1493852644855	5.2073364	-6.939865	1.5500183
1493852644875	2.6995544	-6.348358	1.3121643
1493852644895	1.8573151	-5.242859	2.0426025
1493852644915	1.236206	-4.4655	1.4349213
1493852644935	-0.5893097	-6.1111755	1.7432404
1493852644954	-0.9904175	-11.733643	0.5480499
1493852644974	3.1846008	-14.166702	0.8316345
1493852644994	1.1656494	-17.132172	5.2280426
1493852645014	2.4658508	-15.097092	1.8060608
1493852645034	2.890396	-13.127884	0.84983826
1493852645053	7.815094	3.009491	0.55966187
1493852645073	1.4451447	-6.7034607	-0.047195435
1493852645093	-1.873703	-13.363739	1.055191
1493852645113	0.73561096	-9.0629425	1.1405792
1493852645132	2.286209	-10.731827	1.5051575
1493852645152	1.2688446	-9.953873	0.5854187
1493852645172	0.45812988	-12.572998	0.801239
1493852645192	1.8694763	-12.805389	0.85469055
1493852645231	2.3122864	-12.178467	1.137619
1493852645251	2.6802216	-10.502975	1.5879974
1493852645271	1.0863953	-12.619812	1.0957489
1493852645291	1.7889862	-10.345673	1.046402
1493852645311	1.6654968	-9.335571	1.2754974
1493852645330	2.2570343	-9.085236	1.5198059
1493852645350	1.4689636	-10.380508	1.9967194
1493852645370	1.1062775	-9.972458	2.0975952
1493852645390	1.1667023	-9.689362	2.052948
1493852645411	1.1808624	-9.875778	2.0414276
1493852645430	0.74684143	-10.36731	1.6089325
1493852645449	0.3030243	-10.503693	1.0505981
1493852645470	0.5780792	-10.235764	1.3187866
1493852645490	0.45942688	-10.603683	1.2191467
1493852645509	0.4534912	-10.087585	1.3892975
1493852645529	0.15664673	-9.448837	0.9639435
1493852645549	1.102356	-9.376846	0.5306244
1493852645569	1.5865631	-9.814835	0.07154846
1493852645588	2.172699	-10.518143	-0.09492493
1493852645608	3.0189514	-12.268066	-0.6861267
1493852645628	3.2822723	-13.855881	-1.2329559
1493852645648	3.039215	-13.099182	-2.080536
1493852645668	2.994522	-11.858444	-2.8332825
1493852645687	2.782013	-10.354813	-2.2841187
1493852645707	2.3436432	-9.488998	-1.467392
1493852645727	1.6612396	-9.474899	-0.009475708
1493852645747	1.0519257	-10.432236	0.8471832
1493852645767	1.9862671	-11.408218	1.0999756
1493852645786	3.0318298	-10.852341	1.2872314
1493852645805	3.6627502	-9.725998	0.9750824
1493852645826	4.5345154	-9.4587555	1.7281494
1493852645846	4.6912384	-9.929871	2.6086273
1493852645866	3.4458466	-10.422104	1.9428864
1493852645885	1.3908691	-10.716766	1.3616333
1493852645905	0.13121033	-10.612396	1.2577362
1493852645925	-0.51701355	-10.427017	1.264267
1493852645945	-0.83714294	-10.16246	1.2304382
1493852645965	-0.6526184	-9.563004	1.1726837
1493852645984	-0.69177246	-8.95224	0.9173126
1493852646004	-1.0028076	-8.576462	0.7176361
1493852646024	-1.3180237	-8.6033325	0.30130005
1493852646044	-1.4470367	-8.487457	-0.3148651
1493852646064	-1.4927216	-8.017395	-1.237854
1493852646083	-1.6137695	-7.537857	-1.9608002
1493852646103	-1.472168	-7.3869934	-2.5133667
1493852646123	-1.1030579	-7.693924	-2.9894257
1493852646143	-0.8310394	-8.65593	-3.8809052
1493852646163	-0.5099945	-9.446823	-4.6567383
1493852646182	0.1895752	-9.57962	-4.9442596
1493852646202	0.81900024	-9.561569	-5.0367737
1493852646222	0.8991089	-9.615601	-4.8614655
1493852646242	0.35147095	-9.288269	-5.243225
1493852646262	0.19398499	-8.311005	-4.5808105
1493852646281	-0.20802307	-6.9287415	-4.6291656
1493852646301	-0.93434143	-7.7146606	-6.5901794
1493852646321	-4.5316315	-16.902008	-6.2529755
1493852646341	-4.0815277	-19.404602	-4.8465424
1493852646360	2.8348846	-13.456299	-2.3059387
1493852646380	-0.34066772	-5.2187805	5.62796
1493852646420	-3.6520233	-2.034439	6.1138153
1493852646440	-2.9706268	-4.142853	6.3135376
1493852646459	-1.095108	-9.265228	4.418869
1493852646479	2.4534454	-13.00119	2.7703552
1493852646499	6.305298	-15.197342	0.22291565
1493852646519	7.8853455	-14.574921	-0.14962769
1493852646539	4.377472	-10.879486	0.27400208
1493852646558	0.6087799	-8.538467	0.5184326
1493852646578	-2.7808075	-8.281174	0.87641907
1493852646598	-3.5990753	-8.761154	-0.21891785
1493852646618	-2.2762604	-9.286713	-1.0492401
1493852646638	-0.041397095	-9.638931	-0.10420227
1493852646657	1.7331848	-9.658386	-0.022521973
1493852646677	2.4211578	-9.451248	-0.29193115
1493852646697	1.9208832	-9.068512	0.100982666
1493852646716	1.0570831	-8.753128	0.6599121
1493852646737	0.45498657	-8.530411	1.310852
1493852646757	0.44232178	-8.589371	1.5748138
1493852646776	0.48025513	-9.3155365	1.1157684
1493852646796	-0.074142456	-10.1245575	0.5410309
1493852646816	-0.32615662	-10.678406	-1.0588531
1493852646836	0.06655884	-10.856491	-1.6396332
1493852646857	0.7583008	-10.864304	0.06121826
1493852646876	1.4485626	-11.06691	1.5136566
1493852646896	2.8254242	-11.601166	1.4585571
1493852646917	4.1027374	-11.988174	1.1309814
1493852646936	3.2389832	-11.727783	-0.21859741
1493852646955	1.8529816	-11.0585785	-1.6356812
1493852646975	3.4618225	-11.417267	-1.7329559
1493852646995	6.2012634	-11.999954	-1.2875061
1493852647014	6.457596	-11.1384735	-1.3758392
1493852647034	4.9678497	-10.265533	-1.7353821
1493852647054	2.8261719	-9.997864	-0.21229553
1493852647074	0.18333435	-10.899261	2.282547
1493852647094	-2.0844116	-13.89505	3.4201965
1493852647114	-3.1739502	-16.728516	3.3297882
1493852647133	-2.6993866	-16.560928	1.8138275
1493852647153	-1.4612885	-14.371536	-0.014602661
1493852647173	-0.33198547	-12.3506775	-0.40309143
1493852647193	2.1526184	-10.33963	2.7258606
1493852647212	3.1300812	-9.727325	0.9194946
1493852647232	3.0246124	-9.202988	0.25672913
1493852647252	1.9649506	-8.517761	2.0133972
1493852647272	0.26293945	-7.5963593	3.3944702
1493852647292	-1.1673126	-5.9220123	3.7705078
1493852647311	-2.1029205	-4.47937	3.5797577
1493852647331	-2.7558136	-3.4547882	3.2211761
1493852647351	-3.4494019	-3.3481445	2.2780151
1493852647371	-3.2544403	-3.9498901	1.0186462
1493852647391	-2.6433868	-5.275528	-1.7022858
1493852647411	-1.3368835	-8.270599	-6.432434
1493852647431	0.22227478	-11.2357025	-5.8981323
1493852647450	1.3372192	-12.265518	-7.3061676
1493852647470	0.116760254	-11.557983	-8.665527
1493852647490	-0.54603577	-11.126312	-8.220551
1493852647509	0.52467346	-11.766052	-7.2091675
1493852647529	1.1004181	-11.120972	-7.250656
1493852647549	-1.8625336	-8.497345	-7.8797455
1493852647568	-5.510071	-12.0401	-8.708725
1493852647609	-5.20105	-18.178421	-5.889328
1493852647628	-2.4020386	-14.874939	2.7230225
1493852647648	-0.44537354	-4.773041	4.277771
1493852647668	-1.8278961	-2.813797	5.8885956
1493852647688	-2.3709717	-6.5036774	4.9243774
1493852647707	0.87298584	-11.308838	7.312149
1493852647727	5.008835	-13.551193	5.483597
1493852647747	6.295456	-13.495895	-0.4377594
1493852647767	4.032547	-11.715912	-0.7546997
1493852647787	2.2702942	-9.96817	0.8974304
1493852647806	0.7391815	-8.854782	1.5288086
1493852647825	-0.5936279	-8.349213	1.5812683
1493852647846	-1.3287964	-8.350525	1.0565338
1493852647866	-1.7831268	-9.19278	-0.14624023
1493852647886	-1.4940948	-9.415817	-1.0744934
1493852647905	-0.2071991	-9.464066	0.11639404
1493852647924	1.8026733	-9.231201	0.5537567
1493852647948	3.5138092	-8.609009	0.16940308
1493852647965	3.9673157	-8.542389	-0.24754333
1493852647985	3.1596222	-8.974197	0.09669495
1493852648004	2.4388733	-9.326767	0.28311157
1493852648024	1.5286407	-10.422913	1.2257843
1493852648046	0.30143738	-11.325821	2.0978851
1493852648069	-0.77311707	-11.577927	0.4571991
1493852648089	-0.81448364	-11.5091095	-1.5335388
1493852648109	2.6950226	-11.202469	-0.65509033
1493852648131	6.2075043	-10.965439	1.1880951
1493852648145	5.5965424	-11.004272	-0.22154236
1493852648167	3.7317352	-11.3302765	-1.7321167
1493852648188	4.449524	-12.205185	-1.1998901
1493852648204	6.4756775	-12.558258	-0.9740753
1493852648226	5.908081	-11.929794	-2.50383
1493852648248	2.2060242	-11.030533	-3.121292
1493852648263	-1.1972809	-10.573196	-0.19950867
1493852648287	-2.2206116	-12.245575	3.3701935
1493852648307	-3.5658264	-16.282166	4.6784973
1493852648323	-5.0589447	-19.0354	3.1169739
1493852648343	-4.420761	-17.706696	-0.680603
1493852648361	-3.644638	-14.541946	-1.5798035
1493852648383	-2.8653107	-12.206192	0.61068726
1493852648406	0.34580994	-10.1203	2.160843
1493852648436	3.1572418	-8.641708	0.9121704
1493852648445	4.628708	-7.653961	0.4842682
1493852648463	4.2143707	-6.590149	2.1921082
1493852648480	2.431656	-4.5349884	3.8844604
1493852648499	-0.15892029	-3.0493774	4.28096
1493852648519	-2.1309357	-2.4573517	4.3551025
1493852648540	-3.3239136	-2.1036987	3.758728
1493852648562	-3.2962494	-2.611374	2.1952972
1493852648582	-2.5499115	-4.0858307	-0.45018005
1493852648602	-1.0352478	-7.044342	-5.274521
1493852648622	0.21524048	-11.471634	-7.486374
1493852648641	-0.68984985	-15.058395	-8.925842
1493852648660	-2.4084625	-14.636841	-11.243698
1493852648683	-2.477707	-12.689438	-8.380554
1493852648703	0.06555176	-11.458191	-6.009323
1493852648723	0.7348633	-9.586746	-6.363327
1493852648762	-2.0800629	-5.6435547	-7.250046
1493852648763	-5.5822754	-10.13385	-9.266739
1493852648802	-5.3291473	-18.715118	-3.9652557
1493852648819	-2.316803	-17.239746	2.057785
1493852648819	-0.10159302	-7.353241	2.919632
1493852648861	-0.46139526	-3.6040802	8.188248
1493852648881	-0.7323456	-5.582077	8.32222
1493852648904	2.3503418	-10.578033	8.256638
1493852648919	4.4846954	-14.3867035	2.4318085
1493852648939	4.6656494	-14.024689	-0.21994019
1493852648958	4.253128	-11.335556	-0.5615692
1493852648977	2.1797943	-9.674011	1.0453339
1493852648996	0.5277405	-7.701233	1.8788605
1493852649016	-1.5105743	-7.4924164	0.30963135
1493852649036	-2.3555298	-8.176727	0.65138245
1493852649058	-1.609726	-9.134674	-0.15557861
1493852649076	-0.0028533936	-9.612198	0.6316223
1493852649097	0.95506287	-9.386459	-0.134552
1493852649119	1.5611115	-8.771881	-0.8146515
1493852649136	1.7545013	-8.840805	-0.8989868
1493852649164	1.7307587	-9.801956	0.20591736
1493852649176	2.4139862	-10.111633	0.69610596
1493852649198	3.5417175	-10.2990265	1.4250183
1493852649216	3.1683197	-11.107529	1.0847931
1493852649238	1.5209961	-11.316971	-1.2043915
1493852649257	0.8404999	-10.91217	-0.9454651
1493852649277	2.8210602	-10.955475	0.93611145
1493852649297	3.895462	-11.62709	0.89367676
1493852649316	3.105011	-11.608948	0.0068359375
1493852649335	3.0677948	-11.1258545	-0.37916565
1493852649357	4.8130493	-11.612274	-0.43614197
1493852649375	5.7056885	-11.966995	-1.9026642
1493852649395	3.7894745	-11.516907	-3.428543
1493852649415	0.79086304	-10.536453	-2.5113373
1493852649434	-1.1720276	-10.222443	1.027298
1493852649453	-2.432251	-12.378815	3.9094238
1493852649473	-4.4744415	-17.041458	4.1131134
1493852649489	-6.1284485	-19.3208	1.9998932
1493852649509	-4.8962555	-17.880356	-0.6979828
1493852649529	-3.8546295	-14.852295	-1.4128113
1493852649549	-1.88031	-12.282822	1.5814972
1493852649571	2.1142883	-9.815659	1.9254913
1493852649593	3.8625793	-8.414993	0.59532166
1493852649614	4.1667175	-7.6537933	1.1979675
1493852649628	2.583313	-6.7465515	2.9669342
1493852649649	0.42745972	-4.5163574	3.9877777
1493852649673	-1.99469	-3.078476	4.474121
1493852649693	-3.07135	-2.164215	3.9698792
1493852649709	-3.0399323	-1.5688782	3.1632233
1493852649732	-2.5033722	-1.8917542	2.0095367
1493852649751	-1.8704224	-3.3992462	0.5693817
1493852649768	-0.9290314	-6.3283234	-3.9466248
1493852649791	0.40574646	-12.527039	-10.676453
1493852649808	-1.0915375	-17.675842	-12.154404
1493852649827	-3.7207794	-16.172348	-11.648102
1493852649847	-2.7806091	-11.632355	-7.4032288
1493852649871	-0.43450928	-9.147247	-5.648178
1493852649889	-2.4823914	-8.587204	-7.477478
1493852649925	-6.8177032	-15.156616	-7.4664
1493852649948	-6.2553406	-18.144348	-5.9474335
1493852649966	-2.8840637	-11.927643	3.1342316
1493852649986	-0.08479309	-4.32283	5.8264008
1493852650006	-0.86750793	-3.489746	5.746063
1493852650026	0.5233307	-7.0585785	6.649124
1493852650046	2.7443542	-11.011765	6.8182373
1493852650068	4.5656433	-13.609772	2.651062
1493852650086	4.321808	-14.663254	-0.5762024
1493852650108	4.144928	-12.78183	-0.14678955
1493852650127	3.1735687	-10.45134	0.68862915
1493852650148	0.85494995	-8.2956085	1.4897919
1493852650170	-0.49446106	-8.000732	0.9132538
1493852650187	-1.4654846	-8.331009	0.64427185
1493852650209	-2.2237244	-9.239059	-0.2073822
1493852650227	-1.5513	-9.935623	-0.27770996
1493852650246	0.3926239	-9.835312	0.5866699
1493852650268	1.4231873	-9.1862335	0.2037201
1493852650286	1.7686005	-8.266388	0.14466858
1493852650307	1.8672943	-7.614853	1.1173706
1493852650325	1.1239319	-8.501236	1.2111816
1493852650345	1.2099152	-9.682861	-0.11769104
1493852650364	2.5886993	-10.104553	-1.6000214
1493852650386	3.0697632	-10.436203	-1.4793854
1493852650405	1.1487732	-11.282166	-0.75090027
1493852650426	-0.26249695	-11.873825	-0.45680237
1493852650451	1.9640198	-11.574005	0.61317444
1493852650461	4.815872	-11.441528	1.3200226
1493852650479	4.171463	-11.480087	0.15007019
1493852650499	2.9027405	-11.976334	-0.35578918
1493852650519	3.9775848	-13.194702	-0.5963745
1493852650538	5.5608673	-13.24295	-2.3281708
1493852650562	4.225479	-11.78331	-2.9042664
1493852650580	0.6008148	-10.551895	-2.4243317
1493852650601	-1.3906708	-10.492645	0.3878479
1493852650619	-2.1433563	-12.227707	3.5520935
1493852650637	-3.4286804	-15.432037	4.0356293
1493852650662	-4.393036	-17.799591	2.054779
1493852650682	-4.301605	-16.522415	-0.5616913
1493852650699	-3.4558258	-13.685791	-0.8750458
1493852650718	-1.9442291	-11.778717	2.0690918
1493852650742	2.25766	-10.098846	1.5213776
1493852650758	4.730957	-8.815765	0.14700317
1493852650781	4.9327545	-7.8059235	1.1641846
1493852650801	2.988266	-7.0872803	3.1875458
1493852650819	0.25933838	-5.4727783	3.3118744
1493852650836	-1.7633972	-4.0342865	3.8482666
1493852650861	-3.0113983	-3.0391083	3.8042145
1493852650880	-3.2290497	-2.299118	3.2052765
1493852650898	-2.8526611	-2.5112305	1.6851807
1493852650916	-2.3012695	-3.7637177	0.18788147
1493852650937	-1.8961792	-6.2900543	-2.9133759
1493852650956	-1.6421661	-11.289169	-10.766525
1493852650976	-1.3400269	-16.41098	-11.006592
1493852650997	-2.2873383	-16.613174	-11.71994
1493852651016	-1.8209076	-12.110016	-8.801941
1493852651036	-0.18441772	-10.012192	-5.8719635
1493852651077	-2.0130768	-7.903	-5.7550354
1493852651095	-5.2734375	-7.696335	-7.3103485
1493852651115	-5.81279	-15.546722	-7.537369
1493852651138	-3.8638153	-17.851486	-2.6627808
1493852651154	-1.2282715	-10.633026	3.1378784
1493852651175	-0.4128418	-4.1706543	7.8262024
1493852651197	-1.5622864	-4.4774475	5.936844
1493852651219	0.03390503	-8.248306	7.8333282
1493852651237	2.1343536	-12.562302	6.915909
1493852651258	3.8321533	-14.718826	0.87945557
1493852651276	4.5757446	-13.364426	0.90530396
1493852651296	5.075424	-12.224014	1.0300446
1493852651315	2.8868866	-10.118851	1.1053467
1493852651336	0.64482117	-7.8935394	0.5569916
1493852651354	-1.0204773	-7.6544495	-0.517746
1493852651375	-1.4956207	-7.868683	-0.30667114
1493852651395	-1.3357391	-8.879013	-0.593338
1493852651411	0.500885	-9.299667	-0.17610168
1493852651432	1.3364105	-9.398666	0.20829773
1493852651453	1.3617249	-8.975433	-0.5193176
1493852651473	1.2003021	-8.655624	-0.48608398
1493852651489	0.66252136	-9.2855835	0.015716553
1493852651508	0.748703	-10.520386	0.2069397
1493852651528	2.1836395	-11.287109	0.36491394
1493852651549	2.8795624	-11.317459	0.05368042
1493852651569	2.0688324	-11.025024	-1.2346191
1493852651591	1.4305725	-10.615021	-0.98405457
1493852651612	2.3251648	-10.611206	0.40856934
1493852651630	3.5384216	-11.307358	0.46759033
1493852651650	2.8106995	-11.65033	-0.5625
1493852651669	2.1923065	-11.653549	-0.72488403
1493852651688	4.121338	-12.817627	-0.93092346
1493852651712	5.6397552	-13.052338	-1.6168518
1493852651729	3.6105652	-11.670395	-1.894989
1493852651748	0.5077057	-10.668457	-1.6811371
1493852651772	-1.6238403	-10.750381	0.4613495
1493852651794	-2.967163	-12.442932	3.0722656
1493852651810	-4.0971375	-15.559692	3.348465
1493852651830	-3.8665924	-16.62291	1.1857605
1493852651849	-2.2578278	-15.117615	-0.3063507
1493852651867	-0.75668335	-12.990906	0.28857422
1493852651888	3.786789	-10.399673	1.3853455
1493852651908	4.8533325	-9.090988	0.903656
1493852651929	4.104889	-8.47052	0.42321777
1493852651947	2.7330017	-7.643692	1.8288116
1493852651965	1.1623077	-6.039215	3.0570068
1493852651988	-0.47190857	-4.538437	3.8897552
1493852652005	-2.2216187	-3.7273102	3.8521576
1493852652025	-3.4335785	-3.3548126	3.5809326
1493852652045	-3.437088	-3.3676605	2.5617218
1493852652065	-2.9912872	-3.9994812	0.74794006
1493852652086	-2.6359558	-5.6577454	-2.104126
1493852652107	-2.0116425	-8.812912	-5.7080536
1493852652126	-1.213913	-12.208527	-6.590332
1493852652146	-0.8587799	-15.090759	-9.704697
1493852652165	-2.7595673	-13.822769	-10.045395
1493852652187	-2.3210907	-11.85614	-8.722977
1493852652207	-1.2364197	-11.094574	-5.9319916
1493852652246	-2.0055542	-9.686768	-5.9018707
1493852652247	-4.4098206	-9.01413	-7.7777863
1493852652284	-4.404114	-14.967209	-8.356979
1493852652305	-0.98327637	-16.002869	-2.9557953
1493852652327	-0.26522827	-9.015305	4.7674713
1493852652344	-1.1841888	-3.923294	8.477219
1493852652364	-3.5352783	-4.6366425	4.709442
1493852652386	-0.82115173	-8.758255	6.305908
1493852652405	2.5861816	-13.557022	6.7364807
1493852652421	4.626114	-14.462051	1.3865814
1493852652442	4.281021	-12.790787	0.2574768
1493852652471	3.7249603	-11.136917	0.43621826
1493852652480	1.930893	-9.203537	1.6736603
1493852652500	0.6599579	-7.783554	1.4477844
1493852652518	-0.9122467	-8.12442	0.7206726
1493852652538	-1.7315216	-8.790604	0.4744873
1493852652557	-1.2414703	-9.545502	0.019821167
1493852652579	0.21626282	-9.674057	1.0540924
1493852652598	0.88253784	-9.594955	0.34950256
1493852652621	1.4312439	-9.089661	-0.39944458
1493852652638	1.7578278	-8.695877	-0.6682434
1493852652657	1.4757538	-8.945023	-0.14405823
1493852652678	1.6028442	-9.426956	-0.19145203
1493852652697	2.5039825	-9.835663	0.07086182
1493852652718	2.7611237	-9.959808	0.2872162
1493852652738	1.4332123	-9.857834	0.069122314
1493852652756	-0.3935852	-10.341858	0.0783844
1493852652777	-0.53157043	-11.122009	0.3779297
1493852652795	1.4983978	-11.382187	0.6293335
1493852652818	3.1261444	-11.3116	0.1375885
1493852652836	3.2865906	-11.795578	-1.2488708
1493852652855	4.4691315	-13.1658325	-1.5132599
1493852652876	7.397705	-14.099426	-1.1442871
1493852652895	7.1277924	-12.902832	-1.6105957
1493852652915	2.834961	-11.209717	-2.3349457
1493852652937	-0.9019928	-10.65213	-0.7355499
1493852652953	-2.6560974	-12.122803	2.5154877
1493852652973	-3.7243195	-15.753494	4.1601257
1493852652993	-4.495682	-18.167816	3.020523
1493852653013	-3.405838	-16.474747	-0.43240356
1493852653033	-2.1230469	-13.831909	-1.884018
1493852653054	-0.4658203	-11.864883	1.6369476
1493852653076	3.0612793	-10.094055	2.0717773
1493852653095	3.672287	-9.013367	0.82818604
1493852653115	3.5133667	-7.6795197	1.0648041
1493852653137	2.174942	-6.778	2.4284973
1493852653153	0.18153381	-5.5877075	2.9649353
1493852653174	-1.0717468	-4.0442047	3.8588562
1493852653195	-2.4454803	-3.239502	3.7799835
1493852653212	-2.9775238	-2.488083	3.383316
1493852653239	-2.884552	-2.752945	2.0210266
1493852653255	-2.3754272	-3.965683	0.76194763
1493852653273	-1.7447815	-6.261551	-2.20961
1493852653295	-1.4667206	-9.924866	-7.5494537
1493852653311	-0.7579193	-14.265854	-8.286392
1493852653335	-1.3146515	-16.12497	-10.77916
1493852653354	-2.3599548	-13.818039	-10.052643
1493852653392	-0.8446655	-11.781326	-7.070526
1493852653411	-0.12275696	-9.660767	-6.0092926
1493852653431	-2.9001007	-7.652878	-6.9150085
1493852653451	-6.060364	-11.514633	-9.24173
1493852653469	-3.5298157	-18.251831	-6.6873016
1493852653488	-0.6618347	-15.190399	1.2775879
1493852653508	-0.5168762	-4.48349	5.628601
1493852653527	-2.9423065	-1.904007	6.639435
1493852653548	-3.5787048	-4.8931885	4.261688
1493852653568	0.55345154	-9.626999	7.322632
1493852653589	4.237152	-14.1853485	5.2141266
1493852653607	4.943207	-15.943924	0.64045715
1493852653628	4.375168	-14.078934	0.30741882
1493852653648	3.699234	-11.299011	0.1895752
1493852653666	1.6436768	-8.728561	1.4514618
1493852653688	-0.088012695	-8.248993	1.8138733
1493852653707	-1.7028961	-8.464752	1.4666443
1493852653727	-1.9577026	-8.819412	0.66604614
1493852653747	-1.6539917	-9.068787	-0.64671326
1493852653765	-0.44528198	-9.377701	0.26635742
1493852653789	0.5474701	-9.337006	0.4476776
1493852653805	1.1536865	-8.818008	-0.33328247
1493852653826	1.6424866	-8.312805	-0.5822449
1493852653846	2.21344	-8.590103	-0.37194824
1493852653867	2.998993	-9.461533	-0.43580627
1493852653888	3.631073	-10.487503	0.089263916
1493852653906	2.895523	-11.301361	0.63682556
1493852653927	1.0812225	-11.849457	-0.43156433
1493852653947	0.3438568	-11.648544	-0.5398102
1493852653967	2.2115479	-11.045029	0.6938019
1493852654001	3.8147736	-11.032455	1.179306
1493852654006	3.035614	-11.261017	0.3791504
1493852654024	2.4939423	-11.637009	-0.18980408
1493852654044	3.6931915	-12.599136	-1.0179901
1493852654064	5.101288	-12.212662	-2.5796814
1493852654085	3.8575897	-11.442215	-3.1650238
1493852654103	0.78874207	-10.447647	-2.3283386
1493852654125	-1.1602631	-10.185852	0.96565247
1493852654144	-2.2243652	-12.453613	3.7343903
1493852654163	-3.802597	-16.72644	4.3085327
1493852654187	-4.0967255	-18.519485	2.1921082
1493852654204	-3.547058	-16.51941	-1.040863
1493852654225	-2.952713	-13.343689	-1.6342468
1493852654243	-0.2835083	-10.796387	2.6968536
1493852654263	2.6563873	-9.671478	1.0820313
1493852654285	3.8659515	-8.712799	0.030044556
1493852654306	4.3302307	-7.974411	1.4666901
1493852654324	2.4378204	-7.070404	3.2276917
1493852654345	0.45222473	-5.098282	3.7006683
1493852654365	-1.9847565	-4.1416016	4.3859253
1493852654383	-3.5140076	-3.1807556	3.8948364
1493852654402	-3.471115	-2.6930542	2.6320496
1493852654423	-2.908249	-3.1326141	1.3354034
1493852654446	-2.2288666	-4.4785004	-0.13687134
1493852654467	-1.067749	-7.1488953	-3.9371185
1493852654478	-0.74108887	-11.456711	-9.408096
1493852654498	-1.6413422	-14.428741	-9.119034
1493852654537	-2.0355377	-13.659119	-9.150269
1493852654557	-1.4945068	-11.276001	-8.147446
1493852654576	-0.5198822	-10.884537	-6.3137817
1493852654598	-0.8858032	-9.830978	-6.990555
1493852654619	-2.2486877	-6.4785004	-6.4089203
1493852654640	-3.4943695	-6.431244	-6.1589203
1493852654657	-6.2392273	-12.780609	-2.527649
1493852654678	-6.623932	-19.142227	-0.8843231
1493852654701	-2.411438	-17.395782	0.42878723
1493852654717	1.8278046	-8.491211	3.4253082
1493852654739	1.5332184	-4.0460052	9.019882
1493852654759	1.3470001	-4.6490173	9.605881
1493852654779	1.0707092	-10.0260315	6.7465515
1493852654801	1.9086151	-13.783493	1.1937714
1493852654818	3.3820648	-12.93425	-0.46479797
1493852654838	4.720276	-10.653702	-0.358963
1493852654856	3.1372833	-8.826324	0.96598816
1493852654878	0.59828186	-8.244125	0.8998108
1493852654902	-1.3138885	-7.6407013	0.26548767
1493852654917	-1.7745056	-7.697113	0.7072296
1493852654939	-1.7248383	-8.990311	-0.47477722
1493852654963	0.052139282	-10.234268	-4.4250488E-4
1493852654974	1.9955139	-9.637711	-0.43348694
1493852654994	2.789215	-8.743881	-1.2007294
1493852655014	2.5290222	-9.013123	-0.48110962
1493852655034	1.706543	-9.274017	0.7533417
1493852655054	1.4447937	-9.237213	1.2528229
1493852655076	1.6161041	-9.771072	1.3954773
1493852655097	1.1637573	-10.730576	0.23864746
1493852655113	0.6608887	-11.777435	-0.8886261
1493852655133	2.138626	-12.04245	-0.4055481
1493852655153	4.228668	-11.711243	0.749115
1493852655174	4.5787964	-11.429657	0.89094543
1493852655195	3.9828033	-11.336075	-0.015304565
1493852655216	3.7401428	-11.425751	-1.0264587
1493852655236	4.440262	-12.036148	-1.3036957
1493852655257	5.064789	-12.306366	-2.0842896
1493852655275	3.6184845	-11.625214	-2.3178558
1493852655296	0.5048981	-10.826309	-1.7356567
1493852655314	-2.427002	-10.513123	0.99935913
1493852655335	-3.810852	-12.337814	3.5598297
1493852655354	-5.108322	-16.087128	4.181885
1493852655374	-5.6004333	-18.452072	2.3244781
1493852655393	-4.0581055	-16.83345	0.02268982
1493852655413	-3.841217	-14.398834	-1.0694122
1493852655434	-1.9122314	-12.069717	2.0785065
1493852655453	2.5839996	-10.031952	1.5314789
1493852655485	4.9170227	-8.971039	-0.4282074
1493852655495	5.543915	-7.9199677	0.46800232
1493852655512	3.1372986	-6.8453064	2.1841278
1493852655528	0.47349548	-4.0955505	3.4465485
1493852655548	-1.8289642	-2.8097992	4.5556183
1493852655568	-2.9952698	-2.3173065	4.0941467
1493852655588	-3.0624847	-2.0563354	3.2645264
1493852655614	-2.6498718	-2.6935883	1.8771515
1493852655626	-2.3529663	-4.2071686	0.6353302
1493852655647	-0.79759216	-6.5766144	-3.66687
1493852655689	0.8561859	-11.774246	-11.534607
1493852655711	-1.5583038	-15.949905	-10.37709
1493852655728	-2.8998108	-13.875793	-9.420471
1493852655752	-2.5381317	-10.167816	-7.6500854
1493852655770	-1.4528503	-9.440292	-5.9926453
1493852655788	-1.2970428	-9.4227295	-6.568863
1493852655809	-4.6492004	-10.36377	-7.6847687
1493852655828	-7.7209015	-16.326263	-5.02034
1493852655849	-6.7022095	-17.886322	-3.2058868
1493852655867	-2.5680542	-12.394684	0.6582489
1493852655888	1.7098236	-5.949524	6.1821594
1493852655907	1.2598267	-4.8805695	8.105316
1493852655928	1.3904114	-7.2158813	10.457382
1493852655948	2.3580017	-11.266693	7.754898
1493852655975	2.8146515	-14.532593	0.85847473
1493852655985	2.0126495	-13.448807	-0.8813629
1493852656005	3.147583	-11.613937	0.07696533
1493852656024	3.167862	-9.401688	1.6308746
1493852656044	2.3670654	-8.472229	2.2612457
1493852656063	0.94744873	-8.309952	1.3452759
1493852656085	0.3816986	-8.437912	0.069244385
1493852656106	0.20732117	-8.939224	-1.0965729
1493852656126	0.34477234	-9.303055	-0.0104522705
1493852656147	0.100997925	-8.963074	-0.54797363
1493852656165	0.28857422	-8.270737	-2.163437
1493852656186	1.4492798	-8.300919	-2.0295563
1493852656206	2.4889984	-9.63765	-0.8360596
1493852656226	3.594986	-10.61644	1.3821716
1493852656245	3.82312	-10.774979	2.1542664
1493852656266	2.312149	-11.467026	0.12805176
1493852656283	0.31625366	-11.561127	-1.4799194
1493852656304	0.08782959	-10.945236	-0.14767456
1493852656324	2.2559814	-10.383408	1.9142761
1493852656345	4.2143707	-10.545013	1.7786102
1493852656363	3.4911957	-11.222549	-0.0121154785
1493852656384	2.2678223	-11.081345	-1.2247467
1493852656403	3.333252	-11.49025	-1.0930786
1493852656423	5.3294525	-12.794815	-1.6782532
1493852656440	5.9337616	-12.8702545	-2.8349152
1493852656461	2.1112976	-12.092102	-2.3685455
1493852656484	-1.4947357	-10.698242	0.5335388
1493852656502	-3.0772095	-12.063156	3.5296478
1493852656517	-4.53389	-16.018066	5.0705566
1493852656537	-5.5574493	-18.642715	2.5277252
1493852656556	-3.8943787	-16.656326	-0.6746063
1493852656577	-3.0146637	-14.226608	-1.4843445
1493852656600	-1.5984802	-12.093292	0.17422485
1493852656619	0.6586151	-10.423004	3.4309692
1493852656637	2.297943	-9.176529	1.812912
1493852656657	3.7821198	-7.7647552	0.8307495
1493852656676	3.1018066	-6.881378	1.9095764
1493852656701	1.3087769	-5.155548	3.5161285
1493852656716	-1.3062744	-3.4325256	4.295578
1493852656738	-2.4010773	-2.4776764	3.7575684
1493852656765	-2.3638	-1.9927368	3.207962
1493852656778	-2.384079	-2.3755188	1.9621735
1493852656797	-2.0137634	-3.7733612	0.43469238
1493852656822	-1.3638153	-6.3108063	-4.2109528
1493852656860	-0.17671204	-11.474136	-9.413452
1493852656860	-1.400177	-16.055191	-10.131775
1493852656897	-3.7071686	-15.21019	-9.92038
1493852656919	-3.449463	-10.759628	-8.034241
1493852656938	-1.857666	-9.662399	-5.7323456
1493852656958	-2.2825623	-10.115997	-6.4727325
1493852656977	-5.4540253	-11.97139	-9.43306
1493852656995	-5.9049683	-19.30371	-8.356979
1493852657014	-1.1913147	-15.98848	-2.0045776
1493852657033	-0.19210815	-4.4524994	6.651886
1493852657053	-1.5475159	-0.07409668	9.006531
1493852657073	-3.1285858	-3.6637726	4.4310303
1493852657096	-0.20539856	-10.48468	7.4042053
1493852657114	2.9391174	-15.525116	6.110016
1493852657133	5.6950226	-16.268631	0.69306946
1493852657155	5.5717316	-13.674118	-0.9048767
1493852657173	3.7076874	-11.237778	0.12265015
1493852657192	1.9759064	-8.826538	1.3723602
1493852657216	0.40647888	-7.7873993	1.9767914
1493852657234	-1.1273193	-7.976776	1.4747162
1493852657256	-1.6717682	-8.521866	0.7409668
1493852657275	-1.0379028	-9.421036	0.1055603
1493852657296	0.7918396	-9.690292	0.6636505
1493852657313	1.1927032	-9.56572	0.6480255
1493852657334	0.87693787	-9.048355	-0.4940796
1493852657354	0.90948486	-8.89917	-0.5059204
1493852657373	1.0330353	-9.599777	-0.2492981
1493852657392	2.184723	-9.938843	0.15763855
1493852657412	3.3208923	-10.259232	0.4028473
1493852657429	3.027069	-10.6857605	-0.34895325
1493852657450	1.5661011	-10.405136	-0.83636475
1493852657472	0.50227356	-10.282547	-0.39398193
1493852657500	1.6812592	-10.383087	0.48582458
1493852657509	3.8699188	-10.779755	1.1664581
1493852657531	3.5161896	-11.410461	-0.44255066
1493852657547	2.3818512	-11.211731	-1.8744812
1493852657566	4.2647552	-11.785309	-1.0370483
1493852657586	6.9210205	-13.001007	-1.2433624
1493852657606	6.160263	-13.13678	-3.8615875
1493852657625	2.5944214	-12.191818	-3.425293
1493852657645	-0.9350281	-10.521515	0.6110687
1493852657669	-3.2572632	-12.274597	3.6729736
1493852657687	-4.931122	-17.383865	5.2375793
1493852657706	-6.957062	-19.293747	3.3610535
1493852657728	-4.750595	-17.118362	-0.9815674
1493852657746	-3.5130463	-13.929016	-1.5234222
1493852657768	-0.49708557	-11.156631	1.7874146
1493852657787	2.2697144	-9.521271	1.9862213
1493852657806	2.7948456	-8.181824	2.0018158
1493852657828	2.1328735	-7.0391083	1.8598938
1493852657848	1.1632843	-6.284317	3.2029724
1493852657869	-0.09635925	-4.4908447	3.5088654
1493852657887	-1.4850159	-3.4599762	4.22966
1493852657905	-2.544342	-2.6253967	3.7834778
1493852657928	-2.410324	-2.369629	2.5997925
1493852657952	-2.225998	-2.9387665	1.5171967
1493852657968	-1.6147919	-4.3905334	-0.008712769
1493852658003	-0.7635803	-7.563965	-5.783905
1493852658023	-0.6237488	-13.221802	-9.390137
1493852658043	-2.6974792	-16.992523	-10.0425415
1493852658063	-3.6945038	-14.917801	-10.404678
1493852658083	-2.4569397	-11.208069	-7.184738
1493852658104	-0.12586975	-9.545456	-5.9643555
1493852658126	-1.0119019	-6.8230743	-6.966522
1493852658146	-3.6558838	-5.4460297	-7.8756104
1493852658165	-6.2514343	-11.764954	-7.774582
1493852658184	-5.62825	-19.156128	-4.6474915
1493852658208	-1.1513519	-15.311417	2.9181824
1493852658225	0.9049072	-5.0868835	6.037323
1493852658245	-0.65470886	-3.2455902	5.6007843
1493852658264	-0.36289978	-6.311844	6.550644
1493852658284	1.4283142	-11.022232	7.681015
1493852658305	2.173111	-14.311249	3.5297241
1493852658323	3.3204346	-14.892792	0.8600006
1493852658344	3.828827	-13.066177	0.31886292
1493852658364	3.1704407	-10.965393	0.30612183
1493852658384	1.9316406	-9.140686	0.37475586
1493852658405	1.0408936	-8.104874	0.796875
1493852658423	0.31202698	-7.953354	1.0052948
1493852658440	0.11166382	-8.514343	-0.1754303
1493852658459	0.33924866	-8.988419	-0.87150574
1493852658493	0.31671143	-9.071381	-0.3969574
1493852658503	0.4113617	-8.584061	-0.72805786
1493852658523	1.188797	-8.119171	-0.64933777
1493852658538	1.2849274	-8.686874	-0.052337646
1493852658557	1.1409454	-10.387802	0.016220093
1493852658578	1.984024	-11.593918	-0.4672699
1493852658597	2.864975	-11.033813	-0.008163452
1493852658621	1.9252472	-10.4002075	0.09378052
1493852658641	-0.015563965	-10.690308	-0.40802002
1493852658662	0.31030273	-10.771317	0.047180176
1493852658681	2.2017365	-10.674011	0.8453827
1493852658698	2.991272	-10.714767	0.73132324
1493852658722	2.6310577	-11.011322	-0.708313
1493852658740	3.4687958	-11.919418	-1.1099396
1493852658759	5.499008	-13.108719	-1.1071777
1493852658780	6.1671295	-12.614899	-1.564148
1493852658799	3.4516754	-11.867218	-2.6590118
1493852658818	-0.40455627	-10.885162	-0.9262848
1493852658837	-2.1214752	-11.987976	3.1112366
1493852658859	-3.2862854	-14.95369	4.6566467
1493852658879	-5.2197723	-18.517548	3.8905182
1493852658896	-4.153183	-17.71135	1.2374268
1493852658918	-3.3613892	-14.492813	-1.5672455
1493852658938	-2.430359	-12.133575	-0.59384155
1493852658958	1.0810852	-10.056198	3.025879
1493852658973	3.1599884	-9.006546	0.67529297
1493852658994	3.751358	-7.761139	0.28718567
1493852659025	3.6339417	-6.940155	2.0088348
1493852659033	1.3304443	-6.444809	3.6868439
1493852659054	-0.75930786	-4.508835	3.4968414
1493852659072	-2.5567474	-3.3186493	3.9767456
1493852659096	-3.0083008	-2.6582947	3.395584
1493852659115	-2.7181244	-2.655075	2.5812988
1493852659152	-2.227539	-3.3888092	1.4118042
1493852659172	-1.733078	-5.274521	-0.82318115
1493852659193	-0.63012695	-8.54628	-6.927582
1493852659209	-1.0037079	-13.077652	-9.057739
1493852659230	-2.423706	-15.378265	-10.37233
1493852659252	-2.2719421	-13.28421	-10.444077
1493852659270	-0.8210602	-11.256546	-7.813751
1493852659292	-0.16792297	-10.97052	-5.7889404
1493852659309	-2.211792	-9.623337	-7.0952606
1493852659331	-4.672989	-10.396774	-9.094742
1493852659351	-4.359543	-17.383163	-5.614868
1493852659372	-2.980896	-17.169312	1.3465424
1493852659389	-1.6215668	-8.310532	4.661957
1493852659407	-1.605835	-3.1555939	7.8423004
1493852659429	-1.1076202	-3.9970093	8.212585
1493852659448	1.0288696	-8.5364685	9.012329
1493852659473	3.330246	-13.244675	4.573242
1493852659495	3.69133	-14.55954	-1.2664795
1493852659507	2.931778	-12.695236	-1.229187
1493852659528	2.401703	-9.678543	0.38760376
1493852659547	1.3587189	-7.9572754	1.8554382
1493852659568	0.24319458	-7.6618958	1.655304
1493852659587	-0.072265625	-8.323364	0.9940033
1493852659609	0.75227356	-9.489883	0.78175354
1493852659629	2.0596313	-10.117813	0.23973083
1493852659648	2.3347168	-9.854919	-0.2873993
1493852659668	1.52388	-9.145416	-1.0945892
1493852659688	0.9341583	-8.603882	-1.0509644
1493852659709	1.0830536	-8.831787	0.3394165
1493852659729	1.1789703	-9.55101	0.77996826
1493852659749	1.8679047	-10.258057	-0.105651855
1493852659769	2.7993164	-10.620773	-0.283432
1493852659788	2.247406	-10.492447	0.3203888
1493852659808	1.027359	-10.433838	0.5401001
1493852659828	1.721695	-10.5793915	0.2616272
1493852659847	3.338501	-10.828705	0.9690399
1493852659868	2.857315	-11.056641	0.9209442
1493852659888	1.8986664	-11.069778	-0.5649719
1493852659907	3.402008	-11.598846	-0.58843994
1493852659928	5.168518	-12.915298	-0.90734863
1493852659946	4.8356934	-12.623611	-2.4999237
1493852659966	2.3419037	-12.369019	-3.5609283
1493852659993	-0.40748596	-10.623169	-1.432251
1493852660003	-1.7329865	-10.891968	2.5733948
1493852660025	-2.408249	-13.794205	4.2092743
1493852660042	-4.431595	-18.05452	3.2374573
1493852660062	-4.2077026	-18.527603	-0.15190125
1493852660082	-3.008377	-15.388519	-2.0740967
1493852660106	-2.7071228	-12.868439	-0.6773987
1493852660123	-1.5548096	-10.81192	2.669281
1493852660142	1.4979248	-9.125183	1.4048157
1493852660162	2.72081	-7.4745026	0.10066223
1493852660183	3.0825958	-6.7860565	1.6568756
1493852660203	2.1845703	-6.1393127	2.8549957
1493852660221	0.27478027	-4.578186	3.5686646
1493852660244	-2.122589	-3.617508	3.6989594
1493852660284	-3.19281	-2.8092957	2.896286
1493852660303	-2.898117	-2.48201	2.2017822
1493852660303	-2.5810852	-3.125473	1.149704
1493852660344	-1.57341	-5.438797	-1.457428
1493852660364	0.20443726	-8.9969635	-8.2000885
1493852660383	-0.46974182	-14.006699	-9.328491
1493852660402	-2.8587036	-15.702377	-9.7313385
1493852660419	-3.002182	-13.092209	-8.38974
1493852660438	-1.5238495	-10.136002	-5.689087
1493852660458	-0.7719574	-9.214508	-5.8125
1493852660478	-2.5928345	-8.123627	-7.1705933
1493852660498	-5.2260437	-9.743622	-8.227005
1493852660525	-6.7172394	-15.685486	-4.3742676
1493852660537	-3.7381134	-15.656677	-0.5396118
1493852660557	-0.73805237	-10.573593	2.2678986
1493852660576	0.62983704	-5.3940735	6.735092
1493852660596	0.31669617	-5.5409546	6.9785004
1493852660617	2.1390839	-8.819077	8.615448
1493852660637	3.7822418	-12.738159	5.2724457
1493852660657	4.0485992	-13.840881	0.026229858
1493852660678	3.3896027	-12.277206	-1.1669617
1493852660698	2.784378	-10.062881	0.120910645
1493852660715	1.4933472	-8.482361	1.161026
1493852660738	0.18331909	-8.0624695	0.77438354
1493852660757	-1.0464935	-8.18129	0.12695313
1493852660777	-1.1354828	-8.908966	-0.59262085
1493852660797	0.022125244	-9.45079	-0.82681274
1493852660815	1.6565704	-9.290512	0.13668823
1493852660837	2.2195435	-9.079956	-0.266037
1493852660855	2.197281	-8.830811	-1.111908
1493852660876	2.1323395	-8.903519	-0.30976868
1493852660898	1.4121246	-9.474838	1.0624695
1493852660915	0.9135132	-10.317551	1.0434418
1493852660935	1.4875946	-10.589737	0.3905487
1493852660955	1.5077362	-10.3398285	-0.40756226
1493852660976	0.41270447	-10.60788	-1.1019135
1493852661003	0.36976624	-11.071335	-0.28129578
1493852661015	2.3085785	-11.048248	0.7105408
1493852661033	3.8808289	-10.949097	0.99079895
1493852661052	3.671173	-11.053665	0.43301392
1493852661071	3.170517	-11.487534	-0.9239197
1493852661093	4.708725	-12.550598	-0.9713135
1493852661112	5.8187866	-13.159225	-2.0993347
1493852661132	5.2925262	-12.558151	-2.6369781
1493852661155	2.849884	-11.787323	-2.3712616
1493852661174	-0.5136719	-10.975906	0.5603485
1493852661194	-2.6935577	-12.268753	3.6031952
1493852661214	-3.9259644	-15.266525	4.8430786
1493852661230	-4.6611633	-16.988205	2.8351746
1493852661254	-3.3336334	-14.972626	-0.6330719
1493852661275	-2.9377441	-13.167969	-1.4849243
1493852661294	-2.6575623	-11.725143	1.5563812
1493852661313	1.0737	-9.623444	1.1794434
1493852661330	2.46875	-8.931641	0.9973602
1493852661352	4.248993	-8.342499	0.36935425
1493852661373	3.5557861	-7.840149	2.3302307
1493852661393	1.6350555	-5.8699493	2.5230865
1493852661410	-0.8215027	-4.395172	3.433258
1493852661448	-2.5438385	-3.543274	3.497284
1493852661469	-3.167694	-3.0293427	2.7192688
1493852661503	-3.1430817	-3.3422089	1.2709656
1493852661510	-3.0224152	-4.695984	-0.2718506
1493852661533	-2.1626282	-6.8996735	-3.3017578
1493852661546	-0.74479675	-10.420151	-8.732727
1493852661566	-0.7250366	-13.597046	-7.7339935
1493852661586	-1.4229431	-13.850418	-9.200241
1493852661606	-1.6737671	-12.446945	-8.418121
1493852661626	-1.2016144	-11.394974	-5.9846344
1493852661647	-1.3703918	-9.680649	-5.823044
1493852661667	-2.7054596	-7.8459625	-7.1767883
1493852661686	-4.174225	-10.636307	-7.7423096
1493852661708	-4.1901855	-16.605133	-3.3250732
1493852661723	-2.8557892	-16.038406	0.10177612
1493852661749	-1.0852509	-8.395782	4.230118
1493852661766	-0.8795929	-3.9232178	8.23848
1493852661788	-2.158844	-5.016342	7.540863
1493852661808	-0.6501312	-9.480164	7.596344
1493852661827	2.5781708	-14.398361	4.217682
1493852661847	5.0455475	-14.301758	-0.3652954
1493852661867	6.0892944	-11.673767	-0.3846283
1493852661886	4.9336395	-8.898148	-0.23622131
1493852661906	2.8318176	-7.662155	0.51564026
1493852661928	1.4395447	-7.733124	1.3017273
1493852661945	0.28771973	-8.401581	1.1217651
1493852661966	-0.17424011	-9.244247	0.20690918
1493852661985	-0.016540527	-9.719208	-0.10046387
1493852662004	0.008178711	-9.966797	-0.32302856
1493852662025	0.04396057	-9.575912	-1.178421
1493852662043	0.32069397	-8.983032	-0.37442017
1493852662061	0.6205902	-8.826187	1.3747559
1493852662082	0.95428467	-9.535126	1.8846436
1493852662104	1.683197	-10.516846	0.93356323
1493852662122	2.2827148	-10.284882	-0.19416809
1493852662144	1.9424744	-10.011963	-0.1088562
1493852662164	1.2346039	-10.494476	0.81056213
1493852662183	1.2404938	-10.68515	0.18844604
1493852662204	2.1492462	-10.488602	0.5456085
1493852662223	2.7648926	-10.632385	1.4449463
1493852662241	2.226471	-10.978912	0.2232666
1493852662263	3.3243713	-11.617691	0.16300964
1493852662284	5.1647797	-12.938126	-0.040298462
1493852662303	5.0185394	-12.745605	-1.9451294
1493852662321	2.510025	-12.189438	-4.112274
1493852662342	-0.68006897	-10.9279785	-2.7721863
1493852662361	-1.4358978	-10.456909	0.7428131
1493852662382	-2.4548035	-12.174606	3.4657593
1493852662402	-4.04039	-15.719589	3.54068
1493852662420	-5.597687	-19.090302	1.9102631
1493852662437	-3.3996735	-16.389282	-1.0487976
1493852662457	-2.6046143	-13.273209	-0.74964905
1493852662481	-0.6334839	-10.940186	1.39357
1493852662498	3.195221	-9.260193	1.5679932
1493852662518	3.4169006	-8.713852	0.4803772
1493852662547	1.8827972	-7.8340607	0.48104858
1493852662556	1.2303772	-6.863617	1.9098206
1493852662595	-0.024246216	-5.599304	2.4338226
1493852662615	-0.57510376	-4.1366425	3.052887
1493852662636	-1.5771332	-3.1338959	3.1156616
1493852662658	-2.2886963	-2.5502167	2.975998
1493852662678	-2.5997162	-2.6374512	1.8427887
1493852662702	-2.4203491	-3.6982727	0.34576416
1493852662718	-1.9745178	-5.566452	-1.9123077
1493852662737	-1.3747406	-10.457352	-9.688309
1493852662758	-0.19487	-15.706604	-9.794998
1493852662778	-0.079940796	-15.882492	-10.5060425
1493852662798	-1.3494263	-11.219879	-9.018707
1493852662817	-1.3310852	-9.284439	-7.0084534
1493852662834	-0.73960876	-9.937927	-5.6779633
1493852662857	-2.5319977	-10.716339	-7.195633
1493852662877	-4.975525	-13.64801	-8.656006
1493852662893	-4.724121	-17.706131	-4.4884033
1493852662916	-3.3963165	-13.983765	2.171936
1493852662935	-3.1346893	-4.9042816	4.620758
1493852662955	-2.964035	-2.8711548	6.287079
1493852662973	-1.7267761	-5.4580536	5.6132507
1493852662994	1.7501373	-10.103821	7.61644
1493852663015	5.1974335	-13.923431	5.7759705
1493852663046	6.2087708	-14.570877	-0.53767395
1493852663051	4.8757324	-12.854828	-0.9688568
1493852663070	3.2230835	-9.99678	0.10171509
1493852663092	0.96720886	-8.032257	0.7176819
1493852663110	-0.6319275	-7.689209	0.9335785
1493852663131	-1.8782501	-8.365784	0.36587524
1493852663153	-2.0875092	-9.142807	-1.0998688
1493852663173	-0.8070984	-9.387344	-1.1685486
1493852663192	1.4844666	-9.218842	0.5131836
1493852663216	2.429245	-9.296249	0.28355408
1493852663229	2.2891846	-9.294434	-0.5640869
1493852663253	1.8986206	-9.083511	-0.105285645
1493852663273	1.0809174	-9.078018	0.9901886
1493852663293	0.50177	-9.353699	1.3898163
1493852663313	0.9797058	-9.9266205	0.5805664
1493852663329	1.7478027	-10.66893	-0.43841553
1493852663352	1.3777313	-11.074219	-0.74728394
1493852663371	0.7236328	-11.280762	-0.67684937
1493852663392	1.7107544	-11.16864	-0.16041565
1493852663412	3.7354279	-11.128479	0.9149475
1493852663427	3.6556854	-11.240158	0.5059204
1493852663448	2.8304443	-11.036575	-0.04725647
1493852663467	4.345169	-12.070038	0.31495667
1493852663493	5.402664	-13.016586	-0.7950287
1493852663518	4.2826233	-12.659164	-3.2618256
1493852663526	0.5348511	-11.328522	-2.7495728
1493852663552	-2.487442	-9.954651	-1.1298218
1493852663566	-3.2981415	-10.649368	1.5277405
1493852663592	-4.1761475	-13.65657	3.260315
1493852663605	-5.1578827	-17.518204	2.847046
1493852663625	-3.5228577	-17.095474	-0.16088867
1493852663646	-1.9487915	-14.010666	-1.6714325
1493852663666	-1.0906067	-11.885086	-0.11689758
1493852663686	0.55210876	-10.125793	4.272522
1493852663726	2.2661743	-9.102341	0.8842926
1493852663745	2.4799652	-8.296677	1.1487732
1493852663769	1.6909637	-7.630844	1.2134705
1493852663785	0.970047	-6.5463715	2.0379333
1493852663806	0.1678009	-5.250473	2.361267
1493852663825	-0.9126587	-4.235626	2.3530731
1493852663844	-1.6963501	-3.6090088	2.6808624
1493852663865	-2.2133026	-3.3678284	2.3541565
1493852663883	-2.3352814	-3.649704	1.3589783
1493852663906	-2.087082	-4.7756805	-0.68614197
1493852663925	-1.546341	-6.9755707	-4.3435974
1493852663943	-0.41342163	-11.660416	-10.782181
1493852663966	0.10861206	-15.911407	-9.976303
1493852663985	-0.6647186	-15.511276	-10.545364
1493852664005	-0.9154968	-11.555435	-7.990326
1493852664023	-0.6350708	-9.809311	-5.477951
1493852664054	-0.7286072	-9.734299	-6.485382
1493852664061	-2.651535	-11.429565	-7.4395905
1493852664080	-4.442856	-15.520615	-6.7736053
1493852664101	-4.345413	-14.9384	-2.4157715
1493852664120	-2.9296417	-8.345291	3.158844
1493852664140	-3.1847534	-4.3746796	4.5966034
1493852664163	-3.2351685	-5.130066	4.8101196
1493852664179	-0.9892731	-7.979721	5.624344
1493852664201	2.2690582	-11.270462	6.825699
1493852664223	4.439331	-13.380188	3.3025818
1493852664240	4.7816772	-13.402283	-0.5885773
1493852664263	3.9119568	-11.737961	-0.76756287
1493852664282	2.8590393	-9.37291	-0.20239258
1493852664302	2.072403	-7.9272614	0.4755249
1493852664321	1.1235352	-8.374588	0.8687744
1493852664340	0.088272095	-9.211044	0.93370056
1493852664362	-0.3100586	-9.72496	0.21148682
1493852664379	-0.40673828	-9.388565	-0.92755127
1493852664403	-0.03768921	-8.710831	-0.3644867
1493852664419	0.46263123	-8.78186	0.5494385
1493852664440	0.5732269	-9.11615	0.02368164
1493852664456	1.5058746	-9.076843	0.33319092
1493852664478	2.0858612	-9.339188	0.9089508
1493852664498	2.0473175	-9.708221	0.46653748
1493852664519	2.425644	-9.948181	-0.7342529
1493852664540	2.1360474	-9.805466	-0.21981812
1493852664564	1.2763367	-10.34584	0.078704834
1493852664575	0.15145874	-11.287369	-0.045822144
1493852664595	0.86894226	-11.408096	-0.045532227
1493852664614	3.8515015	-10.872482	1.1966095
1493852664634	4.927994	-11.090256	1.9035339
1493852664655	2.9059143	-11.358124	0.56340027
1493852664678	1.864975	-11.2955475	-0.21226501
1493852664696	4.0050354	-12.129562	0.17370605
1493852664718	4.8461	-12.051117	-2.093338
1493852664736	2.6293488	-12.008896	-4.766098
1493852664757	-0.64964294	-10.8437805	-3.1129456
1493852664777	-2.1470795	-10.129395	-0.2763977
1493852664798	-3.065567	-11.126205	2.3865204
1493852664817	-3.948532	-14.431427	3.7945404
1493852664835	-5.7374268	-18.83583	2.4238892
1493852664855	-4.9086	-17.551483	-1.4298401
1493852664893	-3.2963104	-13.740356	-1.5585175
1493852664916	-2.1546326	-11.779282	0.43107605
1493852664935	0.303833	-10.162231	3.206604
1493852664954	1.314682	-9.331482	1.1308899
1493852664975	2.0457	-8.200348	0.6670227
1493852664993	1.8994293	-7.390686	1.7761993
1493852665016	0.73135376	-6.412735	1.9372711
1493852665037	-0.72621155	-4.959778	2.3728333
1493852665052	-2.1369781	-3.3056183	2.352356
1493852665071	-2.872406	-2.3493958	2.2415314
1493852665090	-2.6628876	-2.2395325	1.6717987
1493852665111	-1.8757019	-3.2366486	0.5038452
1493852665129	-0.7854767	-5.2274933	-1.0126953
1493852665149	0.276474	-8.37291	-5.283142
1493852665172	0.5108795	-13.342865	-11.970352
1493852665190	-0.7455292	-16.66005	-13.654083
1493852665211	-1.9699402	-15.212555	-12.792999
1493852665229	-1.8501282	-11.951645	-7.707657
1493852665250	-2.4511719	-9.993332	-5.0707397
1493852665273	-3.7319489	-10.970535	-5.416336
1493852665292	-4.6847076	-15.301849	-5.359192
1493852665312	-4.5309906	-14.917023	-0.88705444
1493852665330	-2.9030762	-8.602585	4.701767
1493852665352	-0.9882355	-4.5689087	5.2204437
1493852665371	-0.34347534	-5.3163605	6.494385
1493852665391	0.6783142	-8.464432	6.6432037
1493852665409	2.0122986	-11.941315	5.204254
1493852665427	3.1056213	-13.560867	0.9521942
1493852665445	3.8223877	-12.615875	-0.54078674
1493852665466	3.7608948	-10.755615	0.63435364
1493852665489	3.0859222	-8.997803	1.2819977
1493852665508	2.1287384	-8.211105	0.75605774
1493852665528	0.8224335	-8.460953	0.33032227
1493852665548	0.1581726	-8.861908	0.16177368
1493852665576	-0.48744202	-9.315216	0.13066101
1493852665585	0.01739502	-9.334717	0.818985
1493852665604	1.3333435	-9.359314	1.6038818
1493852665624	1.6072693	-9.684128	0.49186707
1493852665644	1.5121613	-9.597122	-0.057006836
1493852665666	1.0783234	-9.449188	0.49235535
1493852665685	1.34552	-9.540512	0.6755371
1493852665705	2.323532	-10.0737915	-0.03149414
1493852665724	2.089264	-10.397827	-0.20275879
1493852665745	1.3232117	-10.045929	-0.17407227
1493852665768	0.4076538	-10.086624	-0.09095764
1493852665785	1.5065765	-10.333939	0.10079956
1493852665807	4.703354	-10.698776	1.231369
1493852665827	5.755951	-11.090561	1.4964752
1493852665843	2.9871216	-10.917053	-0.29403687
1493852665866	0.13972473	-10.72406	-1.9213867
1493852665884	2.8143768	-11.77626	-0.16749573
1493852665903	5.26799	-12.617294	-1.8860931
1493852665923	3.825592	-12.547104	-3.958603
1493852665943	-0.22775269	-11.090408	-2.8424072
1493852665963	-2.4398804	-10.399918	0.17558289
1493852665985	-3.0605469	-12.079041	2.478119
1493852666006	-4.416916	-16.07077	4.259384
1493852666049	-6.8141937	-19.43544	2.3421783
1493852666061	-5.077774	-17.207108	-1.8787384
1493852666079	-4.006592	-13.447662	-1.9724121
1493852666099	-2.2260742	-11.191666	0.5379791
1493852666119	1.8796692	-9.463287	3.5271606
1493852666141	2.7553558	-8.633255	1.1616211
1493852666158	3.0769043	-7.59787	0.98646545
1493852666178	2.7414093	-6.475281	1.9818573
1493852666199	0.82058716	-5.6997986	2.4109344
1493852666218	-1.2058411	-4.402008	2.74971
1493852666236	-2.0593567	-3.3718567	2.7589111
1493852666254	-2.705307	-2.6934662	2.8460236
1493852666275	-2.6014557	-2.8318481	1.7498322
1493852666295	-1.8825378	-3.899582	0.23332214
1493852666315	-0.8221283	-5.7180023	-1.8886719
1493852666335	-0.05519104	-9.093002	-6.7861633
1493852666354	-0.95610046	-13.613907	-11.967255
1493852666376	-2.6526794	-15.59581	-12.542221
1493852666394	-2.1317291	-13.620773	-11.559509
1493852666416	-0.5089264	-11.169449	-7.5022736
1493852666434	-0.7076416	-10.008316	-5.7217865
1493852666456	-3.6369934	-10.168991	-5.928253
1493852666475	-6.015732	-13.094101	-5.325943
1493852666496	-6.6466675	-15.149155	-1.5917664
1493852666515	-4.259094	-11.816376	1.5889587
1493852666533	-0.32077026	-6.4139557	3.4290466
1493852666551	1.4413452	-4.833847	6.55925
1493852666574	1.5090485	-7.132248	6.540497
1493852666593	1.8691559	-10.767563	5.6007385
1493852666613	2.0861664	-13.60054	2.1156921
1493852666634	2.5997925	-13.366562	-0.049545288
1493852666654	3.4560242	-11.530289	-0.09564209
1493852666673	2.8458252	-9.702988	0.34962463
1493852666693	2.3192902	-8.469589	0.6079712
1493852666714	1.4403381	-8.4674225	0.60112
1493852666735	0.70214844	-8.805832	0.45889282
1493852666754	0.5230255	-9.199814	-0.2091217
1493852666775	1.1319733	-9.149292	-0.14094543
1493852666794	1.1670837	-8.935898	0.40074158
1493852666815	0.50930786	-9.165131	0.07106018
1493852666834	0.28375244	-9.197647	0.5273895
1493852666853	0.1904602	-9.010513	0.69337463
1493852666874	0.43528748	-9.088043	0.97340393
1493852666893	1.1865082	-9.3980255	0.35873413
1493852666916	2.4893494	-9.925507	-1.4062042
1493852666933	3.3062134	-10.699753	-1.0775299
1493852666954	2.609024	-11.140991	-0.30856323
1493852666973	1.6286469	-11.260239	-0.04386902
1493852666994	3.060852	-10.99968	0.9837189
1493852667012	4.7094116	-11.113678	1.3431396
1493852667038	3.622055	-11.452591	0.099746704
1493852667050	2.6700745	-11.886841	-0.64416504
1493852667075	4.1550446	-13.049347	-1.088562
1493852667089	4.624359	-12.174881	-3.019516
1493852667108	1.6269226	-11.757355	-3.9040985
1493852667129	-1.4745026	-10.600952	-2.639679
1493852667149	-1.9147034	-11.012985	1.7277832
1493852667192	-2.9406586	-13.668091	3.8279572
1493852667193	-5.0252686	-18.318192	4.112747
1493852667232	-5.609253	-19.43457	0.006225586
1493852667247	-3.685257	-15.109863	-2.0324554
1493852667268	-2.7811737	-12.31218	-0.5678406
1493852667290	-0.44030762	-10.180527	1.6573639
1493852667310	2.1384583	-8.789185	0.8206787
1493852667329	2.765503	-7.8302155	1.0697479
1493852667352	2.8035278	-7.2425995	1.3087769
1493852667368	1.8255768	-6.157959	2.5108185
1493852667390	-0.38658142	-4.6866302	2.917801
1493852667407	-2.0876923	-3.2135773	2.8199768
1493852667427	-3.0450592	-2.2279205	2.6993408
1493852667446	-2.9717102	-1.953476	2.058548
1493852667464	-2.3120117	-2.6654663	0.97158813
1493852667485	-1.2817688	-4.2073975	-0.93774414
1493852667502	-0.31196594	-7.137558	-5.225815
1493852667522	0.20521545	-12.420959	-10.788345
1493852667545	-1.3300934	-16.459686	-11.786011
1493852667562	-2.9972382	-16.12378	-13.280563
1493852667582	-1.4446869	-13.660599	-9.098801
1493852667602	-0.8583374	-11.624176	-5.7198944
1493852667622	-3.7430573	-8.902695	-6.2422028
1493852667645	-5.9532166	-9.907349	-6.077652
1493852667663	-5.6235046	-14.1866455	-2.8821716
1493852667685	-4.708008	-12.932968	1.5525055
1493852667704	-2.416809	-7.8977814	5.027588
1493852667723	-0.5587158	-5.396744	6.8596497
1493852667746	0.10383606	-6.8116455	6.899719
1493852667764	1.8768768	-9.907257	6.6634827
1493852667786	3.6641235	-13.055222	4.005661
1493852667805	4.6591797	-13.901337	-0.11767578
1493852667825	5.3277893	-12.188446	-0.95407104
1493852667839	4.423065	-9.945465	0.36573792
1493852667861	2.6337738	-8.198669	0.9417267
1493852667882	0.29937744	-7.742874	0.03768921
1493852667903	-1.2312317	-8.081497	-0.47929382
1493852667923	-1.3743134	-8.764343	-0.852005
1493852667941	-0.25280762	-9.112488	-0.35643005
1493852667963	1.0917816	-9.185638	1.2362213
1493852667983	1.332962	-9.318115	0.58924866
1493852668005	1.0704956	-9.050827	-0.09239197
1493852668022	1.2418823	-8.77272	0.54133606
1493852668045	1.1025085	-9.411591	1.3436279
1493852668061	1.2032013	-10.270279	0.2910614
1493852668078	2.1940308	-11.030945	-0.6561432
1493852668098	2.7245483	-11.3797	-0.8096771
1493852668117	1.6437378	-11.320633	0.10443115
1493852668138	2.1288605	-10.952026	1.2742615
1493852668158	4.232437	-11.127213	0.8677063
1493852668179	3.6533508	-11.336456	0.072753906
1493852668199	1.9103699	-11.206055	-1.0559845
1493852668223	3.9383698	-11.833725	0.013183594
1493852668238	6.6679688	-12.898727	-0.5891571
1493852668261	5.729019	-13.075485	-3.4011688
1493852668282	1.1594543	-12.619904	-3.5178528
1493852668300	-2.570877	-10.425339	-1.3424072
1493852668320	-2.801529	-11.6862335	2.7714996
1493852668360	-3.2992096	-14.764618	4.389389
1493852668377	-4.91481	-18.580109	3.074173
1493852668398	-4.6009216	-18.423096	-0.45224
1493852668417	-2.9668274	-14.737503	-1.4169464
1493852668435	-2.4070282	-12.353073	0.088134766
1493852668455	-0.93666077	-10.823868	1.8887177
1493852668477	2.0121307	-9.4947815	2.7724457
1493852668498	2.0752258	-8.671249	0.70884705
1493852668516	1.9087677	-7.589264	1.3981171
1493852668543	1.4946136	-6.14122	3.5330353
1493852668554	0.056396484	-4.3063965	4.1924744
1493852668572	-1.5742035	-2.4019928	3.7421112
1493852668594	-2.2811432	-1.213501	3.228012
1493852668613	-2.207718	-1.0709229	2.4141846
1493852668634	-1.8904877	-2.2943878	1.2434692
1493852668655	-1.106308	-4.657181	-1.763031
1493852668673	-0.8977814	-9.181	-7.0583344
1493852668694	-2.6394196	-14.783157	-9.623047
1493852668713	-5.0930786	-16.574188	-10.436661
1493852668736	-5.416931	-14.035721	-9.331696
1493852668755	-3.1958466	-11.80661	-6.4666443
1493852668775	-2.5041351	-10.4570465	-5.916321
1493852668794	-5.9540863	-9.212128	-7.220352
1493852668815	-8.421005	-11.893707	-8.0290985
1493852668834	-7.000473	-16.410034	-5.973358
1493852668855	-1.4944458	-13.290543	-0.84620667
1493852668873	2.3190613	-5.3589478	5.882248
1493852668894	0.90289307	-2.498932	7.807724
1493852668913	-0.6761627	-5.5184326	6.9888306
1493852668934	0.5209503	-10.292831	6.968399
1493852668955	2.6130676	-14.14798	3.1118164
1493852668971	3.3317566	-14.657349	0.8951111
1493852668992	3.879486	-12.847855	0.92178345
1493852669013	3.552246	-10.7812195	0.5259857
1493852669034	2.6633453	-8.774109	0.7655487
1493852669059	1.3804016	-8.125916	1.0587158
1493852669068	-0.1812439	-8.640518	0.9335327
1493852669088	-0.46174622	-9.815613	0.22476196
1493852669108	0.5801239	-9.767517	-0.383667
1493852669128	0.5352936	-9.2482605	-0.64959717
1493852669148	-0.0055999756	-8.767212	-1.2163239
1493852669167	0.4539795	-8.15538	-0.46669006
1493852669191	1.4313049	-7.9461823	0.045074463
1493852669213	1.9778595	-8.658218	0.24040222
1493852669230	2.3757782	-10.20488	-0.6161041
1493852669248	2.7329407	-10.829437	-0.7583771
1493852669270	2.0678864	-11.211945	-0.1407013
1493852669289	0.4497223	-11.395203	0.3768158
1493852669309	0.060821533	-10.213806	0.2574463
1493852669328	2.7760315	-10.073395	1.3439636
1493852669352	4.303711	-11.335403	1.343811
1493852669369	2.8186188	-11.747086	-0.5160217
1493852669386	2.1369781	-11.553131	-1.319046
1493852669409	4.7788696	-13.094147	-0.71269226
1493852669433	6.4735565	-13.950577	-2.8315125
1493852669447	5.0683746	-12.5980835	-2.456543
1493852669485	0.060760498	-11.176102	-3.4936066
1493852669508	-2.1130066	-10.800186	0.9901886
1493852669526	-2.3205566	-13.138504	4.1261597
1493852669544	-2.5189056	-16.381592	5.5243683
1493852669565	-3.943512	-18.036697	2.4212494
1493852669595	-2.919464	-15.222855	-1.002594
1493852669603	-3.1774445	-13.131409	-1.186264
1493852669622	-2.7484283	-11.519684	0.16297913
1493852669643	-0.3813324	-9.529083	0.5352173
1493852669666	2.0568237	-8.105621	-0.46827698
1493852669683	4.344208	-7.18721	0.74191284
1493852669703	4.878662	-6.973236	2.9456177
1493852669723	2.4191895	-5.779236	3.7084808
1493852669742	-0.5957794	-4.338623	3.693573
1493852669765	-2.8612976	-3.672577	3.5599976
1493852669784	-3.344574	-3.4279633	2.7928467
1493852669804	-3.0152893	-3.8407288	1.7305145
1493852669823	-2.4225464	-4.562332	0.22750854
1493852669844	-1.8625336	-6.4827423	-3.745102
1493852669863	-1.5598145	-9.856003	-8.024643
1493852669884	-1.7957764	-12.878387	-7.583374
1493852669903	-2.2017975	-12.861374	-8.631302
1493852669922	-2.789795	-10.905273	-8.35997
1493852669944	-1.8330688	-10.584213	-7.641159
1493852669960	-1.5710144	-10.285492	-6.9881744
1493852669980	-3.6204987	-8.437347	-7.339752
1493852670003	-6.99675	-10.561432	-7.2574463
1493852670020	-7.819626	-17.096436	-4.850891
1493852670040	-3.2166443	-17.993362	-0.7453613
1493852670067	1.2682495	-10.539413	5.430496
1493852670077	0.97924805	-3.7185822	8.2895355
1493852670099	-1.0907898	-4.7799683	8.813675
1493852670118	0.0038604736	-9.104172	9.552597
1493852670137	2.1522522	-15.009171	4.883377
1493852670157	3.8707123	-15.46666	0.03791809
1493852670177	5.0126038	-12.413895	-1.0063934
1493852670202	4.01445	-8.795898	0.9544983
1493852670219	1.6329498	-7.042679	1.9946442
1493852670242	-0.82984924	-6.6230164	0.8703308
1493852670258	-2.4920502	-7.233917	0.28671265
1493852670280	-2.152649	-8.8798065	-0.085617065
1493852670299	-0.18754578	-10.750839	-0.416687
1493852670319	2.108841	-10.772339	-1.8470154
1493852670338	3.7812042	-9.465958	-2.8741913
1493852670359	4.2296753	-8.457169	-0.8339691
1493852670379	3.733551	-8.489197	2.7126465
1493852670396	2.2444458	-9.590866	2.8061066
1493852670418	0.8744812	-9.55751	0.6354523
1493852670434	0.16749573	-9.500259	-1.0802155
1493852670455	-0.37583923	-10.237015	-0.8191681
1493852670476	-0.32855225	-11.216629	-0.10800171
1493852670493	2.664566	-11.309311	0.8708954
1493852670518	4.389847	-11.294983	0.65974426
1493852670538	3.8982239	-11.250931	0.7755127
1493852670554	3.0508575	-10.895355	0.25852966
1493852670580	2.4877014	-10.631683	-0.93865967
1493852670599	4.5097656	-12.537857	-0.39286804
1493852670630	6.0881042	-13.481094	-2.021164
1493852670650	4.1529083	-12.079941	-3.0666962
1493852670671	-0.1265564	-11.985153	-1.9519348
1493852670690	-2.2752838	-11.273453	1.5069733
1493852670714	-3.2301025	-13.017075	4.6317596
1493852670733	-4.7492065	-16.65982	4.234024
1493852670751	-5.5975647	-19.277985	2.0137787
1493852670772	-3.1963043	-17.280685	-0.4209442
1493852670790	-1.783783	-13.595764	-0.8701477
1493852670813	1.1444092	-10.991165	1.8248901
1493852670829	3.6607056	-9.217285	0.4958191
1493852670854	3.7288055	-8.045685	-0.154953
1493852670875	3.3444061	-6.8648834	1.380722
1493852670892	1.88591	-5.891281	3.4410095
1493852670914	0.05265808	-4.4597626	4.1613464
1493852670935	-1.5729065	-3.070404	4.8446655
1493852670953	-3.0494537	-2.4816742	4.4101257
1493852670973	-3.1101532	-2.307434	3.6110992
1493852670993	-2.8156128	-2.8541718	2.0151215
1493852671012	-2.5615845	-4.4120026	-0.30192566
1493852671032	-2.019226	-7.2539215	-5.4067535
1493852671054	-1.2383575	-11.817505	-9.99382
1493852671069	-1.234375	-15.745605	-9.014282
1493852671089	-3.017746	-15.900848	-11.529358
1493852671115	-3.2467651	-13.352417	-9.617401
1493852671127	-1.2687225	-10.943481	-7.0519867
1493852671147	-1.5306091	-8.5637665	-6.940567
1493852671167	-4.651413	-9.389847	-8.261963
1493852671186	-7.0272675	-15.290894	-7.336563
1493852671208	-4.4385834	-15.899033	0.20903015
1493852671227	-1.1409302	-8.161743	5.7062225
1493852671246	-1.8419342	-3.807495	5.801758
1493852671266	-2.6311188	-5.69722	5.8841248
1493852671287	-0.89953613	-9.556366	8.811508
1493852671308	2.3561554	-13.079651	7.65625
1493852671329	4.284546	-14.991501	3.2945557
1493852671348	3.855774	-14.171127	0.98757935
1493852671368	3.4996185	-11.817093	0.6798096
1493852671387	2.8857727	-9.084732	0.825058
1493852671409	1.9975739	-8.019226	1.1887054
1493852671427	1.1315613	-8.118637	1.2099457
1493852671448	0.3391266	-8.970795	0.6859131
1493852671464	-0.27487183	-9.382034	-0.5501404
1493852671485	-0.30895996	-9.402512	-0.35604858
1493852671508	0.035369873	-9.172134	-0.43362427
1493852671527	0.7792053	-8.28511	-1.3222504
1493852671546	2.1473083	-7.6827393	-2.011734
1493852671565	3.0937347	-8.573029	-0.71702576
1493852671583	3.726181	-9.22879	1.0923157
1493852671615	3.3337555	-9.797958	2.0028992
1493852671622	2.3899536	-11.040024	0.5357666
1493852671641	0.21012878	-10.967117	0.04560852
1493852671663	0.20030212	-11.589432	-1.2051086
1493852671681	2.8896637	-11.437103	-0.07337952
1493852671703	5.2130127	-11.568359	0.51953125
1493852671723	4.8544006	-11.983643	-0.26345825
1493852671762	3.2456055	-11.930603	-1.4515686
1493852671783	3.4745636	-12.286728	-0.822052
1493852671801	5.402481	-13.401184	-0.98553467
1493852671822	5.3956146	-12.2061	-1.6529846
1493852671844	0.18338013	-12.503998	-2.6771698
1493852671867	-3.0264435	-10.593491	-0.25283813
1493852671879	-2.846054	-12.281937	3.4982452
1493852671900	-3.4511719	-15.999542	4.8887787
1493852671921	-5.288269	-18.887741	3.1027832
1493852671940	-4.0587616	-17.504486	-0.4933319
1493852671961	-3.0043945	-14.5429535	-1.3159332
1493852671982	-1.4637909	-12.346848	0.55747986
1493852671999	2.2498016	-10.203506	3.7280884
1493852672022	3.482376	-8.926987	1.1775513
1493852672039	4.2541656	-7.871216	1.0923767
1493852672060	3.2247314	-6.4707184	2.8822174
1493852672086	1.0051575	-4.8428497	3.835968
1493852672097	-0.93518066	-2.914978	4.5424957
1493852672170	-2.382965	-1.9345093	4.455551
1493852672170	-2.848755	-1.4707947	3.689804
1493852672170	-2.7190247	-2.0510254	2.375946
1493852672208	-2.5774841	-3.5197449	0.42547607
1493852672208	-2.1771393	-6.4901886	-4.0435944
1493852672233	-1.4120483	-11.54631	-7.785736
1493852672240	-2.42865	-16.840027	-8.752823
1493852672254	-4.1352386	-17.160599	-11.006317
1493852672273	-3.189972	-12.455048	-9.1401825
1493852672293	-0.9306946	-10.130234	-5.818451
1493852672313	-0.42160034	-9.06488	-6.0686493
1493852672333	-3.4575195	-8.833847	-8.705475
1493852672353	-5.664459	-12.90596	-7.715271
1493852672372	-5.4635315	-15.9608	-1.0146484
1493852672392	-3.6515503	-12.303604	2.6161957
1493852672412	-1.7597656	-6.5827026	4.6058655
1493852672432	-1.3706818	-4.810974	5.778763
1493852672452	0.051254272	-6.8530884	7.14003
1493852672471	3.4149628	-10.635315	7.7777405
1493852672491	5.166321	-13.870026	3.382721
1493852672512	4.834198	-14.152496	-0.11343384
1493852672531	4.4507446	-12.389648	-0.44387817
1493852672551	2.8307495	-9.93428	0.30010986
1493852672572	1.0402374	-8.451309	0.82650757
1493852672593	-0.71144104	-7.770279	0.7431946
1493852672612	-1.2600555	-7.8552246	0.62202454
1493852672632	-1.7091522	-8.591202	-0.5225067
1493852672652	-0.95262146	-9.311798	-1.3934479
1493852672672	1.0886688	-9.174744	0.42945862
1493852672691	2.0561981	-8.818527	0.04698181
1493852672710	2.8884125	-8.235855	-0.5622864
1493852672730	2.8571777	-8.604034	-0.2348175
1493852672748	2.1084595	-9.894623	0.2698059
1493852672768	2.4652557	-11.250671	-0.53466797
1493852672788	1.9713287	-10.306961	0.796402
1493852672810	1.1832886	-10.49559	-0.23165894
1493852672828	-0.7211914	-10.895203	-1.7443848
1493852672848	0.9033661	-10.727554	0.5680084
1493852672867	5.0002136	-11.486755	2.1975403
1493852672887	4.356079	-12.0937195	0.9095917
1493852672926	1.4906616	-11.570206	-0.2501831
1493852672946	1.0535278	-10.999954	-1.3495636
1493852672966	4.484726	-11.720718	-1.2112579
1493852672986	6.7030487	-13.220505	-2.8203735
1493852673006	5.860321	-12.769608	-2.4151459
1493852673027	1.8992767	-12.225723	-1.3996887
1493852673046	-1.1502533	-11.036911	1.3299713
1493852673066	-3.0284882	-12.810043	3.8034058
1493852673086	-4.987793	-16.589035	4.2266083
1493852673105	-6.6705933	-19.16977	2.0551605
1493852673125	-3.9478912	-16.821457	-0.89123535
1493852673145	-2.0043945	-13.210983	-1.0536957
1493852673164	0.68089294	-10.948257	1.11763
1493852686295	4.2665253	-9.293533	2.0847626
1493852686295	4.1442566	-8.417633	1.1497803
1493852686295	3.329132	-7.176651	1.5223846
1493852686296	2.1011658	-6.0487366	3.2663574
1493852686296	0.15071106	-4.411621	4.1314545
1493852686296	-1.6076355	-3.1974182	4.553833
1493852686296	-3.0118103	-2.56987	3.9330444
1493852686296	-3.192505	-2.3765106	3.1413727
1493852686296	-2.8824615	-2.926178	1.7695923
1493852686296	-2.5069122	-4.4483795	-0.7371216
1493852686296	-2.1421356	-7.404358	-5.2393494
1493852686296	-1.754776	-11.837677	-7.838379
1493852686296	-2.1145782	-15.360809	-8.616226
1493852686296	-3.0367584	-15.777252	-11.608658
1493852686296	-2.7897797	-13.360504	-10.079651
1493852686296	-1.3677216	-10.9934845	-7.3418274
1493852686296	-2.9478912	-8.5911255	-6.787369
1493852686296	-6.449768	-9.714264	-7.448883
1493852686296	-7.314682	-15.232285	-6.783371
1493852686296	-3.1508179	-15.602798	-0.16815186
1493852686296	0.5217438	-8.174423	5.8069916
1493852686296	-0.47833252	-3.704834	6.38649
1493852686296	-0.90130615	-5.449936	6.7718964
1493852686296	1.163147	-9.461227	7.9291077
1493852686296	2.8305817	-13.288406	5.0703125
1493852686296	3.5680695	-14.866364	0.9550934
1493852686296	4.478363	-13.768631	0.56329346
1493852686296	3.91214	-12.016815	0.93255615
1493852686297	2.902008	-9.38121	1.0480194
1493852686297	1.2673645	-8.2304535	0.8997345
1493852686297	0.09161377	-7.7888184	1.5504456
1493852686297	-1.11586	-8.213699	0.40281677
1493852686297	-2.0517883	-9.0546875	-1.211731
1493852686297	-1.5014648	-9.529251	-0.45619202
1493852686297	-0.27687073	-8.906662	0.014678955
1493852686297	1.2029572	-7.9331207	-0.5177307
1493852686297	2.247818	-7.87294	-0.34707642
1493852686297	2.6181335	-9.004135	0.41729736
1493852686297	2.7637482	-10.557526	0.19366455
1493852686297	3.6594238	-10.262848	1.3327637
1493852686297	2.9696808	-10.071518	0.42919922
1493852686297	0.031219482	-11.569275	-0.02041626
1493852686297	-0.40452576	-12.427444	-0.48544312
1493852686297	2.3459473	-12.080124	-0.003189087
1493852686297	4.554428	-11.807373	1.1255035
1493852686297	2.86734	-11.937515	0.07582092
1493852686297	1.8493805	-11.592361	-0.7559967
1493852686297	3.2038727	-11.498871	-0.4829712
1493852686297	5.581665	-12.189499	-0.7094574
1493852686297	6.130081	-12.195206	-3.289734
1493852686297	2.3942719	-11.88208	-3.1972046
1493852686297	-0.23951721	-10.822342	-0.34417725
1493852686298	-1.5357361	-11.441406	3.793167
1493852686298	-3.3424835	-14.931946	4.57164
1493852686298	-4.9753265	-18.890472	3.8455963
1493852686298	-4.5270844	-18.86528	0.8133545
1493852686298	-3.2561035	-15.43306	-0.56144714
1493852686298	-2.56633	-13.007294	0.71369934
1493852686298	-0.2147522	-11.020721	2.9283905
1493852686298	2.1003265	-9.204361	0.93692017
1493852686298	3.3907928	-7.7696075	0.78804016
1493852686298	3.6358185	-7.019394	2.0296173
1493852686298	1.9805908	-5.623184	3.969696
1493852686298	-0.057235718	-3.5366058	4.815323
1493852686298	-2.1200867	-2.1911469	4.640152
1493852686298	-2.9145966	-1.5559998	4.070633
1493852686298	-3.0432892	-1.7059937	3.127365
1493852686298	-2.693161	-2.772644	1.7276764
1493852686298	-2.3104858	-4.933777	-0.8743439
1493852686298	-1.6579285	-9.103424	-7.09671
1493852686298	-1.2646637	-14.80954	-11.883118
1493852686298	-2.7229156	-18.56401	-12.6649475
1493852686298	-3.2312164	-16.829803	-11.2895355
1493852686298	-1.3691101	-11.577194	-7.000702
1493852686298	-2.0058594	-8.419266	-6.380783
1493852686298	-5.265854	-11.19223	-8.357468
1493852686298	-5.485626	-17.11531	-8.673477
1493852686298	-2.1225128	-14.043808	0.32426453
1493852686299	-1.2251282	-5.5930176	6.9658356
1493852686299	-2.9919891	-2.97023	5.9365997
1493852686299	-3.0554657	-6.4764404	5.918213
1493852686299	0.3099823	-11.183411	8.857956
1493852686299	4.2729797	-13.790634	6.3351593
1493852686299	5.8459167	-14.018967	-0.08996582
1493852686299	4.694748	-12.414581	-1.1552124
1493852686299	2.8214874	-10.734772	0.312088
1493852686299	1.6687317	-8.206833	1.7502441
1493852686299	0.08703613	-7.4688416	1.3791656
1493852686299	-0.6047821	-7.784424	1.051239
1493852686299	-0.79707336	-8.945541	0.039871216
1493852686299	0.100982666	-9.703293	-0.29241943
1493852686299	1.2847443	-9.384613	1.0218964
1493852686299	1.864502	-8.869995	0.12239075
1493852686299	2.2541962	-8.467728	-0.94078064
1493852686299	2.1492462	-8.704727	-1.1432953
1493852686299	1.3000183	-9.622223	-0.31828308
1493852686299	2.0095367	-10.220734	0.6942444
1493852686299	3.0149536	-9.677765	1.0900116
1493852686299	2.2560577	-10.533676	-0.10197449
1493852686299	0.5222626	-11.412521	-1.4654846
1493852686299	0.6262665	-11.784164	-0.22091675
1493852686299	3.228592	-11.078415	1.6334991
1493852686299	4.829468	-10.939575	1.2010651
1493852686299	3.288437	-11.579025	0.2644806
1493852686300	1.736023	-11.797867	-1.9068909
1493852686300	3.9135132	-12.20546	-0.050201416
1493852686300	5.7720795	-12.617874	-1.855133
1493852686300	5.2058563	-12.078766	-2.8091278
1493852686300	0.8234253	-11.587509	-2.1343231
1493852686300	-2.4161377	-10.996384	1.1597137
1493852686300	-3.3881378	-12.952042	4.518402
1493852686300	-4.7575073	-16.168533	4.2036133
1493852686300	-6.650116	-19.371964	2.681427
1493852686300	-5.6160736	-18.081024	-0.28663635
1493852686300	-3.9684753	-14.043793	-1.2939453
1493852686300	-1.4558716	-11.281418	0.3252411
1493852686300	2.637024	-9.591614	3.1031647
1493852686300	3.6306915	-8.321411	0.17514038
1493852686300	3.948166	-7.104553	0.9884033
1493852686300	2.574112	-6.376587	2.9730072
1493852686300	0.8473816	-4.7651978	3.7475586
1493852686300	-1.0491486	-3.102417	3.8278046
1493852686300	-2.463562	-1.9622498	3.6936035
1493852686300	-2.7694855	-1.671936	3.076233
1493852686300	-2.471161	-2.3804474	1.8927155
1493852686300	-1.815445	-3.9534454	0.49926758
1493852686300	-0.93333435	-6.558136	-3.4937134
1493852686300	-0.50823975	-11.548843	-8.793381
1493852686300	-1.7729187	-16.870743	-11.288742
1493852686300	-3.6225586	-17.202408	-12.478287
1493852686301	-2.8753052	-13.563309	-9.640503
1493852686301	-1.1091003	-10.6017	-6.4651794
1493852686301	-2.7956238	-8.611465	-5.840271
1493852686301	-5.8689117	-9.329193	-6.9495697
1493852686301	-6.428833	-14.088516	-7.0349274
1493852686301	-4.2589874	-15.290512	0.80934143
1493852686301	-2.5306244	-9.990372	4.848068
1493852686301	-1.3682404	-5.388626	5.7187653
1493852686301	-0.40220642	-5.2456207	7.248703
1493852686301	1.2868042	-8.035248	8.237671
1493852686301	3.892044	-11.335358	5.809082
1493852686301	4.332245	-13.513046	-0.02482605
1493852686301	4.126587	-12.872467	-0.80015564
1493852686301	4.0453644	-10.991257	0.041870117
1493852686301	2.9586945	-8.707581	0.6722717
1493852686301	1.3467102	-7.72908	0.6983185
1493852686301	-0.058639526	-7.7649994	0.7193146
1493852686301	-1.27565	-8.811432	0.08517456
1493852686301	-1.2891998	-9.521683	-0.3503723
1493852686301	-0.15777588	-9.526428	0.4315338
1493852686301	0.9215393	-9.06015	0.43678284
1493852686301	1.353241	-8.500061	-0.31732178
1493852686301	1.892456	-8.51123	-0.23065186
1493852686301	1.6426697	-9.245529	0.35432434
1493852686301	2.0911865	-9.688309	-0.026184082
1493852686301	2.8406982	-9.709457	0.30924988
1493852686301	2.4396515	-9.974823	0.6615906
1493852686301	0.67723083	-10.783051	0.7043762
1493852686302	-0.20135498	-11.6392975	0.42907715
1493852686302	1.6230927	-12.002563	-0.23927307
1493852686302	4.927887	-11.657913	1.2045746
1493852686302	4.490036	-11.451416	1.2856445
1493852686302	2.0384827	-11.184357	-1.2423859
1493852686302	3.1267548	-11.697037	-0.86564636
1493852686302	5.7427216	-12.645294	-0.38371277
1493852686302	4.7758484	-12.77626	-2.577774
1493852686302	1.329895	-12.5733185	-2.6818237
1493852686302	-2.1386566	-11.190552	-1.285965
1493852686302	-3.2827911	-11.429657	2.182251
1493852686302	-3.693222	-13.698288	3.90831
1493852686302	-4.5090485	-16.82582	3.5283966
1493852686302	-4.9638824	-17.913452	0.8667145
1493852686302	-3.5080566	-14.879517	-1.1187744
1493852686302	-1.8434753	-12.229416	0.48387146
1493852686302	1.2613373	-10.368179	3.1167603
1493852686302	2.8488007	-9.346466	0.5799103
1493852686302	3.6476288	-7.785736	0.2889862
1493852686302	3.3189392	-6.7654724	1.9688721
1493852686302	1.5389252	-5.326874	3.7385254
1493852686302	-0.4649353	-3.985672	3.8651428
1493852686302	-1.9878082	-3.3557587	3.9974823
1493852686302	-3.0635376	-2.9092712	3.3537445
1493852686302	-3.1368256	-3.0430603	2.420288
1493852686302	-2.9843292	-3.774994	1.0275879
1493852686302	-2.5249786	-5.356827	-1.1905212
1493852686303	-1.4450836	-8.750412	-6.2663116
1493852686303	-0.6812744	-13.771469	-9.393219
1493852686303	-1.450531	-17.019516	-10.413101
1493852686303	-2.160492	-15.094315	-11.272095
1493852686303	-1.2751617	-11.205673	-8.07486
1493852686303	-0.24484253	-9.171036	-6.038101
1493852686303	-1.5449677	-7.4558563	-5.6698
1493852686303	-3.9725647	-9.299393	-5.573715
1493852686303	-5.5865936	-14.611206	-4.9199066
1493852686303	-4.8643646	-16.562744	-0.3209839
1493852686303	-2.4071808	-11.486755	2.6183472
1493852686303	-0.45132446	-6.310425	5.281418
1493852686303	-0.5583801	-5.369339	7.1477966
1493852686303	0.4247284	-7.521637	8.276871
1493852686303	2.0890503	-10.757706	7.0487366
1493852686303	3.0174866	-13.313278	2.5006104
1493852686303	3.7063599	-13.321136	0.22602844
1493852686303	4.390564	-11.316284	-0.9443512
1493852686303	3.1286469	-9.101654	-0.105285645
1493852686303	1.8923187	-8.814026	1.0464783
1493852686303	0.8431244	-8.971085	1.487793
1493852686303	0.5993042	-8.741791	1.3921204
1493852686303	-0.0743866	-8.953201	-1.402771
1493852686303	-0.18511963	-9.269302	-0.22766113
1493852686303	0.17817688	-9.64003	0.21568298
1493852686303	0.10960388	-9.138199	-0.5531769
1493852686304	0.8253937	-8.563919	0.48109436
1493852686304	1.3305969	-8.697235	1.9473572
1493852686304	1.5011139	-9.332901	0.9745331
1493852686304	2.9269867	-9.853516	-0.8954468
1493852686304	2.6157532	-10.172333	-0.31582642
1493852686304	1.4838867	-11.001755	-0.1620636
1493852686304	0.595871	-11.343811	0.1929779
1493852686304	1.1589661	-11.443451	-0.0039978027
1493852686304	2.7256317	-10.9344635	1.0665588
1493852686304	2.8924713	-11.292603	1.7449799
1493852686304	1.6447449	-11.382553	-0.067977905
1493852686304	0.8960571	-11.33522	-0.84173584
1493852686304	3.2757416	-12.64621	0.21755981
1493852686304	5.8044586	-13.88237	-1.5046692
1493852686304	5.216202	-12.306931	-3.1445007
1493852686304	0.85935974	-10.813141	-2.412918
1493852686304	-2.2664337	-9.72377	-0.44482422
1493852686304	-2.963501	-11.998016	3.1776276
1493852686304	-3.915268	-15.387985	3.990799
1493852686304	-5.2369537	-18.25621	2.9038086
1493852686304	-4.2861633	-17.102036	-0.5829773
1493852686304	-2.7195587	-13.894684	-1.1663513
1493852686304	-0.52948	-11.879761	1.2293396
1493852686304	2.2525024	-9.803528	2.3726196
1493852686304	2.3322754	-8.496857	0.9294586
1493852686304	2.2762299	-7.5564575	1.7052765
1493852686304	1.3931885	-6.660263	2.5786743
1493852686305	0.27897644	-5.3052063	3.0778809
1493852686305	-0.6412964	-4.074585	3.250351
1493852686305	-1.4578705	-3.0671844	3.1736755
1493852686305	-1.9697876	-2.5310364	2.3971558
1493852686305	-2.1367645	-2.948761	1.1199493
1493852686305	-2.1638336	-4.2889557	-1.5297241
1493852686305	-1.7919922	-7.2946777	-6.095688
1493852686305	-1.9430084	-11.412552	-8.4216
1493852686305	-3.077896	-14.466873	-9.277863
1493852686305	-3.5674133	-14.278976	-9.950272
1493852686305	-2.4984436	-12.240906	-7.9888763
1493852686305	-1.3165131	-10.658844	-6.0676575
1493852686305	-2.9664307	-8.679138	-6.056839
1493852686305	-6.582672	-9.085602	-7.214081
1493852686305	-8.35791	-13.730377	-6.128433
1493852686305	-5.191803	-15.756317	-0.76730347
1493852686305	-0.6589813	-10.605576	2.8245087
1493852686305	0.023117065	-5.767746	5.5435944
1493852686305	-0.91075134	-5.65625	5.546692
1493852686305	0.3174591	-8.571823	6.838379
1493852686305	2.880005	-11.581253	6.002594
1493852686305	3.8060913	-13.455078	2.8583374
1493852686305	4.122116	-12.885681	0.8683014
1493852686305	4.341278	-11.801544	-0.16850281
1493852686305	3.0738678	-9.502029	-0.2484436
1493852686305	1.7826233	-7.7916565	0.32818604
1493852686305	0.034561157	-7.547653	0.69821167
1493852686305	-0.6623993	-8.21431	0.7764282
1493852686306	-1.3723297	-9.210266	-1.0276489
1493852686306	-0.4100647	-9.609253	-0.17948914
1493852686306	0.6096039	-9.534317	0.316864
1493852686306	1.4828949	-8.988342	-0.20625305
1493852686306	2.401474	-8.557114	-0.0662384
1493852686306	2.0128021	-9.170639	0.6119385
1493852686306	1.1626587	-10.026123	0.8284607
1493852686306	1.5173798	-10.287689	0.13624573
1493852686306	2.4170227	-10.119217	-0.36134338
1493852686306	1.4304504	-10.921173	-1.352356
1493852686306	-0.6717987	-11.70697	-0.52407837
1493852686306	0.39682007	-11.385117	1.2033691
1493852686306	2.785202	-10.7200165	1.2224884
1493852686306	3.8426208	-10.66806	1.2852631
1493852686306	2.4945984	-10.926758	0.49220276
1493852686306	1.7731781	-11.367798	-0.34690857
1493852686306	4.164444	-13.137314	-0.045669556
1493852686306	4.7981567	-13.477768	-3.50943
1493852686306	3.9501343	-12.882645	-4.924347
1493852686306	0.24275208	-10.710098	-2.1606293
1493852686306	-1.3261414	-10.018936	0.8836975
1493852686306	-2.007904	-12.092926	3.9320984
1493852686306	-3.5139923	-15.866852	3.8735962
1493852686306	-5.1335754	-19.07692	2.393753
1493852686306	-4.4746857	-17.434052	-0.7813721
1493852686307	-3.5049744	-14.016525	-1.0476685
1493852686307	-1.6701508	-11.710281	0.76327515
1493852686307	2.015686	-9.904358	3.083786
1493852686307	3.784546	-8.391541	0.22381592
1493852686307	4.6407166	-7.497055	0.57980347
1493852686307	3.4151154	-6.827881	2.3708954
1493852686307	1.3921051	-5.549637	3.6111908
1493852686307	-0.67637634	-3.9453125	3.9244995
1493852686307	-2.4266968	-2.7668915	4.067398
1493852686307	-3.2068024	-2.2720642	3.241211
1493852686307	-3.0220032	-2.6884918	2.3578644
1493852686307	-2.7098389	-3.9985352	0.89071655
1493852686307	-2.180313	-6.8049927	-3.944107
1493852686307	-1.4654846	-11.4769745	-8.426987
1493852686307	-1.9259186	-15.5239105	-9.39949
1493852686307	-3.4078674	-14.869293	-9.4951935
1493852686307	-3.514679	-11.496994	-8.20491
1493852686307	-1.9447021	-9.868927	-6.4990997
1493852686307	-1.9210815	-9.080978	-5.8363953
1493852686307	-4.2139893	-7.7238617	-6.9064026
1493852686307	-6.8529053	-10.543015	-8.552765
1493852686307	-6.712326	-17.041977	-8.118576
1493852686307	-1.8600464	-16.821075	0.021636963
1493852686307	0.47439575	-7.359726	6.067932
1493852686307	-0.9440918	-2.237854	6.7469788
1493852686307	-1.4723358	-4.532181	6.5629425
1493852686307	1.0265656	-9.186539	8.143433
1493852686308	3.4285126	-14.270462	6.0208435
1493852686308	4.972397	-15.420013	1.0074768
1493852686308	5.1859894	-13.527267	-0.56700134
1493852686308	4.0036774	-10.667465	-0.33296204
1493852686308	2.0719604	-7.483856	1.3716888
1493852686308	-0.015777588	-6.9828186	0.7868347
1493852686308	-0.9457092	-7.399048	1.1106567
1493852686308	-1.8235321	-8.544571	-0.27137756
1493852686308	0.0664978	-9.481476	-0.04371643
1493852686308	1.0500793	-9.878342	0.67337036
1493852686308	0.893631	-9.292099	-0.7980499
1493852686308	1.1972046	-8.596481	-1.0664368
1493852686308	1.2481842	-8.822052	-0.6029663
1493852686308	0.9368286	-9.632294	0.6678467
1493852686308	1.7860413	-9.917221	0.7576294
1493852686308	2.5983887	-10.329636	-0.109573364
1493852686308	2.2136688	-11.567108	-0.3191223
1493852686308	1.1259918	-11.763687	-0.42544556
1493852686308	0.76426697	-11.463684	-0.496109
1493852686308	2.8165588	-10.796921	0.43214417
1493852686308	4.291046	-11.05043	-0.090927124
1493852686308	4.2887726	-11.473206	0.22775269
1493852686308	4.5093994	-12.291718	0.1561737
1493852686308	5.744171	-13.161285	-0.23735046
1493852686308	4.786667	-12.196915	-1.9558716
1493852686308	0.8265381	-11.781082	-3.8654785
1493852686308	-3.1068726	-11.092178	-1.9321136
1493852686309	-3.4287872	-11.376541	1.8257599
1493852686309	-3.6404266	-13.841751	3.8316345
1493852686309	-4.375046	-16.772156	3.1699677
1493852686309	-4.7947235	-17.760406	0.8353882
1493852686309	-3.6567535	-15.219177	-0.75076294
1493852686309	-2.9335327	-13.093201	0.16651917
1493852686309	-0.9480438	-11.163696	2.1052856
1493852686309	1.5015869	-9.4314575	2.6453247
1493852686309	2.7096863	-8.206833	0.46220398
1493852686309	2.8636932	-7.3086243	0.68489075
1493852686309	2.3867188	-6.240799	2.2621765
1493852686309	0.7102661	-4.909775	3.200058
1493852686309	-0.8504486	-3.3194885	3.4133759
1493852686309	-1.7459259	-2.13266	3.2788696
1493852686309	-2.2042236	-2.0279388	2.6992035
1493852686309	-2.1443634	-2.8388214	1.6151276
1493852686309	-2.0255127	-4.362076	-0.61413574
1493852686309	-1.8976593	-7.584732	-6.507675
1493852686309	-1.620636	-12.80423	-9.907944
1493852686309	-2.8737946	-16.886185	-10.748016
1493852686309	-4.147293	-15.862991	-10.697174
1493852686309	-2.1111603	-12.248413	-7.7321167
1493852686309	-0.8855438	-9.30864	-6.453537
1493852686309	-3.9394684	-8.363083	-8.645081
1493852686309	-7.8524475	-13.815231	-8.39389
1493852686309	-7.8098907	-18.09671	-3.582489
1493852686310	-1.2884979	-11.03714	1.605133
1493852686310	0.02532959	-3.6306763	5.8170013
1493852686310	-2.7419128	-4.3374023	5.738144
1493852686310	-1.3485107	-8.162003	7.106735
1493852686310	1.3020477	-11.615448	6.705307
1493852686310	2.8559723	-13.731354	2.927887
1493852686310	4.111145	-13.065918	0.9332123
1493852686310	4.3058624	-12.070511	1.8684235
1493852686310	3.6860962	-10.721619	1.4092255
1493852686310	2.8726196	-9.049164	0.26826477
1493852686310	1.4110413	-8.293442	0.12120056
1493852686310	-0.102142334	-8.3701935	-0.07548523
1493852686310	-0.5341339	-9.144043	-0.7759094
1493852686310	-0.18119812	-9.321045	-1.2764435
1493852686310	0.3834839	-9.334076	-0.660141
1493852686310	0.74313354	-8.659897	0.15782166
1493852686310	1.0735626	-8.148682	-0.22257996
1493852686310	1.7644043	-7.6570435	-0.07977295
1493852686310	1.2590637	-8.665558	0.5000458
1493852686310	0.31185913	-10.786957	1.3338318
1493852686310	1.3092957	-11.435471	0.39115906
1493852686310	2.7297363	-10.368454	-0.733551
1493852686310	2.5154266	-10.4335785	-0.6485443
1493852686310	0.87638855	-11.145203	-0.55218506
1493852686310	0.76516724	-11.3328705	-0.31903076
1493852686310	3.60083	-11.615067	0.3735962
1493852686310	4.5694885	-11.893677	0.30516052
1493852686310	3.5948334	-11.617126	-0.8956909
1493852686310	4.278961	-11.884659	-1.1061096
1493852686311	5.6612854	-12.9062195	-1.6181793
1493852686311	4.9147034	-12.491043	-3.0450592
1493852686311	1.7720337	-11.655731	-2.4956055
1493852686311	-0.76423645	-10.98262	-0.46159363
1493852686311	-2.1069489	-11.631241	2.9900818
1493852686311	-3.5872345	-14.842087	4.2451935
1493852686311	-5.2968597	-18.02034	3.1283417
1493852686311	-4.4552765	-17.771515	-0.08972168
1493852686311	-2.8040771	-14.550873	-1.1148529
1493852686311	-0.50808716	-11.872406	0.8518524
1493852686311	2.6662903	-10.073135	2.5523071
1493852686311	3.7817688	-9.164795	0.27972412
1493852686311	2.9730072	-7.963852	1.0982208
1493852686311	1.7241821	-6.866806	2.6183624
1493852686311	0.0019073486	-5.6688538	3.698761
1493852686311	-1.5562134	-4.1398315	4.053589
1493852686311	-2.9374542	-3.214325	3.8614502
1493852686311	-3.3041992	-2.678955	3.1358643
1493852686311	-3.0249023	-2.7321625	1.990921
1493852686311	-2.717102	-3.6872559	0.28926086
1493852686311	-2.20253	-5.823578	-2.8240967
1493852686311	-1.7765198	-9.844131	-7.5155334
1493852686311	-2.1000671	-13.844482	-10.588913
1493852686311	-3.5055695	-16.060516	-12.058243
1493852686311	-2.6748962	-14.418869	-9.92305
1493852686311	-0.6010132	-10.71579	-6.5830994
1493852686311	-2.8536377	-8.190353	-7.466919
1493852686312	-8.340759	-10.993454	-6.782303
1493852686312	-7.2364655	-15.268188	-4.694504
1493852686312	-1.8542328	-13.919891	0.35481262
1493852686312	0.16369629	-7.395874	5.6092987
1493852686312	-1.6431885	-5.1059113	5.4000244
1493852686312	-0.9746704	-7.1129913	6.183365
1493852686312	1.1459808	-10.148392	7.247711
1493852686312	2.9756012	-12.759247	4.670517
1493852686312	3.7360382	-13.986862	1.5547333
1493852686312	3.996582	-13.445511	0.81741333
1493852686312	4.1386414	-11.783813	0.3659973
1493852686313	2.7178955	-9.653198	-0.11694336
1493852686313	1.3074646	-8.292664	-0.009231567
1493852686313	-0.25445557	-7.6572113	-0.047088623
1493852686313	-0.7932892	-8.379547	-0.32954407
1493852686313	-0.2766266	-8.977142	-1.2984619
1493852686313	0.35061646	-9.2313385	-0.52168274
1493852686313	0.7133026	-8.857773	-1.2268066
1493852686313	1.3008118	-8.395416	-1.2058716
1493852686313	1.8364258	-8.028381	-0.63653564
1493852686313	1.3173218	-8.593643	0.616272
1493852686313	0.5970917	-9.835648	1.5080719
1493852686313	1.5405884	-10.773361	1.1092224
1493852686313	3.173706	-10.385849	-0.23666382
1493852686313	1.9413757	-10.723175	-1.6739349
1493852686313	-0.2023468	-11.485794	-0.83309937
1493852686313	-0.2987976	-11.664337	0.8570862
1493852686313	1.6243896	-11.593109	1.6385345
1493852686313	2.4977112	-11.662872	1.1673126
1493852686313	2.0232544	-11.749039	0.0904541
1493852686313	3.2218323	-12.715179	0.25868225
1493852686313	5.220001	-13.24176	-0.9320679
1493852686313	5.3190002	-12.338745	-3.1940765
1493852686313	2.6114807	-11.325409	-3.1017456
1493852686313	-0.2758484	-10.338242	-1.6683655
1493852686313	-0.76963806	-11.0859375	1.8805237
1493852686313	-1.9012146	-13.317001	3.771286
1493852686314	-3.1323547	-16.228592	3.163025
1493852686314	-4.280945	-17.684448	1.0266876
1493852686314	-3.347351	-15.452866	-0.77093506
1493852686314	-1.9717712	-12.66983	0.13511658
1493852686314	0.5105591	-10.609802	1.0164948
1493852686314	3.513977	-9.02919	0.00982666
1493852686314	3.8963623	-8.028473	0.20140076
1493852686314	3.4726105	-7.288788	1.3773041
1493852686314	1.9022064	-6.6121216	2.9848175
1493852686314	-0.22729492	-5.5354767	3.8361511
1493852686314	-2.138504	-4.270584	3.7306976
1493852686314	-3.3535156	-3.2054138	3.5430908
1493852686314	-3.488617	-2.6082	2.6711426
1493852686314	-2.754898	-3.0564728	1.4114685
1493852686314	-1.9169617	-4.473587	-0.4442749
1493852686314	-1.0184631	-7.3809357	-4.817032
1493852686314	-1.1177673	-11.442764	-8.5383
1493852686314	-2.5162506	-14.966476	-11.156097
1493852686314	-3.6001282	-14.87973	-10.706421
1493852686314	-2.597107	-12.534653	-7.855255
1493852686314	-1.6521606	-10.46788	-5.7619934
1493852686314	-3.2182465	-7.485306	-5.8506317
1493852686314	-5.591461	-7.023926	-7.0316772
1493852686314	-7.8040924	-13.801163	-5.3525543
1493852686314	-4.76326	-18.280655	-1.1681213
1493852686314	-0.70222473	-13.799927	1.0492554
1493852686314	2.037323	-6.5358887	6.523117
1493852686315	0.23379517	-4.2315674	6.846649
1493852686315	0.7586975	-5.9215546	6.9994965
1493852686315	2.0258331	-10.017426	5.444519
1493852686315	3.4386292	-14.306702	1.1666107
1493852686315	4.9953613	-14.101395	0.16824341
1493852686315	5.8557434	-12.604767	-0.12532043
1493852686315	3.2236176	-9.513046	0.47192383
1493852686315	0.5539551	-8.523193	0.19371033
1493852686315	-1.4071198	-7.7642975	0.4499054
1493852686315	-2.9042664	-8.563889	-0.6878052
1493852686315	-2.4646606	-8.80188	-0.7636719
1493852686315	-0.7306061	-9.364441	0.54473877
1493852686315	1.0560455	-9.194275	0.10748291
1493852686315	2.5657654	-8.529419	-0.10966492
1493852686315	2.542633	-8.444656	-0.28125
1493852686315	1.4678955	-9.155502	1.0450592
1493852686315	0.88679504	-10.184845	0.40289307
1493852686315	1.914093	-10.331131	-0.5083618
1493852686315	2.474823	-9.623444	-0.46376038
1493852686315	0.80467224	-10.069473	0.5128174
1493852686315	-0.905777	-11.437546	0.40213013
1493852686315	1.4576263	-12.261566	-0.22921753
1493852686315	6.067444	-12.493713	0.44406128
1493852686315	5.8064423	-12.067352	-0.5541687
1493852686315	3.4239807	-12.405533	-1.9634247
1493852686315	3.5221863	-13.952057	-1.1697083
1493852686315	4.15831	-14.055634	-2.5837555
1493852686315	2.791687	-12.376999	-3.596466
1493852686316	-0.5568695	-10.641205	-1.4122467
1493852686316	-1.8668518	-9.786407	1.2312317
1493852686316	-2.2238007	-11.98085	3.9957123
1493852686316	-3.7832336	-16.24466	3.8114471
1493852686316	-4.6284637	-19.07985	2.282318
1493852686316	-3.2232666	-17.005554	-0.5681305
1493852686316	-1.9490509	-13.616592	-0.18327332
1493852686316	0.63461304	-11.064865	1.5330963
1493852686316	3.8657837	-9.4696045	0.60813904
1493852686316	4.173996	-8.2595215	0.058013916
1493852686316	3.856186	-6.758896	1.7902832
1493852686316	2.1750336	-5.4129944	3.46727
1493852686316	-0.5212097	-4.1285095	4.1623077
1493852686316	-2.5033417	-3.2875214	4.2700806
1493852686316	-3.687271	-2.783661	3.9780731
1493852686316	-3.9918823	-2.7035065	3.1617432
1493852686316	-3.5191345	-3.3368073	1.5802765
1493852686316	-2.6284027	-4.9579163	-0.33148193
1493852686316	-1.370575	-8.273361	-6.3530884
1493852686316	0.08140564	-12.928207	-8.656876
1493852686316	-0.82359314	-15.522202	-10.320145
1493852686316	-2.711731	-14.093887	-10.862534
1493852686316	-2.4439392	-11.185913	-8.028442
1493852686316	-1.019455	-9.376541	-6.1271973
1493852686316	-1.5982361	-7.498123	-6.1186676
1493852686317	-3.4227448	-6.141464	-5.70755
1493852686317	-7.4781036	-10.912918	-2.4320374
1493852686317	-7.215378	-17.126465	-2.4130554
1493852686317	-4.339981	-19.186905	-0.65574646
1493852686317	3.2260895	-11.104858	5.3612366
1493852686317	2.8890228	-4.6468964	8.012848
1493852686317	1.9614258	-4.553192	8.353394
1493852686317	1.6497192	-9.067505	7.548935
1493852686317	2.0475159	-13.891541	1.1652069
1493852686317	2.7068481	-14.062286	-0.5516205
1493852686317	4.234146	-11.885361	8.8500977E-4
1493852686317	3.6411438	-9.7178955	1.6538391
1493852686317	0.68659973	-8.884888	0.8438263
1493852686317	-1.1033478	-7.932617	0.36575317
1493852686317	-2.4126892	-8.031708	-0.5329437
1493852686317	-1.969696	-8.8598175	-0.2055664
1493852686317	0.086120605	-9.698013	0.86824036
1493852686317	1.6371002	-9.177734	-0.37290955
1493852686317	2.744049	-8.468399	-0.76013184
1493852686317	2.80513	-8.407654	-1.0819855
1493852686317	2.1228638	-8.994202	-0.031585693
1493852686317	2.1766052	-9.956116	0.009841919
1493852686317	2.8088074	-10.435242	0.33345032
1493852686317	2.1016083	-10.2969055	0.29304504
1493852686317	0.24546814	-10.814819	-0.66441345
1493852686317	-0.92030334	-11.143631	-0.2318573
1493852686317	1.3576355	-10.98407	0.26332092
1493852686318	3.9736328	-11.27684	1.1701813
1493852686318	3.6928864	-11.176346	0.8066559
1493852686318	2.2906342	-11.236145	-1.3047028
1493852686318	3.0433197	-11.718292	-1.7500305
1493852686318	5.239609	-12.9301605	-1.6145325
1493852686318	5.4159546	-12.551849	-2.4138489
1493852686318	2.357132	-10.952652	-1.7468567
1493852686318	-0.88383484	-10.181274	0.06930542
1493852686318	-2.6004791	-11.739914	3.3823853
1493852686318	-4.2464447	-16.042603	3.9682922
1493852686318	-5.7677307	-19.474823	2.6786041
1493852686318	-4.23555	-17.933243	-0.47738647
1493852686318	-2.4984436	-14.308975	-1.0895691
1493852686318	-0.2646942	-11.792618	1.0413208
1493852686318	2.499771	-10.170685	2.3110046
1493852686318	3.236496	-9.139526	0.7410736
1493852686318	3.14682	-7.7778015	1.4112091
1493852686318	1.9539032	-6.680008	3.1500702
1493852686318	0.47329712	-5.286682	3.4317627
1493852686318	-0.94384766	-3.5986328	3.9600067
1493852686318	-1.9621887	-2.7483673	4.2948456
1493852686318	-2.505127	-2.4298859	3.7804413
1493852686318	-2.5753021	-2.5219421	2.6351013
1493852686318	-2.466751	-3.4712982	0.7805176
1493852686318	-2.353897	-5.772003	-3.6384583
1493852686318	-1.6617737	-10.798813	-8.709473
1493852686318	-0.7293396	-15.865112	-10.435165
1493852686319	-1.2807007	-16.474121	-10.241882
1493852686319	-2.2087708	-12.598602	-8.836105
1493852686319	-1.9724731	-9.5061035	-6.6872864
1493852686319	-1.7590637	-8.527191	-5.762268
1493852686319	-2.8371887	-6.898987	-6.6053467
1493852686319	-4.5269775	-8.903915	-7.077774
1493852686319	-6.173065	-15.472534	-3.5786285
1493852686319	-4.1174774	-18.249985	1.4651489
1493852686319	-0.8342285	-11.721161	1.9389191
1493852686319	-0.079422	-6.2229004	5.8495026
1493852686319	-0.55529785	-5.0509796	7.4909973
1493852686319	1.2957458	-7.518448	8.983032
1493852686319	2.8079224	-13.655487	4.968689
1493852686319	3.2694092	-13.9995575	-0.31349182
1493852686319	4.070221	-13.136871	-0.65475464
1493852686319	3.8571777	-10.278046	-0.24162292
1493852686319	2.002182	-8.602982	1.4869995
1493852686319	-0.026916504	-8.115753	0.77137756
1493852686319	-0.43452454	-7.862549	1.225235
1493852686319	-0.76426697	-8.654587	-0.7289734
1493852686319	0.58348083	-9.582245	-0.15699768
1493852686319	1.9378662	-10.020721	1.0424652
1493852686319	1.6121216	-9.250153	-0.7457886
1493852686319	1.3765259	-8.299011	-0.7755127
1493852686319	1.2110138	-8.420654	0.81625366
1493852686319	0.81977844	-9.438492	1.9826355
1493852686320	1.3837128	-9.757675	0.5709686
1493852686320	2.2220612	-9.979706	-1.0059357
1493852686320	1.6863708	-10.460388	-0.8318329
1493852686320	0.90696716	-11.004044	0.037872314
1493852686320	1.2341003	-11.433319	-0.2645874
1493852686320	3.2948608	-11.098221	0.4268341
1493852686320	3.712326	-10.7547455	0.9438019
1493852686320	2.8386536	-11.097092	-0.68492126
1493852686320	3.429657	-11.617371	-1.5270844
1493852686320	4.850601	-12.555847	-1.354538
1493852686320	5.032501	-12.917648	-2.7445679
1493852686320	3.3297577	-12.063049	-2.8207703
1493852686320	-0.119781494	-11.315552	-1.5902405
1493852686320	-2.6081696	-11.242172	1.6542511
1493852686320	-3.7426758	-14.056183	3.554184
1493852686320	-5.4059753	-17.72882	2.9780731
1493852686320	-5.1905975	-18.558853	0.59417725
1493852686337	-3.0485687	-15.77388	-1.4129181
1493852686357	-1.4968872	-12.593826	-0.4562683
1493852686377	1.4012451	-10.645218	1.5056152
1493852686397	3.4897308	-9.522171	1.5572357
1493852686416	3.7642517	-8.560013	0.6733856
1493852686436	3.4042664	-7.517273	1.6623383
1493852686457	1.7295532	-6.115967	2.8155212
1493852686476	-0.09895325	-4.383087	3.4743347
1493852686496	-1.5686035	-2.9951782	3.8441162
1493852686515	-2.4638062	-2.1702118	3.9101715
1493852686535	-2.8809967	-1.9790802	3.2225342
1493852686555	-2.7196503	-2.4966888	1.7367859
1493852686575	-2.174179	-4.1120453	-0.41583252
1493852686595	-1.6194763	-7.509308	-6.9482117
1493852686614	-0.4215393	-13.562317	-8.944229
1493852686634	-1.3325806	-17.726776	-10.411606
1493852686654	-2.8832245	-14.894028	-11.147217
1493852686674	-2.597702	-11.197235	-8.627289
1493852686694	-1.6844482	-9.223175	-6.4091644
1493852686713	-3.0473785	-7.899002	-7.246063
1493852686733	-6.3871765	-9.656738	-7.588394
1493852686753	-10.548996	-15.860107	-4.388336
1493852686773	-4.8033905	-17.23671	-0.15310669
1493852686793	0.8397827	-10.745163	2.8062897
1493852686812	2.7436981	-4.689865	7.932205
1493852686832	0.9127655	-4.569977	7.5335083
1493852686852	1.7257843	-7.7457886	8.516632
1493852686872	2.181717	-11.806839	4.464218
1493852686892	2.7080383	-15.123718	-0.9157257
1493852686911	2.398178	-13.26123	-0.8000488
1493852686931	2.9910736	-11.515625	0.66452026
1493852686951	2.0756073	-8.985031	1.7623596
1493852686971	0.6515198	-8.521637	1.2710876
1493852687010	-1.0930481	-8.54512	0.4732666
1493852687030	-0.42391968	-9.146347	0.98539734
1493852687050	-0.2872467	-9.95752	-1.8155975
1493852687070	0.73864746	-9.590317	-0.79689026
1493852687089	1.3396606	-9.066269	-0.68218994
1493852687109	1.5863647	-8.613693	-1.0938568
1493852687129	2.1285858	-8.314026	0.20532227
1493852687149	1.7348022	-9.005386	0.92878723
1493852687169	1.0834045	-9.935394	0.7598114
1493852687188	1.7739105	-10.131302	-0.2810669
1493852687208	2.5468597	-9.701614	-0.85472107
1493852687228	2.0724792	-10.142487	-0.7328186
1493852687248	1.3689728	-10.940445	-5.187988E-4
1493852687268	2.0730743	-11.129532	-0.006500244
1493852687287	3.326477	-11.113342	0.26556396
1493852687307	3.3787842	-11.140366	0.85676575
1493852687327	2.556015	-11.293762	-0.69451904
1493852687347	3.4871674	-12.197952	-1.6362915
1493852687367	5.830826	-13.26207	-1.7194366
1493852687386	5.143814	-12.690063	-2.5648193
1493852687406	0.48580933	-11.814285	-3.062149
1493852687426	-2.2065277	-10.70166	-0.30392456
1493852687446	-2.6593933	-12.595261	3.6921082
1493852687466	-3.129715	-16.141403	4.916046
1493852687485	-4.2500763	-18.70996	3.346222
1493852687505	-4.2518463	-17.863113	0.2396698
1493852687525	-3.5975494	-14.88324	-0.72683716
1493852687545	-2.8702087	-12.530319	0.2778473
1493852687565	-0.6655731	-10.472916	1.8354187
1493852687584	1.5536041	-8.845047	1.7556763
1493852687604	2.4143372	-7.6369476	1.0211945
1493852687624	2.402237	-6.642914	2.0255585
1493852687644	1.4334259	-5.2806854	3.2365265
1493852687664	-0.2823639	-3.5972595	3.9516296
1493852687683	-1.8444672	-2.1869812	3.6308746
1493852687703	-2.363083	-1.4325409	2.8216705
1493852687723	-2.3767395	-1.8318939	1.8199158
1493852687743	-1.8673859	-3.4711914	0.37556458
1493852687762	-0.9640503	-6.826538	-5.6003876
1493852687783	-0.29537964	-12.523621	-10.369629
1493852687802	-1.5950012	-16.050934	-11.790085
1493852687822	-3.5999908	-14.214203	-9.551315
1493852687842	-3.5041504	-10.642654	-6.785553
1493852687862	-2.0868225	-9.054657	-5.549164
1493852687881	-3.853012	-8.111237	-6.7265015
1493852687901	-8.76857	-12.954193	-6.4501495
1493852687921	-6.8078003	-18.066696	-4.888382
1493852687941	-2.2810974	-15.826538	0.16499329
1493852687961	1.1885986	-7.041397	5.9470673
1493852687980	0.07154846	-3.6967468	7.0156097
1493852688000	-0.9033203	-6.25354	8.141251
1493852688020	1.0054779	-10.691589	9.451294
1493852688040	2.609085	-15.357452	3.6737213
1493852688060	3.9896545	-13.847443	-1.0102539
1493852688079	4.341278	-13.070206	-0.4100647
1493852688099	3.9575348	-10.416183	1.0895691
1493852688119	2.5534363	-8.578262	1.4660034
1493852688158	0.5375366	-7.709137	0.0146484375
1493852688178	-0.19049072	-7.441864	0.119506836
1493852688198	-1.4200745	-8.669083	-1.0225067
1493852688218	-0.66067505	-9.40593	-1.1319427
1493852688238	0.71525574	-9.726425	0.4172821
1493852688257	1.684967	-9.062408	-0.43737793
1493852688277	2.4007874	-8.323807	-0.7506561
1493852688297	2.1342468	-8.475739	-0.39279175
1493852688317	1.3385468	-9.45726	0.65586853
1493852688337	1.3772125	-10.422684	0.3025818
1493852688357	2.4522247	-10.411789	0.51976013
1493852688376	2.1216583	-10.629013	-0.19680786
1493852688396	0.0491333	-11.325562	-1.145813
1493852688416	-0.276886	-11.299133	-0.49482727
1493852688436	2.238922	-10.898712	0.88179016
1493852688455	4.2552185	-11.143494	1.4428406
1493852688475	3.8895721	-11.6475525	0.37779236
1493852688495	2.866684	-12.106812	-0.7182007
1493852688515	3.561081	-12.960556	-1.0219879
1493852688535	5.0036316	-13.237305	-2.3794098
1493852688554	4.400833	-12.502457	-3.0296326
1493852688574	0.75572205	-11.310028	-1.4908905
1493852688594	-1.8988495	-10.7695465	1.0681152
1493852688614	-3.126831	-12.791306	3.7325134
1493852688634	-4.6704254	-16.147293	3.9347534
1493852688653	-5.353302	-18.10347	1.887085
1493852688673	-4.1694794	-16.33406	-0.5715332
1493852688693	-2.5043793	-13.068329	-0.5206909
1493852688713	0.92185974	-10.620285	1.1087494
1493852688733	4.232483	-9.277969	1.0929108
1493852688752	4.8517456	-8.300888	0.34944153
1493852688773	3.6744843	-7.3627014	1.3694305
1493852688792	1.7722931	-6.085129	2.759781
1493852688812	-0.22055054	-4.891632	3.453064
1493852688832	-1.9765625	-4.0477295	3.9415283
1493852688851	-2.9617767	-3.083908	3.647461
1493852688871	-3.1585388	-2.6871338	2.7241516
1493852688891	-2.6623535	-3.0427704	1.5754242
1493852688911	-2.0117188	-4.2585754	-0.45799255
1493852688931	-1.4458923	-6.7895813	-4.493576
1493852688950	-1.0782013	-11.095383	-8.003006
1493852688970	-2.010437	-14.879425	-10.529968
1493852688990	-2.6636505	-15.596634	-11.943405
1493852689010	-1.2595673	-13.370331	-9.603683
1493852689029	0.13659668	-10.730286	-6.7594604
1493852689049	-2.4766388	-8.2031555	-8.245087
1493852689076	-7.293457	-10.27446	-7.590454
1493852689091	-10.397247	-16.23909	-4.1252747
1493852689111	-3.8644104	-16.293533	1.5439911
1493852689131	0.9438324	-8.754944	5.0017242
1493852689152	0.22174072	-4.5601196	6.5377045
1493852689171	0.021652222	-6.028885	8.777634
1493852689191	1.5837708	-9.550934	9.3697815
1493852689210	3.4706268	-13.398682	5.1617584
1493852689229	3.659317	-14.804504	-0.34051514
1493852689253	3.4544373	-13.3675995	-0.9890137
1493852689271	3.1223602	-10.814606	-0.046035767
1493852689291	2.142685	-8.380142	1.1326294
1493852689331	-0.33184814	-8.092499	0.29937744
1493852689347	-0.13296509	-8.1839905	1.1299896
1493852689370	0.5034027	-9.029633	-0.2761383
1493852689387	1.41156	-9.369705	-1.6735077
1493852689406	1.8742981	-9.240494	-0.120162964
1493852689430	1.61203	-8.63826	-0.92567444
1493852689451	1.5872498	-8.315262	-0.6629486
1493852689468	1.2565765	-8.499512	-0.77593994
1493852689491	0.6913605	-9.322449	0.12695313
1493852689511	1.1012115	-10.123093	-0.09388733
1493852689530	2.4297333	-10.424103	0.8255615
1493852689550	2.20961	-10.534653	1.3653259
1493852689566	0.5241699	-10.632385	0.13212585
1493852689589	-0.021820068	-10.815964	-0.23693848
1493852689609	2.2648468	-11.425354	0.6071625
1493852689630	3.502472	-11.637436	1.4194183
1493852689649	2.189087	-11.518875	0.6405792
1493852689667	1.6345673	-11.733719	-0.90605164
1493852689691	3.9074707	-12.878021	-1.4107971
1493852689704	6.372452	-13.229996	-2.0796814
1493852689724	5.136444	-12.399612	-3.7137604
1493852702328	1.3487701	-11.308685	-3.2794037
1493852702328	-0.9009094	-10.596237	-0.31381226
1493852702329	-1.5918274	-12.751083	3.277237
1493852702329	-3.1183777	-16.622986	4.2991943
1493852702329	-4.0287933	-18.683655	2.750885
1493852702329	-3.3478851	-16.899567	0.11128235
1493852702329	-2.701767	-14.319962	-0.46574402
1493852702329	-1.5553894	-12.409637	0.60050964
1493852702329	0.7325897	-10.52684	1.2475281
1493852702330	2.476715	-8.8823395	0.34979248
1493852702330	3.1156616	-7.538391	0.8401642
1493852702330	2.8754272	-6.9911957	2.8958282
1493852702330	1.3985901	-6.0441284	3.9944153
1493852702330	-0.8581543	-4.234497	4.469986
1493852702330	-2.5942535	-2.7295074	4.287552
1493852702331	-3.3200378	-1.8509521	3.546463
1493852702331	-3.070816	-1.7398529	2.5223846
1493852702331	-2.2326508	-2.7424774	1.225174
1493852702331	-1.3752899	-4.907837	-2.0170593
1493852702331	-1.3923035	-9.8884735	-9.1610565
1493852702331	-2.384369	-15.350891	-12.6519165
1493852702332	-3.364975	-16.063828	-11.896423
1493852702332	-2.5308075	-12.594376	-8.844559
1493852702332	-1.6681519	-9.67543	-6.4627533
1493852702332	-4.4790955	-9.324585	-8.64119
1493852702332	-9.15448	-16.603928	-7.4879303
1493852702332	-3.9505768	-17.965729	-2.6559448
1493852702332	0.4095459	-10.915619	3.9829712
1493852702333	1.1454773	-3.5345001	7.524399
1493852702333	-0.82496643	-3.9735718	7.291733
1493852702333	-0.1758728	-8.681198	9.757462
1493852702333	3.2612305	-12.349304	8.117798
1493852702333	3.9190369	-15.881653	-0.13722229
1493852702333	3.4105072	-13.673019	-1.7954254
1493852702333	3.2852478	-11.997452	0.97254944
1493852702334	2.558136	-9.862762	1.5113983
1493852702334	0.6060486	-8.439468	0.6502533
1493852702334	-0.27870178	-7.687805	-0.55714417
1493852702334	-0.6313782	-8.121841	-0.53152466
1493852702334	-0.0975647	-8.955887	-1.2354431
1493852702334	0.7140045	-9.495529	-0.57618713
1493852702334	1.4151154	-9.229324	-0.68185425
1493852702335	1.0567932	-8.624283	-1.7632446
1493852702335	1.3819275	-8.220413	-0.8727722
1493852702335	1.7518616	-8.831589	0.73999023
1493852702335	1.5882874	-9.738327	1.631012
1493852702335	2.0606842	-10.178543	0.6753082
1493852702335	3.2107086	-9.571167	-0.9065857
1493852702336	2.7090302	-9.921875	-0.89808655
1493852702336	0.71603394	-11.184128	-0.33976746
1493852702336	0.06349182	-11.662186	-0.24937439
1493852702336	2.505371	-11.571136	0.8492584
1493852702336	4.2506866	-11.91748	1.5827179
1493852702336	3.8145294	-12.394165	0.46720886
1493852702337	4.591217	-13.095062	0.3610382
1493852702371	4.8843536	-13.0724945	-0.710495
1493852702371	3.1748505	-12.733292	-3.9781036
1493852702371	1.6280518	-12.303146	-4.711258
1493852702372	-0.55558777	-10.676224	-2.196518
1493852702372	-1.3531952	-10.359161	0.5817261
1493852702372	-2.0280914	-12.002609	3.261032
1493852702372	-3.4071503	-15.065506	3.6165009
1493852702372	-4.6421967	-17.185272	1.1968689
1493852702372	-4.0711975	-15.983292	-1.3957825
1493852702372	-3.015625	-13.278137	-0.9627838
1493852702373	0.09529114	-10.926819	0.75616455
1493852702373	3.8879547	-9.233536	0.72865295
1493852702373	5.058838	-8.465546	0.28567505
1493852702373	4.3612976	-7.8217316	1.4763336
1493852702373	2.1360016	-7.0236664	2.8470306
1493852702373	-0.35638428	-5.8688507	3.0670166
1493852702374	-2.1566315	-4.556183	3.2002258
1493852702374	-2.8103485	-3.5517426	3.67424
1493852702374	-2.9289856	-2.6890564	2.9559631
1493852702374	-2.7899475	-2.5719452	1.8184357
1493852702374	-2.2224274	-3.503128	0.43347168
1493852702374	-1.5839996	-5.814743	-2.893509
1493852702374	-1.6408386	-10.13324	-7.5966034
1493852702375	-2.6118622	-14.890289	-9.890671
1493852702375	-3.0338593	-16.216492	-11.048447
1493852702375	-1.9887238	-14.305634	-9.27301
1493852702375	-0.5190582	-13.07132	-6.0425262
1493852702375	-2.1244965	-10.849731	-5.3693542
1493852702375	-5.1613617	-7.978363	-5.93573
1493852702376	-7.275711	-11.026627	-7.181534
1493852702376	-7.352234	-16.550842	-5.490982
1493852702376	-2.9872284	-13.94458	2.3025665
1493852702376	-0.9070282	-6.253128	4.940506
1493852702376	0.3929901	-3.2372437	7.217575
1493852702376	0.39611816	-5.007431	7.81044
1493852702376	2.5812073	-9.093933	8.547577
1493852702377	4.4026184	-13.4583435	3.9411316
1493852702377	5.230438	-14.476105	-1.9727783
1493852702377	5.243744	-12.554123	-1.827179
1493852702377	3.6630554	-10.005402	-0.43815613
1493852702377	1.5569153	-8.07431	1.6617126
1493852702378	-0.64108276	-8.023804	0.9565735
1493852702378	-1.3528137	-8.358063	0.6633148
1493852702378	-1.4992828	-9.22435	-1.5925293
1493852702378	0.8674011	-9.468704	-0.5059662
1493852702378	2.1923065	-9.466034	0.17900085
1493852702378	2.6391602	-8.895813	-0.031326294
1493852702378	2.239212	-8.708282	-0.23501587
1493852702379	1.8814087	-8.949799	0.028717041
1493852702379	1.2209015	-9.7434845	0.7922821
1493852702379	0.67071533	-10.13324	0.36328125
1493852702379	1.2944183	-10.294922	-0.60072327
1493852702379	1.5146484	-10.751831	-0.13972473
1493852702379	0.9940033	-11.246872	0.11231995
1493852702379	1.1659241	-11.179092	-0.1756897
1493852702380	3.452835	-11.123901	-0.3027954
1493852702380	4.882202	-11.373795	0.43128967
1493852702380	3.3328857	-11.6345215	-0.086364746
1493852702380	2.8916473	-12.149551	-0.66703796
1493852702380	4.538086	-13.200592	-1.5971527
1493852702380	4.740219	-13.105225	-3.2601624
1493852702382	2.4120636	-12.048676	-3.0385895
1493852702382	-0.8275757	-10.857819	-1.1548462
1493852702382	-2.56781	-11.448395	1.3640747
1493852702382	-3.5735016	-14.432922	3.355713
1493852702382	-4.6213684	-17.345795	3.3905334
1493852702383	-4.4496	-16.91774	0.9457855
1493852702383	-3.1700745	-13.977692	-0.91464233
1493852702383	-1.6200714	-11.522629	0.16319275
1493852702383	1.2170105	-9.735519	1.3281403
1493852702383	3.4112854	-8.5482025	1.3176727
1493852702383	3.557373	-7.5891266	0.8475342
1493852702384	2.8753967	-6.853241	1.6994171
1493852702384	1.4135132	-6.0245667	2.4595642
1493852702384	-0.1321106	-4.9097443	2.7689514
1493852702384	-1.5025787	-3.9497375	3.070282
1493852702384	-2.1527863	-3.3050995	3.0703888
1493852702384	-2.2149506	-3.1202393	2.2445374
1493852702385	-2.0551453	-3.5606232	0.885376
1493852702385	-1.6475067	-4.9989624	-1.7081451
1493852702385	-1.2814941	-8.080154	-7.349121
1493852702385	-1.405838	-12.94606	-8.31337
1493852702385	-2.7035522	-16.751175	-11.416397
1493852702385	-2.2572174	-14.850403	-10.405518
1493852702386	-1.2619019	-11.518524	-6.9913177
1493852702386	-0.8982086	-9.735092	-5.519272
1493852702386	-2.9962769	-7.77388	-6.2033386
1493852702386	-5.068741	-7.5457	-6.6955414
1493852702386	-6.461746	-12.2552185	-2.6012573
1493852702386	-5.339279	-15.656326	-1.2801971
1493852702389	-3.3139038	-14.2191925	0.22518921
1493852702389	0.21165466	-7.16098	5.502304
1493852702389	-1.0626678	-5.4160767	5.9967194
1493852702389	0.5631561	-6.4504395	8.018005
1493852702390	3.087967	-10.100082	6.727371
1493852702390	5.2263336	-13.163376	1.855835
1493852702390	5.052841	-13.601715	-0.42803955
1493852702390	5.052887	-12.031189	0.17713928
1493852702390	2.6821136	-9.657623	0.3436432
1493852702391	0.8181305	-8.4908905	1.3186188
1493852702391	-1.3006592	-8.347168	0.5704956
1493852702391	-2.0181427	-8.597961	0.3876648
1493852702391	-2.4317017	-9.373322	-1.7687073
1493852702391	-0.5637665	-9.613968	0.0024108887
1493852702391	1.3120575	-9.362701	0.79541016
1493852702391	2.4262543	-8.87706	-0.0695343
1493852702391	2.731659	-8.731934	0.22650146
1493852702391	1.9393005	-9.17038	1.0767517
1493852702391	1.0889893	-9.746887	0.63179016
1493852702391	1.4310608	-10.499176	-0.779129
1493852702392	2.1007233	-10.583588	-0.26094055
1493852702392	2.0080566	-10.190002	-0.072265625
1493852702392	1.58844	-10.677139	-0.30065918
1493852702392	2.0428314	-11.003403	-0.12332153
1493852702392	3.3017426	-10.844208	0.5219574
1493852702392	3.295761	-10.821228	0.27285767
1493852702392	2.5352478	-11.044098	-1.20047
1493852702392	3.653473	-11.928284	-1.4094543
1493852702392	5.7341156	-12.464737	-1.2339935
1493852702392	4.905121	-12.234833	-2.8554993
1493852702392	1.5707855	-11.819168	-3.1023865
1493852702392	-1.2792206	-11.195023	-0.49719238
1493852702392	-2.3526917	-12.748825	2.673706
1493852702392	-3.723465	-16.048462	4.1613007
1493852702392	-5.042755	-18.720215	2.803894
1493852702392	-4.386444	-17.73703	-0.21542358
1493852702392	-2.920166	-14.606812	-1.5156097
1493852702392	-0.6489258	-11.9605255	0.5623779
1493852702392	2.378769	-10.1380005	1.5462036
1493852702392	3.7471771	-8.806564	0.3043213
1493852702392	3.306427	-7.3976135	0.7622223
1493852702392	2.438095	-6.2457275	2.5875854
1493852702392	1.009018	-4.911743	3.6094055
1493852702392	-0.7332916	-3.539856	3.811737
1493852702392	-2.1736908	-2.9695282	3.8511047
1493852702392	-2.7325592	-2.6341553	3.0070343
1493852702392	-2.5719604	-3.0036774	1.8890533
1493852702392	-2.2816772	-4.2158356	0.27638245
1493852702392	-1.5065918	-6.311325	-3.577774
1493852702392	-1.1602936	-11.026291	-7.9927673
1493852702392	-1.9502258	-15.348526	-7.963028
1493852702392	-3.9173126	-15.840988	-8.640869
1493852702392	-3.909378	-11.966064	-8.062607
1493852702392	-2.009842	-9.916611	-6.6580353
1493852702392	-0.49111938	-9.0256195	-6.107544
1493852702392	-1.1612244	-6.624344	-7.986038
1493852702392	-4.7324066	-4.9776764	-4.8582
1493852702392	-11.850815	-12.009476	-2.2835999
1493852702392	-7.669098	-19.12178	-3.744217
1493852702393	-0.4028015	-19.474823	-1.6112518
1493852702393	2.664795	-6.1932983	7.1513824
1493852702393	0.6471863	-2.8598328	7.225189
1493852702393	2.6674042	-4.285263	10.560211
1493852702393	2.79953	-9.538223	7.623413
1493852702393	3.8453674	-15.43721	-0.19259644
1493852702393	1.5863037	-14.733261	-0.3828888
1493852702393	2.3212128	-11.36441	-0.9989166
1493852702393	2.0721436	-8.384827	0.2723236
1493852702393	-0.1361084	-7.8769226	1.6540375
1493852702393	-0.37542725	-8.174194	1.8674927
1493852702393	0.92652893	-9.604401	0.8734894
1493852702393	1.9983063	-10.080612	-2.081726
1493852702393	2.3827515	-9.510239	-1.1227875
1493852702393	2.053009	-9.110306	-0.8806
1493852702393	1.0049438	-8.566971	-1.1277313
1493852702393	1.2489929	-8.417679	0.14511108
1493852702393	1.700592	-9.096771	0.7662506
1493852702393	2.1903992	-9.687119	0.43444824
1493852702393	2.4534454	-9.605362	-0.84835815
1493852702393	1.5348816	-9.725113	-0.74742126
1493852702393	0.24023438	-10.447815	-0.09362793
1493852702393	-0.73347473	-11.242401	-0.31576538
1493852702393	0.6997833	-11.070801	0.20510864
1493852702393	3.0558472	-11.041046	1.679596
1493852702393	3.2350159	-11.146484	1.1320648
1493852702393	2.8990479	-11.246994	0.44154358
1493852702393	4.17659	-12.641632	0.31967163
1493852702393	5.495224	-13.75238	-1.2293243
1493852702393	4.8454895	-13.001678	-3.475296
1493852702393	1.8004303	-11.633392	-3.6638184
1493852702393	-0.6356201	-10.739746	-1.3061218
1493852702393	-1.8474274	-11.565613	2.2197266
1493852702393	-3.0330048	-13.89032	4.0897064
1493852702393	-4.091614	-16.881454	2.9958954
1493852702393	-3.7684174	-17.489609	0.55223083
1493852702393	-2.845749	-15.171265	-0.72454834
1493852702393	-1.5501709	-12.52742	0.4492035
1493852702393	1.0477142	-10.61319	1.7942047
1493852702393	2.3330688	-9.2703705	0.6098938
1493852702393	3.0417633	-8.473724	0.2364502
1493852702393	3.668518	-7.701065	1.845047
1493852702393	2.0478058	-6.9295807	3.238968
1493852702393	-0.5198059	-5.496231	3.4529572
1493852702394	-2.7774353	-3.7638702	3.6987
1493852702394	-3.5463562	-2.3765106	3.2278748
1493852702394	-3.27594	-1.8397217	2.2496948
1493852702394	-2.5175781	-2.6236572	1.1908875
1493852702394	-1.5993042	-4.6233673	-0.9928894
1493852702394	-0.48291016	-8.366333	-8.601883
1493852702394	-0.6351776	-13.54068	-9.337601
1493852702394	-2.5084076	-16.273727	-11.364578
1493852702394	-4.5427246	-14.541611	-9.318695
1493852702394	-3.0810242	-11.126953	-5.8509827
1493852702394	-1.5459442	-9.375916	-5.227478
1493852702394	-3.6921234	-7.6014557	-6.019684
1493852702394	-6.5099335	-9.133133	-9.077438
1493852702394	-8.596268	-16.840576	-5.3666534
1493852702394	-1.8843689	-15.798752	2.070755
1493852702394	-0.2848816	-8.355835	4.1787415
1493852702394	-0.09855652	-4.2308655	7.820587
1493852702394	-1.6113281	-5.85907	6.4312286
1493852702394	1.6154785	-8.970123	8.822372
1493852702394	4.7200165	-12.455673	5.1999207
1493852702394	3.9662323	-14.288818	-0.2587433
1493852702394	4.353943	-13.150467	-0.3972931
1493852702394	4.766266	-10.977234	0.28936768
1493852702394	2.8526	-8.527481	1.1215515
1493852702394	0.8733063	-7.8442535	0.49157715
1493852702394	-0.43452454	-7.9727783	0.24223328
1493852702394	-1.4374542	-9.040878	-0.17921448
1493852702394	-0.98783875	-9.486084	-1.2333679
1493852702394	-0.045013428	-9.464066	-0.29510498
1493852702394	0.543396	-9.05011	-0.3638916
1493852702394	0.7001343	-8.654831	-0.32546997
1493852702394	1.2612762	-8.542343	0.36528015
1493852702394	1.0868835	-9.229111	1.1658936
1493852702394	1.4599915	-10.182236	1.097641
1493852702394	3.039734	-10.674301	-0.33184814
1493852702394	3.615036	-10.799088	-1.0509644
1493852702394	2.1037903	-11.081268	-1.0850677
1493852702394	1.1061401	-11.375519	-0.28871155
1493852702394	2.416336	-11.718384	0.54203796
1493852702394	3.4766846	-11.975204	0.37728882
1493852702394	3.3423615	-11.5763855	-0.64501953
1493852702394	4.5958557	-11.577591	-1.1967773
1493852702394	6.3796844	-12.395752	-1.3061981
1493852702395	5.702774	-12.771561	-2.421051
1493852702395	3.0304413	-12.5728	-2.9516907
1493852702395	-0.31529236	-11.55275	-1.1153259
1493852702395	-2.6527557	-11.508682	2.1654968
1493852702395	-4.0594177	-13.996613	4.1040497
1493852702395	-5.544983	-17.189941	3.1286774
1493852702395	-5.025589	-17.454437	0.085357666
