accelerometer_timestamp	accelerometer_x_data	accelerometer_y_data	accelerometer_z_data
1493856936776	1.1371155	4.2569885	7.7700653
1493856936777	1.2663727	4.257675	8.178864
1493856936777	1.3841095	4.392578	8.823959
1493856936799	1.3348694	4.3427277	8.943497
1493856936817	1.320755	4.281906	8.713013
1493856936836	1.2360077	4.294449	8.73053
1493856936856	1.0477753	4.2987366	8.878265
1493856936877	1.0682678	4.214081	8.660339
1493856936896	1.1188507	4.131317	8.715668
1493856936916	0.5143738	3.8969727	7.9922485
1493856936936	0.80085754	4.0583344	8.601334
1493856936956	0.95111084	4.279648	9.787933
1493856936975	1.2594299	4.114929	9.520203
1493856936995	0.48576355	4.222519	8.710495
1493856937015	0.34635925	4.237503	8.217346
1493856937035	0.73321533	4.2057037	8.6262665
1493856937055	1.0757599	4.3217316	9.452866
1493856937075	1.3726654	4.2246857	9.593918
1493856937094	1.653122	3.9540253	9.516922
1493856937114	1.5299683	3.7568817	8.86998
1493856937134	1.2702942	3.787201	8.738113
1493856937154	1.1468506	3.7851715	8.690216
1493856937174	1.3212128	3.974121	9.347351
1493856937194	1.409378	3.8635406	9.6041565
1493856937214	1.1312408	3.8879547	9.059265
1493856937233	0.97673035	3.9020996	8.6185
1493856937253	1.0664673	3.9620209	8.566574
1493856937273	0.839798	4.013214	8.463669
1493856937293	0.4390869	3.843567	8.289505
1493856937313	1.2208557	3.8885193	9.162811
1493856937353	1.0460205	3.958313	9.538696
1493856937372	0.5141449	4.006729	8.1466675
1493856937392	0.32112122	3.9880219	7.9496155
1493856937412	0.8510742	4.1268616	8.455338
1493856937432	1.1717072	4.0509186	9.866959
1493856937452	1.4843292	4.0065613	11.325943
1493856937472	1.1929016	4.0467834	11.134689
1493856937506	1.0423279	3.577423	9.338394
1493856937511	0.4862976	3.2609253	7.631119
1493856937572	-0.1104126	3.134018	5.690277
1493856937572	2.5560455	2.0263672	5.2087708
1493856937576	2.5056458	2.5935974	2.1439972
1493856937591	6.2441864	0.4705658	4.4077606
1493856937611	7.3443756	0.43434143	6.900772
1493856937631	6.2929688	2.035614	11.612198
1493856937650	-5.061905	3.894638	12.149094
1493856937670	-5.5542297	0.80384827	5.029434
1493856937690	6.410202	2.479828	1.536026
1493856937710	4.416153	-0.54397583	5.114868
1493856937729	6.5000305	1.8232574	11.036423
1493856937751	7.148041	-0.5210571	0.128479
1493856937769	6.5157013	-2.326126	-1.2207031E-4
1493856937789	5.9059906	-5.1697693	3.5458527
1493856937809	2.4256897	-7.8693237	0.84809875
1493856937829	5.0835266	-9.286972	-0.27192688
1493856937849	11.109879	-8.761948	-0.021575928
1493856937868	16.66623	-7.469223	1.1500092
1493856937888	16.462769	-7.9939575	3.1961823
1493856937908	13.776291	-10.793732	8.608536
1493856937928	15.463318	-13.135956	13.327362
1493856937948	18.624344	-12.559082	12.505585
1493856937968	19.461044	-10.219254	8.662476
1493856937988	19.461044	-7.732544	3.894104
1493856938007	19.461044	-4.573883	-0.030792236
1493856938027	19.461044	-0.1683197	-3.2551575
1493856938047	19.461044	3.8346558	-6.52063
1493856938067	19.461044	4.5968933	-7.199478
1493856938087	16.645508	2.4274902	-5.1973877
1493856938107	10.665024	-0.6395416	-3.0148163
1493856938126	5.1153107	-2.718811	-2.4558105
1493856938146	-1.981842	-6.1992188	-2.2582397
1493856938166	-5.2414093	-9.466721	-2.4981842
1493856938186	-0.5093231	-7.6037903	-4.2210693
1493856938206	3.9258423	-1.7541351	-5.1190796
1493856938226	8.103958	-1.490921	-0.9961548
1493856938246	12.621979	-7.477478	4.2605896
1493856938267	7.2265015	-8.390533	2.9594116
1493856938285	9.584412	-7.880249	-0.70614624
1493856938305	11.0212555	-9.095871	4.3582764
1493856938325	8.778763	-8.673233	-0.12678528
1493856938345	8.249207	-8.957001	-0.9027252
1493856938365	8.701782	-10.140427	0.19866943
1493856938385	9.165741	-10.40416	0.7029724
1493856938405	6.1819763	-10.18898	2.4779968
1493856938425	7.264145	-7.3343353	0.11578369
1493856938444	8.582184	-5.69339	4.7308044
1493856938465	7.7107544	-2.7828064	-1.298706
1493856938484	6.125763	-8.5793	-0.49923706
1493856938504	4.582901	-9.666	-9.335876
1493856938524	7.644684	-9.967178	2.957489
1493856938543	5.2796936	-9.156616	5.45665
1493856938563	7.381073	-2.1717072	-2.842636
1493856938583	3.8057861	-2.6600647	-2.3873138
1493856938603	3.0767822	-8.110947	1.7889862
1493856938623	2.9312897	-3.464737	-5.799698
1493856938643	4.417755	-7.3887634	2.4565125
1493856938663	7.1387787	-6.8398743	-2.8270416
1493856938682	4.3590546	-7.440628	-2.8680267
1493856938722	4.6551056	-3.3670197	0.40596008
1493856938742	3.2887115	-4.892227	0.9174957
1493856938763	2.3693848	-3.9007874	-1.4636993
1493856938782	0.23878479	-7.270584	-0.78045654
1493856938801	-0.017868042	-6.552948	-0.17073059
1493856938821	-0.745636	-10.263367	-1.9866791
1493856938841	-0.4183197	-10.528793	-0.19091797
1493856938861	-0.5194855	-13.4318695	1.7955627
1493856938881	-3.4085083	-8.170212	1.4084625
1493856938901	-1.9039307	-5.422348	-3.0643463
1493856938921	-1.9643555	-7.0367126	-2.0786438
1493856938940	0.14463806	-15.602371	1.5106812
1493856938960	6.1241913	-17.20665	-1.7425385
1493856938980	6.5641937	-7.8994293	4.066269
1493856939000	-4.833206	-12.043106	-0.67378235
1493856939020	-5.399994	-13.300232	-1.5509338
1493856939040	-0.7464905	-12.535294	0.8491211
1493856939060	-0.358078	-11.51149	3.250763
1493856939079	-1.5733643	-7.911194	4.624756
1493856939099	1.1191406	-4.662018	1.7442169
1493856939119	-2.597046	-7.519577	0.9310303
1493856939139	-3.451767	-9.270676	0.77960205
1493856939159	-2.2343445	-8.832687	1.835556
1493856939179	-0.20220947	-8.993134	2.8598785
1493856939199	1.0513306	-10.015091	2.916153
1493856939218	1.9299164	-10.547226	3.4830322
1493856939238	1.2527313	-10.394989	2.4666748
1493856939258	0.22009277	-9.654343	1.0474396
1493856939278	0.26707458	-9.53157	1.1833344
1493856939298	0.5813751	-9.56955	1.8239746
1493856939318	0.16021729	-9.447205	2.741333
1493856939338	-0.26342773	-9.743546	3.5829315
1493856939357	-0.8228302	-9.832596	3.336563
1493856939377	-0.86305237	-10.015869	2.4230042
1493856939397	-0.40699768	-10.013229	1.3435669
1493856939417	0.072250366	-9.811584	0.5102997
1493856939437	0.24967957	-9.684082	0.38883972
1493856939457	-0.27700806	-9.64003	1.106308
1493856939476	-0.9170685	-9.861191	2.1779327
1493856939496	-0.856308	-10.42067	2.6231384
1493856939516	-0.252594	-10.454376	2.4151611
1493856939536	0.22120667	-10.305893	1.9719391
1493856939556	0.41151428	-11.037506	1.4500427
1493856939576	0.80558777	-12.108643	0.9402466
1493856939596	1.4355774	-12.512741	0.11204529
1493856939615	2.1475372	-12.224167	-1.3252716
1493856939635	2.8674011	-11.602966	-2.518402
1493856939655	3.694046	-11.108017	-3.4188995
1493856939675	5.704178	-11.636673	-2.8383942
1493856939695	6.180313	-12.974167	-0.48703003
1493856939715	4.7114563	-13.984833	-0.31845093
1493856939734	0.7614746	-13.853775	-0.95770264
1493856939756	-1.8600006	-11.799789	1.4418182
1493856939774	-2.8232727	-10.70993	4.5413055
1493856939794	-2.4451752	-11.960632	7.4254913
1493856939814	-1.2783508	-13.43541	5.6821594
1493856939834	-0.10612488	-13.025162	-0.40951538
1493856939854	0.75234985	-11.585907	-2.5410767
1493856939873	1.4152374	-10.65535	0.37287903
1493856939893	3.9994812	-10.155106	2.5106354
1493856939913	2.4903564	-9.323059	1.7264252
1493856939933	0.057647705	-7.8388367	2.071289
1493856939953	-1.9303436	-6.6025696	1.9211273
1493856939973	-2.3610382	-5.7202454	1.7868195
1493856939993	-1.4192657	-5.7183228	1.8983765
1493856946393	-1.8355408	-6.2271423	2.9485931
1493856946393	-3.0889435	-5.493393	3.1558075
1493856946393	-3.561905	-4.4647675	3.1224976
1493856946393	-3.4484253	-3.997696	2.5445251
1493856946393	-2.0354767	-5.323242	0.528183
1493856946393	-0.48724365	-8.395218	-3.7949982
1493856946393	-0.81407166	-12.5134735	-10.990707
1493856946393	4.3299103	-18.143799	-16.657898
1493856946393	6.8087463	-18.248825	-11.511642
1493856946393	1.5823822	-12.16153	-4.581482
1493856946393	-0.2800598	-8.207901	-1.9173431
1493856946393	-0.32351685	-5.9905243	-1.9224854
1493856946393	-3.195755	-10.101913	-2.3214417
1493856946393	-3.0516815	-15.168579	-0.078125
1493856946393	-0.4263916	-15.378906	2.810669
1493856946393	-1.5353241	-9.232529	0.48342896
1493856946393	-5.61499	-2.886917	4.6471405
1493856946393	-4.710434	-3.4236145	8.685898
1493856946394	-0.40441895	-9.886444	5.5002747
1493856946394	1.3032074	-13.762939	2.918167
1493856946394	4.1874084	-13.349716	2.0684814
1493856946394	3.7052612	-10.972076	1.0838318
1493856946394	2.028534	-9.256653	1.5928192
1493856946394	-0.3675995	-8.729706	2.096054
1493856946394	-1.3773346	-8.929871	1.1037292
1493856946394	-1.1421661	-9.441849	0.14152527
1493856946394	-0.7760925	-9.885849	-0.31181335
1493856946394	-0.27394104	-9.399292	0.5851135
1493856946394	0.07899475	-8.4925995	1.2655792
1493856946394	0.31793213	-8.688339	1.4147034
1493856946394	0.50753784	-9.87706	0.7467041
1493856946394	1.0860138	-10.042236	0.15132141
1493856946394	0.84806824	-9.497299	-1.098114
1493856946394	1.2150879	-9.43367	-2.0974274
1493856946394	1.4764404	-10.438751	-0.061538696
1493856946394	0.14367676	-12.056534	0.87771606
1493856946394	0.03451538	-12.6622925	-1.1190796
1493856946394	1.8110809	-12.202866	-1.9751434
1493856946394	3.043518	-11.66127	-2.646103
1493856946394	3.4675293	-11.573746	-4.0638885
1493856946394	5.2334747	-12.994064	-3.8948517
1493856946394	5.3158264	-15.198486	-3.3196106
1493856946394	1.9611511	-15.098511	-1.2310791
1493856946394	-1.088974	-13.048843	3.222641
1493856946394	-3.1866608	-13.218079	4.972183
1493856946394	-3.3005219	-14.631577	3.9534302
1493856946394	-3.140091	-15.7695465	1.8922119
1493856946394	-2.861206	-15.219437	-0.16322327
1493856946395	-0.1306305	-11.985138	0.11659241
1493856946395	3.1513062	-9.433304	1.3064575
1493856946395	2.846939	-8.656906	0.5701599
1493856946395	0.69628906	-8.120605	0.4994049
1493856946395	-1.3465271	-6.9249115	2.4548187
1493856946395	-3.0338745	-5.224411	3.4225616
1493856946395	-3.9431	-4.346344	3.1369476
1493856946395	-3.8555756	-4.344452	3.1217957
1493856946395	-3.5469818	-4.314865	3.5701752
1493856946395	-3.4416656	-3.132965	4.086334
1493856946395	-2.9102173	-2.219696	3.5545044
1493856946395	-2.0890045	-3.335434	2.084732
1493856946395	-1.0212555	-7.9109344	-4.0097656
1493856946395	1.3969269	-15.654404	-16.546722
1493856946395	3.4637299	-19.066177	-19.694748
1493856946395	3.126297	-17.02185	-9.485077
1493856946395	0.8484497	-8.648163	-3.0031433
1493856946395	-2.313507	-7.397049	-1.4360657
1493856946395	-6.833069	-14.29187	-1.0334167
1493856946395	-4.5834656	-16.898254	-0.72683716
1493856946395	2.6462555	-11.484787	2.1903076
1493856946395	-0.10977173	-3.9059448	8.693054
1493856946395	-6.9926147	-0.43951416	4.255081
1493856946395	-5.239258	-6.3786316	6.3624573
1493856946395	0.8988495	-14.841721	5.8522797
1493856946395	5.6307373	-16.088745	3.3026428
1493856946395	5.3348846	-11.201309	-1.5421448
1493856946395	2.9643402	-8.053024	0.8209839
1493856946396	-0.6477356	-8.09903	1.117157
1493856946396	-3.641983	-9.218704	0.816391
1493856946396	-1.0471497	-9.790787	-0.101242065
1493856946396	0.007095337	-9.7221985	-0.40150452
1493856946396	0.19657898	-8.674698	-0.24349976
1493856946396	-0.14379883	-7.548233	0.66685486
1493856946396	-0.31974792	-8.000839	0.8408356
1493856946396	0.7992859	-8.902832	1.0209045
1493856946396	1.3672638	-9.95546	2.3107605
1493856946396	1.8986969	-10.29689	-0.26350403
1493856946396	2.7516174	-10.647598	-2.227707
1493856946399	1.8323822	-11.979584	-1.7561646
1493856946399	0.07841492	-12.173035	-2.7866516
1493856946399	0.949646	-12.004639	-2.5370026
1493856946399	3.7957916	-12.17836	-2.798584
1493856946399	6.265808	-13.596146	-3.569641
1493856946399	7.3496094	-15.355118	-1.2792358
1493856946399	2.194275	-15.512741	-1.2519684
1493856946399	-3.7138062	-14.491821	-0.22016907
1493856946399	-5.695038	-13.209915	2.0905151
1493856946399	-3.632187	-13.287231	4.9628143
1493856946399	-2.0561829	-15.057007	3.2778625
1493856946400	-2.6401215	-16.432419	-0.12075806
1493856946400	-1.0225372	-14.09317	-1.5861206
1493856946400	2.3103485	-10.789688	0.4441681
1493856946400	3.0763855	-9.904953	1.7221832
1493856946400	1.0694427	-9.354019	1.5514374
1493856946400	-1.3215942	-8.061188	1.9673004
1493856946400	-3.1860504	-6.074829	3.016327
1493856946400	-3.956787	-3.9250946	2.8196564
1493856946400	-3.629486	-2.9340973	2.5227356
1493856946400	-3.0631409	-3.1028595	2.6981354
1493856946400	-2.6217194	-2.9570007	2.7369537
1493856946400	-2.3552246	-1.7380676	3.1687317
1493856946400	-1.5617981	-1.7041626	3.130951
1493856946400	0.18702698	-4.757065	0.49391174
1493856946400	0.60020447	-10.768295	-9.2547
1493856946400	2.7736053	-17.057434	-18.056763
1493856946400	6.2008057	-19.474823	-12.55629
1493856946400	4.089737	-13.310318	-4.5204926
1493856946400	0.37631226	-4.7886505	-1.4496765
1493856946400	-5.7188416	-9.354797	-0.9653015
1493856946400	-4.9709625	-17.452255	4.013199
1493856946401	-2.4574432	-12.879013	5.1498413
1493856946401	-5.2705536	-4.2224426	2.0927277
1493856946401	-4.958618	-2.6162262	8.720413
1493856946401	0.28604126	-8.966293	8.22702
1493856946401	3.0775604	-15.025589	3.9946594
1493856946401	3.5347595	-13.750977	1.0106812
1493856946401	2.4197693	-10.2834015	1.6895447
1493856946401	0.18041992	-9.246643	1.554718
1493856946401	-1.2644806	-8.966446	1.1789398
1493856946401	-1.3542328	-8.902069	1.3940735
1493856946401	-1.1161499	-9.06752	1.0021057
1493856946401	-1.1871796	-8.965622	0.8714905
1493856946401	-0.868454	-8.696259	0.39042664
1493856946401	-0.09880066	-8.704575	-0.47488403
1493856946401	0.3288269	-8.202866	0.29953003
1493856946401	0.46221924	-8.239975	0.54426575
1493856946401	1.8103333	-9.035034	-0.4356842
1493856946401	2.9782715	-10.507263	2.320816
1493856946401	3.9538422	-10.443069	0.39653015
1493856946401	2.6265411	-11.225143	-1.6881104
1493856946401	-0.019515991	-11.951233	-2.923584
1493856946401	-0.52856445	-12.26059	-2.1317139
1493856946401	2.68898	-12.654709	-0.8677826
1493856946401	4.789749	-12.794205	-2.098175
1493856946401	5.1560364	-12.973938	-4.956024
1493856946401	6.8096313	-14.006836	1.3079834
1493856946401	3.3919373	-15.358765	-1.5942688
1493856946401	-2.0466309	-14.230331	-4.2133484
1493856946401	-5.543564	-13.079697	0.8230133
1493856946402	-4.723938	-12.588562	7.492813
1493856946402	-4.2005463	-13.636551	4.1931763
1493856946402	-5.756241	-16.875244	-0.91503906
1493856946402	-4.6405945	-16.457214	-1.7440033
1493856946402	-0.61717224	-11.524551	1.2354736
1493856946402	3.0422974	-9.005127	2.04776
1493856946402	3.2575684	-8.2344055	0.34031677
1493856946402	1.0991211	-7.0864105	-0.026855469
1493856946402	-0.7510071	-5.772171	1.710907
1493856946402	-2.4872131	-4.374222	2.2546082
1493856946402	-2.8571777	-3.2640533	2.6328735
1493856946402	-2.751648	-3.321869	3.3804169
1493856946402	-2.328415	-3.4436493	3.5883331
1493856946402	-2.6246338	-2.3944702	3.9575348
1493856946402	-2.2766418	-2.005844	3.4002228
1493856946402	-1.263443	-4.3089905	0.85661316
1493856946402	0.5279541	-9.653488	-5.935028
1493856946402	2.562729	-16.25261	-15.71962
1493856946402	4.944702	-19.474823	-17.123535
1493856946402	3.8243713	-16.566956	-9.555634
1493856946402	0.44534302	-7.9355774	-3.0148468
1493856946402	-3.5056763	-4.4369354	2.543106
1493856946402	-6.0275726	-11.432266	3.372116
1493856946402	-2.2981262	-17.8378	0.46421814
1493856946402	-0.5930786	-14.377472	0.34753418
1493856946402	-3.6473236	-4.921646	5.9185333
1493856946402	-7.111252	-1.3174438	9.828445
1493856946402	-5.4433136	-7.0199585	5.702774
1493856946402	0.4295044	-13.467926	4.7686462
1493856946402	4.8872375	-14.036423	3.6000671
1493856946402	6.210541	-12.314133	1.1694946
1493856946403	3.1567535	-10.7916565	0.46626282
1493856946403	-0.48840332	-9.123199	0.98794556
1493856946403	-2.771103	-8.085068	1.5399475
1493856946403	-2.8683624	-8.536713	1.1875
1493856946403	-1.3942566	-9.2836	0.34017944
1493856946403	-0.16322327	-9.412781	-0.11590576
1493856946403	0.5865021	-8.75946	0.12374878
1493856946403	1.120697	-7.881912	0.9438324
1493856946403	1.5443573	-7.7559814	1.3680115
1493856946403	1.7742462	-8.773895	1.7481384
1493856946403	2.086502	-9.848602	0.28564453
1493856946403	3.1023865	-10.105698	-1.4269714
1493856946403	3.1489105	-10.989822	-1.0320892
1493856946403	1.0154877	-12.15863	0.31375122
1493856946403	-1.3434296	-12.622818	-0.43910217
1493856946403	-0.3639984	-12.217117	-1.6312714
1493856946403	1.934906	-12.384262	-2.0492249
1493856946403	3.644577	-12.4926605	-2.6940765
1493856946403	6.1589203	-13.9331665	-1.6378174
1493856946403	6.83519	-15.429138	-2.0815735
1493856946403	1.6964874	-15.053192	-3.9108887
1493856946403	-3.9275055	-13.753571	-1.5661469
1493856946403	-5.1384583	-11.636017	4.675888
1493856946403	-4.4398804	-12.326477	5.223892
1493856946403	-3.1590729	-14.655823	3.000824
1493856946403	-3.3069763	-16.00232	-0.59962463
1493856946403	-1.2393646	-13.451996	-0.8374939
1493856946403	2.3843842	-10.202286	2.1808167
1493856946404	4.2697754	-9.3728485	1.7490692
1493856946404	1.4788055	-8.798264	0.94343567
1493856946404	-0.03691101	-7.8103943	1.6067047
1493856946404	-2.0898132	-6.307846	2.7296295
1493856946404	-3.1951752	-4.660248	2.931488
1493856946404	-3.0655518	-4.1681824	2.9662476
1493856946404	-2.9225922	-4.4823303	2.872223
1493856946404	-2.774231	-3.725937	3.3259125
1493856946404	-3.36174	-1.6117401	4.303528
1493856946404	-3.620453	-1.9100189	3.4190369
1493856946404	-1.6909027	-4.912796	0.6314087
1493856946404	-1.103836	-11.193924	-6.9255524
1493856946404	4.2437744	-19.474823	-19.722397
1493856946404	10.910599	-18.837875	-17.640823
1493856946404	3.3439026	-12.750366	-2.243927
1493856946404	-1.201767	-4.258072	-0.29542542
1493856946404	-7.5222626	-11.577972	0.7965088
1493856946404	-6.265793	-17.784714	1.4140472
1493856946404	-2.848114	-11.554459	2.09964
1493856946404	-4.4508667	-4.762787	5.6851654
1493856946404	-4.922287	-3.5427856	13.023712
1493856946405	-3.282898	-9.496368	6.6437073
1493856946405	0.3294525	-14.962448	4.658661
1493856946405	3.806839	-13.683685	3.3918152
1493856946405	5.1392517	-10.253479	0.59243774
1493856946405	2.9405212	-9.725464	0.81811523
1493856946405	0.55532837	-9.195419	1.0823822
1493856946405	-1.1900787	-8.736389	1.1609039
1493856946405	-2.2671661	-8.937973	0.40698242
1493856946405	-1.6841278	-9.071381	-0.5135193
1493856946405	-0.8364258	-8.8845215	-0.2729187
1493856946405	0.232193	-8.292053	0.55441284
1493856946405	0.6700897	-8.396652	0.09442139
1493856946405	0.790329	-9.070435	0.47477722
1493856946405	1.0619049	-9.655289	1.4272919
1493856946405	1.5026093	-10.01001	0.6361542
1493856946405	2.1429596	-10.392487	-1.6346283
1493856946405	2.9513855	-11.309006	-2.191681
1493856946405	2.5512543	-12.312332	-0.9582825
1493856946405	0.55667114	-12.253006	-1.528595
1493856946405	0.2055664	-11.906403	-2.949829
1493856946405	2.0472717	-11.829407	-3.377533
1493856946405	3.5195465	-12.2552185	-4.9163055
1493856946405	5.197815	-14.228027	-4.020767
1493856946406	5.2934723	-15.271973	-1.9294739
1493856946406	2.0658264	-14.066528	0.29867554
1493856946406	-1.9116364	-12.892197	3.5962067
1493856946406	-3.7214203	-13.590439	5.468704
1493856946406	-2.6842346	-15.050034	3.579361
1493856946406	-1.7570648	-16.267181	2.0246887
1493856946406	-0.8403778	-15.619431	0.6650238
1493856946406	1.9938049	-12.446487	1.0993347
1493856946406	4.2420197	-9.967499	0.83296204
1493856946406	3.3385468	-9.180649	-0.43959045
1493856946406	0.8886719	-8.017242	1.8327637
1493856946406	-2.0935059	-5.695221	3.20932
1493856946406	-3.7607727	-3.7824554	3.4296112
1493856946406	-4.028061	-3.1974945	3.2562103
1493856946406	-3.9390717	-3.6623077	3.2437897
1493856946406	-3.984436	-3.335205	4.677429
1493856946406	-4.825012	-2.4613647	4.239044
1493856946406	-3.9020538	-3.17482	2.5410004
1493856946406	-1.0857239	-6.6163177	-0.50746155
1493856946406	-1.0838623	-13.047333	-11.776428
1493856946406	5.357025	-18.785019	-18.943466
1493856946406	11.598343	-19.474823	-7.5160522
1493856946406	3.8715515	-11.438187	-3.765854
1493856946406	-0.72854614	-5.0326233	-1.2969513
1493856946406	-1.7363281	-1.4952698	-1.4562988
1493856946407	-5.997177	-13.401825	-2.0484161
1493856946407	-2.208023	-18.619537	8.209152
1493856946407	-0.856781	-17.684982	-6.011429
1493856946407	-4.3173676	-4.1076508	4.6049805
1493856946407	-7.6779633	-1.5312347	10.729904
1493856946407	-2.7588806	-7.7707977	7.7043304
1493856946407	0.8458252	-14.491043	3.924942
1493856946407	5.6936646	-14.518005	3.1582794
1493856946407	5.645157	-12.080765	0.24003601
1493856946407	0.92315674	-9.834259	-0.2689972
1493856946407	-1.8494873	-8.4761505	1.3766327
1493856946407	-2.6156158	-8.364212	0.94540405
1493856946407	-1.9181366	-8.698181	0.6782074
1493856946407	-0.7870941	-8.967026	0.15150452
1493856946407	-0.1790924	-9.04068	-0.037902832
1493856946407	0.18322754	-8.57814	0.18016052
1493856946407	0.47265625	-8.2034	0.57865906
1493856946407	1.0677338	-8.706955	0.5325165
1493856946407	1.5152283	-9.548157	-0.011154175
1493856946407	1.8873444	-9.880936	-0.5368805
1493856946407	2.5280151	-10.3134	-1.3144073
1493856946407	1.8814697	-11.835587	-0.7340698
1493856946407	0.05682373	-12.604492	-1.4311676
1493856946407	-0.029037476	-12.353531	-3.2759552
1493856946407	2.1166687	-11.926147	-1.9258575
1493856946407	3.5424652	-11.516251	-1.8708344
1493856946407	4.247879	-12.704254	-2.4137268
1493856946407	5.608307	-15.5142975	-2.1479797
1493856946407	2.7784424	-16.056442	-3.1174011
1493856946408	-3.1065063	-13.869217	-0.53523254
1493856946408	-3.4246216	-12.713211	3.6573792
1493856946408	-0.4248047	-12.332077	5.104004
1493856946408	-0.15956116	-13.693878	3.1063843
1493856946408	-2.0125275	-15.62648	0.45419312
1493856946408	-2.0263062	-14.879074	-0.19528198
1493856946408	0.333786	-11.566696	1.7845459
1493856946408	2.1453552	-9.61319	2.0357056
1493856946408	1.4165192	-9.097092	1.0324707
1493856946408	-0.64663696	-8.051239	2.1846924
1493856946408	-2.3656769	-6.5046234	2.881607
1493856946408	-3.063446	-5.1144867	2.5332947
1493856946408	-2.5541992	-4.5889435	2.4426727
1493856946408	-2.3199768	-4.670822	2.6033173
1493856946408	-3.261139	-3.555359	3.4858856
1493856946408	-4.2240295	-1.7436523	4.258087
1493856946408	-3.5875854	-1.7690125	3.3975677
1493856946408	-1.3086548	-5.12265	-0.45684814
1493856946408	-0.92271423	-11.515884	-9.133057
1493856946408	3.0528564	-17.640656	-17.390839
1493856946408	8.623505	-19.474823	-9.264725
1493856946408	5.3849335	-11.611389	-2.847824
1493856946408	0.78074646	-4.276001	-0.16189575
1493856946408	-4.940918	-12.75177	-0.7542877
1493856946408	-0.17514038	-18.737564	0.7752228
1493856946408	0.4557495	-14.881271	4.7705536
1493856946408	-7.327942	-4.0798798	1.2794952
1493856946408	-14.459579	-0.12728882	10.278763
1493856946408	-9.3703	-6.0648193	9.481247
1493856946408	-1.9774017	-14.020981	6.7142334
1493856946409	7.0204315	-15.041748	3.3609009
1493856946409	9.353287	-14.343536	1.140976
1493856946409	7.1028748	-8.873154	1.5290527
1493856946409	-1.603714	-7.837326	1.2676086
1493856946409	-4.176361	-8.47966	-0.47659302
1493856946409	-2.428833	-9.570435	0.23973083
1493856946409	-1.1753082	-10.136841	-1.0323639
1493856946409	-0.88468933	-8.612778	0.40937805
1493856946409	-0.60206604	-8.136154	0.6199646
1493856946409	0.7831726	-8.578445	0.18751526
1493856946409	2.4904785	-8.777542	1.1331329
1493856946409	1.8081055	-9.142227	1.7138824
1493856946409	1.4853973	-9.807632	-0.35250854
1493856946409	2.3304443	-10.485992	-1.453537
1493856946409	2.374771	-12.488022	-0.37742615
1493856946409	-0.25654602	-13.089554	-1.6130371
1493856946409	-1.3636475	-12.222641	-5.2302856
1493856946409	3.1006775	-11.902649	-2.2472687
1493856946409	7.827408	-11.8125305	-2.3248444
1493856946409	8.823227	-13.57605	-0.101745605
1493856946414	4.776184	-16.142654	-2.883255
1493856946434	-1.576294	-15.640747	-4.4643097
1493856946454	-7.4552	-13.851288	2.6220856
1493856946474	-6.124069	-13.089874	7.382187
1493856946494	-3.9812622	-14.432541	3.8916626
1493856946514	-3.6358795	-16.278763	0.7937622
1493856946533	-3.8762207	-15.464142	-2.1121063
1493856946553	-0.4647827	-11.625229	0.4771881
1493856946573	2.9814606	-9.177673	2.4477386
1493856946593	2.2383575	-8.865189	1.07547
1493856946613	-0.38658142	-7.8418274	0.17948914
1493856946633	-1.8372192	-6.1098022	2.7782288
1493856946653	-3.8310547	-4.561035	3.400711
1493856946673	-4.2570953	-3.2755127	3.5244598
1493856946693	-4.0051727	-2.777832	3.7723083
1493856946712	-3.4740143	-2.4734344	3.9176025
1493856946732	-3.0700073	-1.5352325	3.820938
1493856946752	-2.4276886	-2.0505219	2.6779633
1493856946772	-0.88049316	-5.818878	-1.5782623
1493856946792	3.0939484	-13.458725	-11.935303
1493856946811	5.330246	-19.260544	-19.553696
1493856946831	3.9145508	-18.24884	-13.088699
1493856946851	2.2773895	-12.627228	-3.6882935
1493856946871	0.23274231	-5.1769104	-1.6203308
1493856946891	-2.1973572	-3.233551	0.82437134
1493856946911	-4.054825	-10.327301	2.6191864
1493856946932	-3.7793732	-17.875687	0.87716675
1493856964313	-3.440628	-15.511063	-3.4950867
1493856964313	-3.925888	-7.1117096	4.27446
1493856964314	-5.195236	-3.1265564	12.245956
1493856964314	-3.6877136	-7.896927	7.0094604
1493856964314	0.4073639	-12.709122	4.1650696
1493856964314	4.583435	-13.091232	2.7781067
1493856964314	4.671936	-12.014618	0.71720886
1493856964315	1.085083	-10.742554	0.2470398
1493856964315	-1.2066345	-9.359299	0.9608307
1493856964315	-1.8024445	-8.532242	1.2792969
1493856964315	-1.5388489	-8.490845	0.6536255
1493856964315	-0.89956665	-8.469086	0.43322754
1493856964315	-0.46775818	-8.231567	0.70565796
1493856964315	0.08529663	-7.9446106	0.5035095
1493856964316	0.5813751	-8.102371	0.779953
1493856964316	1.1279297	-9.441071	0.9898987
1493856964316	2.1277313	-10.697678	0.65818787
1493856964316	2.9294739	-10.948196	-0.5924835
1493856964316	2.903534	-11.001678	-1.7653351
1493856964316	1.1539154	-11.409683	-0.5204468
1493856964317	-0.6826782	-11.757446	-0.087265015
1493856964317	0.05934143	-12.1883545	-2.393921
1493856964317	3.3890991	-12.588348	-2.800293
1493856964317	5.5944977	-11.979599	-3.3253937
1493856964317	6.5074615	-12.271179	-3.328186
1493856964317	6.089737	-14.239273	-1.8187103
1493856964317	2.1503448	-15.033981	-4.148651
1493856964318	-4.264969	-13.824493	-0.66897583
1493856964318	-6.539566	-12.450562	7.4028625
1493856964318	-6.7466583	-13.169937	5.542801
1493856964318	-4.499176	-15.306885	1.1505737
1493856964363	-4.997299	-16.962494	-1.621872
1493856964363	-2.4925232	-13.942841	0.04837036
1493856964363	0.98443604	-9.918945	2.047821
1493856964363	3.4111023	-9.005096	2.1246338
1493856964364	1.2179413	-9.292038	-0.71751404
1493856964370	-0.37290955	-7.430191	0.9197235
1493856964370	-2.8944092	-6.106674	2.42984
1493856964370	-3.9221497	-4.321121	3.0340881
1493856964370	-3.4210358	-3.4562683	2.6301727
1493856964372	-3.0225525	-3.210205	2.5492706
1493856964372	-3.0381317	-2.4745178	3.065689
1493856964372	-3.306778	-1.2996674	3.709198
1493856964373	-2.3231506	-2.6801147	2.0074615
1493856964373	-0.09591675	-6.708023	-2.3578644
1493856964373	2.632721	-12.63269	-10.732925
1493856964373	6.9076385	-19.474823	-18.817657
1493856964373	8.740036	-18.06218	-13.152222
1493856964373	2.5900116	-11.39003	-4.5191956
1493856964373	0.3421631	-4.6019745	-0.5870056
1493856964373	-1.9447937	-4.195511	1.7373352
1493856964373	-6.068039	-15.222717	2.5506134
1493856964373	-2.562088	-18.5643	1.6286774
1493856964373	-4.1073	-11.466537	-5.0043335
1493856964373	-7.9988556	0.5201416	7.217209
1493856964373	-5.1362915	-0.62597656	13.892639
1493856964373	1.0217133	-11.188049	7.311554
1493856964373	5.5460663	-18.451538	2.119751
1493856964373	6.6687927	-15.452148	1.0485382
1493856964373	2.5458374	-10.1132965	1.2535858
1493856964373	-2.2191162	-7.9621887	1.0236053
1493856964373	-3.8188477	-7.8514404	0.8457489
1493856964373	-2.441391	-8.695801	1.287323
1493856964373	-0.62857056	-9.5961	1.0256195
1493856964373	0.19665527	-9.650711	0.5701294
1493856964373	0.17837524	-8.923584	-0.04194641
1493856964373	0.3890381	-8.336761	-0.29830933
1493856964373	0.92111206	-8.22377	0.4490204
1493856964373	1.1773529	-8.752548	0.8683777
1493856964373	1.6619873	-9.678574	0.5740967
1493856964373	2.4021149	-10.309631	-0.36686707
1493856964373	2.5798035	-10.671173	-1.4822845
1493856964373	0.8578491	-11.406876	-2.1688538
1493856964373	-0.5120239	-11.920242	-2.494339
1493856964373	0.633255	-11.623413	-2.5034027
1493856964373	2.521576	-11.428223	-3.139038
1493856964373	5.399933	-12.714081	-3.128891
1493856964373	8.209488	-15.845703	-1.8987732
1493856964373	3.6938477	-16.98668	-2.8999329
1493856964373	-3.8819275	-14.834137	-1.133728
1493856964373	-6.2355347	-13.167984	4.7649536
1493856964373	-5.0017853	-13.334122	5.6071167
1493856964373	-4.4734344	-15.845062	1.9798126
1493856964373	-4.7885284	-17.075974	-0.55903625
1493856964373	-2.698639	-14.1201935	-0.34092712
1493856964373	2.0441895	-10.118927	1.8976746
1493856964374	4.244751	-8.700699	2.7298737
1493856964374	1.6538391	-8.398499	-0.5204315
1493856964374	-0.062026978	-6.8516083	1.5124512
1493856964374	-2.5246124	-4.9650726	2.6023712
1493856964374	-3.7260742	-3.033661	3.013626
1493856964374	-3.7205048	-1.965744	2.7428436
1493856964374	-3.6105652	-2.5761108	2.9713135
1493856964374	-3.5303802	-1.914032	3.5418854
1493856964374	-3.2823029	-1.275589	3.2821198
1493856964374	-2.7670898	-3.3309937	1.2330322
1493856964374	-0.4710083	-8.526733	-4.404434
1493856964374	3.8173065	-17.012085	-16.842377
1493856964374	7.57106	-19.42833	-19.670013
1493856964374	3.6924133	-17.364624	-8.500107
1493856964374	0.3263092	-7.962158	-3.6330261
1493856964374	-0.768219	-3.665329	-0.9436188
1493856964374	-5.9034424	-11.676758	-0.26991272
1493856964374	-3.933792	-19.328827	-3.6954193
1493856964374	0.5412445	-15.795959	5.414856
1493856964374	-10.220734	-2.2387085	-0.20948792
1493856964374	-8.950531	0.39491272	12.75769
1493856964374	-1.1763611	-6.5984497	11.282562
1493856964374	1.7628784	-16.693878	3.521164
1493856964374	5.4643097	-15.807297	2.0534515
1493856964374	6.068207	-10.900131	1.8208466
1493856964374	2.6519165	-8.994141	1.8914795
1493856964374	-0.40264893	-8.811157	0.81295776
1493856964374	-2.2375488	-8.795746	1.9832611
1493856964374	-2.9180756	-8.976074	1.4707794
1493856964374	-2.3693085	-9.14328	0.44718933
1493856964374	-1.1970673	-9.139633	0.4124756
1493856964374	-0.06983948	-8.8528595	0.6316681
1493856964374	1.2233582	-8.528336	0.5986023
1493856964374	1.774765	-8.679092	-0.23147583
1493856964374	1.6087189	-9.354874	-0.006942749
1493856964374	1.6347198	-10.118546	0.4144745
1493856964374	1.96138	-10.321411	-0.41784668
1493856964374	2.4085846	-10.700745	-1.3455963
1493856964374	2.299179	-12.009323	-1.6528473
1493856964374	1.2012024	-12.350006	-1.5675812
1493856964374	0.7402344	-11.620377	-2.069458
1493856964374	1.7292786	-11.260605	-1.8802338
1493856964374	3.2928467	-11.800598	-2.8268127
1493856964375	5.4099274	-13.839172	-2.936203
1493856964375	5.6263123	-15.819107	-1.7812042
1493856964375	1.4895325	-15.321228	-2.1124573
1493856964375	-3.376236	-13.723312	0.40281677
1493856964375	-5.558014	-13.122635	4.2359314
1493856964375	-5.1266937	-14.015762	5.0428467
1493856964375	-4.2646484	-15.758789	3.124054
1493856964375	-3.139145	-15.448807	0.045806885
1493856964375	0.4203186	-12.294174	-0.70532227
1493856964375	4.238556	-9.568878	1.3822784
1493856964375	3.612152	-8.583588	1.7224121
1493856964375	1.2158966	-7.8588104	1.2625732
1493856964375	-0.88246155	-7.1155853	1.4925232
1493856964375	-2.41185	-5.73645	3.0429993
1493856964375	-3.101883	-4.431885	3.2178497
1493856964375	-3.3783417	-4.1790314	3.4193726
1493856964375	-3.9484406	-4.0184326	3.6611633
1493856964375	-4.0510864	-3.1713867	3.6446838
1493856964375	-3.9799957	-2.021988	3.6147308
1493856964375	-3.2664337	-2.3495789	2.8713531
1493856964375	-1.6760712	-5.9732056	-1.3733063
1493856964375	-0.10484314	-13.624176	-12.527939
1493856964375	6.2542877	-18.598053	-18.789642
1493856964375	8.057877	-19.474823	-9.464508
1493856964375	3.686493	-11.232697	-3.794281
1493856964375	0.5357361	-2.7733307	-0.5474243
1493856964375	-6.369385	-9.11377	0.89401245
1493856964375	-4.4482117	-16.88707	5.2863464
1493856964375	-3.5677643	-16.39154	-2.5059662
1493856964375	-5.1415405	-6.5222015	2.047699
1493856964375	-7.402054	-2.133133	11.26149
1493856964375	-5.7240143	-5.58078	9.038635
1493856964375	-0.1736908	-13.175262	5.5187225
1493856964375	6.221939	-14.411957	5.2655945
1493856964375	7.4784393	-12.477646	1.2722626
1493856964375	3.167099	-10.541199	-0.139328
1493856964375	-1.0643616	-9.082397	1.5603333
1493856964375	-3.21875	-8.410706	1.8227386
1493856964375	-3.0647125	-8.477158	0.71528625
1493856964375	-1.7646332	-8.813553	-0.15679932
1493856964375	-0.47888184	-8.626617	0.901001
1493856964375	0.1938324	-8.413605	1.0806427
1493856964375	0.63127136	-8.661148	0.47262573
1493856964375	0.72514343	-8.837372	1.2379303
1493856964376	0.6826935	-8.941681	1.745285
1493856964376	0.75367737	-9.764862	0.5168915
1493856964376	1.8037415	-10.667862	-1.4508057
1493856964376	2.8608246	-11.577759	-2.3273926
1493856964376	2.3849792	-12.398788	-1.2498169
1493856964376	1.070221	-12.009064	-1.4326477
1493856964376	1.8530884	-11.514404	-2.051178
1493856964376	3.806076	-11.684204	-2.6332092
1493856964376	5.8920746	-12.882156	-3.5516968
1493856964376	6.9334717	-14.687347	-1.2282867
1493856964376	2.7071533	-15.295013	-1.1197662
1493856964376	-3.5367584	-14.237427	-2.47966
1493856964376	-7.3965454	-13.18573	3.003708
1493856964376	-6.3809814	-13.276764	5.751831
1493856964376	-3.2957764	-15.791489	5.6489105
1493856964376	-1.4125061	-17.194946	1.552124
1493856964376	-1.3095856	-15.02742	-1.992279
1493856964376	0.602417	-11.212067	1.4647522
1493856964376	2.1149597	-9.240799	3.9779205
1493856964376	1.0657196	-8.660812	2.8089752
1493856964376	-1.3997803	-7.290512	1.5355988
1493856964376	-2.7455597	-5.32106	2.060135
1493856964376	-3.1662292	-4.053894	2.5368805
1493856964376	-2.86763	-4.1303864	2.4766388
1493856964376	-2.4553986	-4.788025	2.7377625
1493856964376	-2.5238647	-4.0213013	3.4886932
1493856964376	-2.76268	-2.1923218	4.3089905
1493856964376	-2.0490265	-2.2033691	3.693222
1493856964376	-0.85025024	-5.3722534	0.030700684
1493856964376	-0.706604	-11.45871	-10.905472
1493856964376	3.2467194	-17.372147	-19.280594
1493856964376	7.2730255	-19.474823	-9.642014
1493856964376	3.8450317	-12.539093	-2.0596924
1493856964376	-0.23060608	-3.6692505	-0.7247162
1493856964376	-5.6532135	-10.249954	-1.0760193
1493856964376	-3.1426544	-18.3712	1.0870514
1493856964376	1.3862762	-14.297745	4.934738
1493856964376	-4.112137	-4.8415527	4.372925
1493856964376	-10.847275	-1.3587952	7.90419
1493856964376	-7.9919434	-7.519577	9.501602
1493856964376	-1.2279205	-14.124832	7.6282043
1493856964377	5.7819824	-14.79837	2.4867554
1493856964377	6.978119	-12.460037	0.35928345
1493856964377	3.8910828	-9.931351	0.90953064
1493856964377	-0.44978333	-8.662216	1.5158081
1493856964377	-2.920868	-8.999863	0.9735565
1493856964377	-2.051117	-9.578201	-0.38778687
1493856964377	-0.796875	-9.306046	-0.47113037
1493856964377	-0.033813477	-8.127869	0.9442749
1493856964377	0.2672577	-7.7198486	1.3866425
1493856964377	0.83380127	-8.456711	1.0952606
1493856964377	1.4776154	-8.924896	1.9519348
1493856964377	1.1945343	-9.059326	1.1353302
1493856964377	1.4940338	-9.375153	-1.4111786
1493856964377	2.645584	-9.807358	-2.5476227
1493856964377	3.2945251	-11.177551	-0.3469391
1493856964377	0.5292969	-11.887161	-0.018997192
1493856964377	-1.9745026	-11.706039	-2.2876587
1493856964377	0.31809998	-10.9244995	-1.6595917
1493856964377	3.921875	-11.395966	-1.6263885
1493856964377	7.378662	-13.584961	-2.1848297
1493856964377	8.55777	-15.669647	-1.707367
1493856964377	3.1074066	-15.034088	-2.4427185
1493856964377	-4.264847	-14.589554	-4.9795685
1493856964377	-6.0704346	-13.18103	4.5733795
1493856964377	-5.239502	-12.927048	5.981613
1493856964377	-3.3664856	-14.922302	3.722931
1493856964377	-3.8381042	-16.863327	0.7069092
1493856964377	-2.293106	-14.266617	-1.6856232
1493856964377	2.14917	-10.516312	0.7798462
1493856964377	3.7710876	-9.541534	2.5323029
1493856964377	0.49209595	-9.356323	2.0157166
1493856964377	-1.5711517	-7.8488464	1.4184113
1493856964377	-3.1384583	-5.9131165	2.1298676
1493856964377	-3.9652557	-4.15654	2.7286987
1493856964377	-3.5396423	-3.7855072	3.8741608
1493856964377	-1.8520355	-4.4250183	3.784668
1493856964377	-1.4384613	-4.76915	2.4994507
1493856964377	-2.5309296	-3.3871765	2.836258
1493856964377	-3.2273865	-1.826416	3.432846
1493856964377	-2.54776	-3.4614563	1.2134705
1493856964377	-0.9581299	-9.852798	-7.794861
1493856964377	3.1207733	-17.563309	-19.722397
1493856964377	7.3411865	-19.416534	-15.081116
1493856964377	3.065094	-15.395538	-3.5200806
1493856964378	-0.19100952	-5.418396	-1.2149811
1493856964378	-3.7565765	-5.59494	-0.9473877
1493856964378	-6.9453278	-14.964752	-1.5772858
1493856964378	-2.842682	-18.436539	-0.49639893
1493856964378	0.047027588	-12.352356	3.1351013
1493856964378	-4.1751404	-4.12088	3.5265198
1493856964378	-5.461685	-2.67659	6.5615997
1493856964378	-1.1891937	-6.974167	7.4922333
1493856964378	2.214859	-12.629959	5.022583
1493856964378	4.188156	-13.876312	2.8833923
1493856964378	3.8399048	-12.370834	1.2700348
1493856964378	1.0484314	-10.441711	1.0163574
1493856964378	-1.2303162	-8.841766	1.136673
1493856964378	-2.0545044	-8.480301	1.172348
1493856964378	-1.559433	-9.013275	0.5300598
1493856964378	-0.38703918	-9.5221405	0.19146729
1493856964378	0.18482971	-9.665192	0.0038146973
1493856964378	0.40971375	-9.071686	-0.035705566
1493856964378	0.58735657	-8.521332	0.104003906
1493856964378	0.8865814	-8.643082	0.31303406
1493856964378	1.6857758	-9.349258	0.6022949
1493856964378	2.6970367	-9.799423	0.8400574
1493856964378	3.2024841	-9.825134	0.30136108
1493856964379	2.7272034	-10.21846	-1.5919037
1493856964379	1.8674316	-11.325165	-1.1991272
1493856964379	0.37989807	-11.875824	-0.6303711
1493856964379	-0.72932434	-11.934479	-2.0962067
1493856964379	0.9116821	-11.842926	-2.5699005
1493856964379	2.709793	-12.015137	-1.782898
1493856964379	4.7401886	-12.861557	-1.7466278
1493856964379	4.5157013	-13.580658	-4.173813
1493856964379	0.87612915	-14.557602	-3.7062225
1493856964379	-3.5053558	-14.499023	0.34013367
1493856964379	-3.1515656	-13.183228	4.722763
1493856964379	-2.8314362	-12.896591	4.00058
1493856964379	-3.5307465	-14.268616	2.6470184
1493856964379	-4.3965607	-15.676285	1.0803833
1493856964379	-2.863861	-13.458237	-1.1052399
1493856964379	1.3459473	-9.92128	0.09416199
1493856964379	3.9803162	-8.597443	1.4223022
1493856964379	1.787384	-8.95517	-0.7271576
1493856964380	-0.2090149	-7.937805	1.7718658
1493856964380	-2.6764069	-6.4786224	2.939972
1493856964380	-4.7626495	-4.9048157	3.0204315
1493856964380	-4.291748	-3.9841003	4.123657
1493856964380	-2.5903625	-4.584656	3.5650787
1493856964380	-1.9420471	-4.3546295	2.2622833
1493856964380	-2.4499664	-2.4109344	2.459259
1493856964380	-1.8380432	-1.6207428	2.1370392
1493856964380	-0.930542	-4.1433563	0.45265198
1493856964380	0.68048096	-9.813705	-7.0020294
1493856964380	3.462738	-18.854782	-19.722397
1493856964380	7.353195	-19.091858	-18.214142
1493856964381	3.0654602	-14.845718	-4.521759
1493856964381	-0.15783691	-8.076889	-3.3683014
1493856964381	-1.0954437	-4.651428	-1.4220734
1493856964385	-4.99765	-11.144333	-0.34584045
1493856964386	-4.0971985	-19.407486	-1.3373566
1493856964386	-1.1505432	-16.543	-0.058181763
1493856964386	-6.14888	-4.200348	2.8503723
1493856964386	-7.5380096	0.40670776	7.6964417
1493856964386	-2.506134	-4.3589935	8.58522
1493856964386	1.7398987	-13.742218	4.5727997
1493856964386	4.6779785	-16.538116	2.658844
1493856964386	5.1108704	-14.3984375	0.7722626
1493856964386	1.9489136	-10.5707245	1.1780853
1493856964386	-1.5631409	-8.253433	0.8651123
1493856964386	-3.6188354	-7.820816	1.5256348
1493856964386	-1.8848267	-8.867035	1.0655365
1493856964394	-0.67855835	-9.611221	0.48208618
1493856964394	-0.44410706	-9.808472	-0.0473938
1493856964394	-0.7383728	-9.459595	-0.029785156
1493856964394	-0.43856812	-8.502686	0.4464569
1493856964394	0.316391	-8.11734	0.64349365
1493856964395	0.9520416	-8.516144	1.175293
1493856964395	1.3707886	-9.526932	1.5171051
1493856964395	1.763031	-10.18927	0.31617737
1493856964396	2.5919647	-10.268082	-1.3829803
1493856964396	2.7230377	-10.951981	-1.3449707
1493856964396	0.8136749	-11.967651	-0.1627655
1493856964396	-0.96217346	-12.308395	-1.1198883
1493856964396	0.17744446	-12.013504	-2.2506866
1493856964396	2.5126343	-11.955002	-1.9857788
1493856964396	4.3171844	-13.100327	-2.8062897
1493856964396	5.9751434	-14.23848	-2.098175
1493856964396	5.463684	-14.51387	-1.7367249
1493856964397	1.2984924	-14.716949	-3.9206238
1493856964397	-3.1851654	-13.680664	-1.0475922
1493856964397	-5.2325897	-12.221298	5.163254
1493856964397	-5.4338837	-12.720001	6.8005066
1493856964397	-4.2649994	-14.875839	3.205841
1493856964397	-3.7161407	-15.557327	-1.3202515
1493856964397	-1.222702	-12.784409	-1.3679962
1493856964397	2.3325653	-9.876236	1.1507721
1493856964397	3.0926666	-9.505096	2.044281
1493856964397	1.9358978	-8.536804	0.4725952
1493856964397	-0.5855255	-7.626175	0.6673889
1493856964397	-2.6331177	-6.1978607	2.5429077
1493856964397	-3.9465332	-4.847763	3.0149536
1493856964398	-4.244049	-4.272049	3.0198517
1493856964398	-3.7041168	-4.206253	2.8839722
1493856964398	-3.1765594	-3.2413788	2.902771
1493856964398	-2.5261383	-1.742279	3.4960785
1493856964398	-1.8459473	-2.4142303	2.7385101
1493856964398	-0.37445068	-6.1072693	-0.5811157
1493856964398	1.1181488	-12.715408	-10.460587
1493856964398	6.6864014	-18.838013	-18.866013
1493856964398	4.633072	-19.474823	-8.09877
1493856964398	0.3346405	-11.061371	-4.8060913
1493856964398	-2.3536072	-5.455246	-2.90271
1493856964398	-6.535202	-13.436157	-2.7753143
1493856964398	-4.266617	-19.036407	-6.730606
1493856964399	3.6114197	-11.370117	7.0976563
1493856964399	-2.292984	-3.57135	7.230667
1493856964399	-8.790558	-0.63423157	-1.6365204
1493856964399	-3.3831635	-4.176941	12.42749
1493856964399	0.94395447	-14.264557	3.560196
1493856964399	3.5164337	-17.591736	2.4093933
1493856964410	7.4376373	-11.652588	1.941803
1493856964410	2.8266754	-9.343674	1.7563629
1493856964410	-2.003006	-8.403	1.9699097
1493856964410	-2.8072357	-7.9812164	1.8612823
1493856964410	-1.964386	-9.120209	1.2799225
1493856964410	-1.3169708	-10.03598	-0.04751587
1493856964410	-0.9060364	-10.240311	0.34817505
1493856964410	-0.782547	-9.448868	-0.10243225
1493856964410	-0.28929138	-7.93309	0.3461609
1493856964410	0.8922882	-7.7695923	0.57362366
1493856964410	1.5247955	-8.647324	1.1356506
1493856964410	1.6984406	-9.660812	1.6038513
1493856964410	1.6282806	-9.904037	0.7720642
1493856964410	1.7645264	-10.120438	-0.7120056
1493856964410	1.3840485	-11.043808	-0.76763916
1493856964410	-0.25880432	-11.850922	-1.0415497
1493856964410	-0.7965851	-12.098907	-2.4170532
1493856964410	1.3971558	-12.27536	-2.0995483
1493856964410	3.994278	-12.833252	-1.9303894
1493856964410	6.082443	-13.823212	-2.2976074
1493856964410	7.215164	-14.583267	-1.0099487
1493856964410	4.6836395	-14.975845	-1.441803
1493856964410	-1.7985992	-14.967255	-2.2313232
1493856964410	-6.3867035	-13.188858	1.4480286
1493856964410	-7.530777	-11.907532	5.7744446
1493856964410	-6.4745483	-12.928787	5.3901215
1493856964410	-5.111862	-14.707352	1.9835205
1493856964410	-3.976242	-14.261688	-1.5054321
1493856964410	-0.77711487	-11.560303	-0.8972168
1493856964410	3.1556091	-9.322723	2.3235016
1493856964410	3.1371613	-8.80777	1.9482574
1493856964410	0.85705566	-8.300476	0.6800842
1493856964410	-1.127121	-6.948578	1.5358582
1493856964410	-2.7464752	-5.4024963	2.703354
1493856964410	-3.3643494	-4.0693665	2.956833
1493856964410	-3.637741	-3.806305	2.7929382
1493856964410	-3.129959	-3.7346954	2.8643951
1493856964410	-2.6353607	-2.8876953	3.0144958
1493856964411	-2.301773	-2.2296143	3.0200348
1493856964411	-1.7166748	-3.5670166	1.7955933
1493856964411	-0.53959656	-7.545456	-2.1209564
1493856964411	2.2715912	-15.813751	-14.532532
1493856964411	7.46138	-19.333054	-19.722397
1493856964411	4.858917	-17.582047	-10.439606
1493856964411	0.45121765	-10.017075	-4.5232544
1493856964411	-1.983017	-3.7747345	-0.67848206
1493856964411	-7.0653687	-9.172607	1.3161774
1493856964411	-6.070877	-16.969086	-0.6491394
1493856964411	1.1915894	-15.534943	-0.28393555
1493856964411	1.4158783	-8.004196	3.223465
1493856964411	-4.719635	-2.019638	5.195999
1493856964411	-5.533966	-3.0736694	8.153931
1493856964411	-1.1982117	-12.181534	4.234436
1493856964411	2.3827515	-15.735535	4.180771
1493856964411	5.0798798	-12.691376	1.391037
1493856964411	3.518982	-9.94339	1.4863129
1493856964411	1.038559	-9.411179	1.5513763
1493856964411	-0.9348755	-8.915375	2.1627808
1493856964411	-2.570633	-9.06871	1.811554
1493856964411	-2.4860077	-9.259323	0.660553
1493856964411	-1.8721466	-9.329407	0.7687683
1493856964411	-1.0455017	-8.9322815	0.91311646
1493856964411	0.18978882	-8.171448	1.2974854
1493856964411	1.1721344	-8.154648	0.8806305
1493856964411	2.007721	-8.731064	1.8640442
1493856964411	2.1096497	-9.598114	1.7749939
1493856964411	1.9246216	-9.815414	0.2467804
1493856964411	2.1927948	-10.079071	-2.4123993
1493856964411	2.7081146	-11.111206	-1.638977
1493856964411	1.3581696	-11.498428	1.1406555
1493856964411	-0.6266937	-11.466095	-1.0171509
1493856964411	0.31533813	-11.581039	-2.0331116
1493856964411	2.8204193	-11.669739	-1.8044281
1493856964411	4.050232	-12.352646	-3.1658783
1493856964411	5.8395233	-14.417648	-2.6085663
1493856964411	3.8439026	-15.502609	-1.3917847
1493856964411	-1.9966736	-14.134705	-4.2178345
1493856964411	-6.6897583	-12.689148	-0.49131775
1493856964411	-7.337219	-12.047867	5.689026
1493856964411	-6.0941772	-13.904724	6.7782745
1493856964412	-5.1018066	-16.071503	1.9668884
1493856964412	-4.688446	-15.662277	-2.0395508
1493856964412	-1.5108948	-12.266769	-0.25952148
1493856964412	2.8020782	-9.376251	2.047577
1493856964412	2.783249	-8.7969055	2.5815887
1493856964412	-0.001739502	-8.486771	0.7325134
1493856964412	-1.8384705	-6.784378	0.7916565
1493856964412	-3.2133179	-5.3259125	2.2813416
1493856964412	-3.552597	-4.0463104	2.3223572
1493856964412	-3.5756378	-3.508133	2.4619598
1493856964412	-2.8884888	-3.295456	2.7595215
1493856964412	-2.0197754	-2.5840454	3.1559448
1493856964412	-1.3226624	-1.8584747	3.3139343
1493856964412	-0.7544708	-3.3605347	2.1983795
1493856964412	0.67463684	-7.600418	-1.578659
1493856964412	3.0521698	-14.727112	-11.59079
1493856964412	6.6437073	-19.474823	-19.573822
1493856964412	6.437454	-18.347122	-12.81665
1493856964412	1.7983856	-12.986191	-4.854645
1493856964412	-1.2073364	-5.8718414	-0.9995575
1493856964412	-5.1599426	-6.578659	3.134613
1493856964412	-6.117584	-13.445862	3.021698
1493856964412	-2.454834	-16.192688	0.41081238
1493856964412	-0.3346405	-11.793213	-3.562622
1493856964412	-2.6462097	-3.803299	2.151535
1493856964412	-5.359421	-0.8809662	10.203064
1493856964412	-2.8856812	-9.26265	6.5617523
1493856964412	3.1129913	-16.181076	3.4633026
1493856964412	6.14888	-14.629684	1.6298676
1493856964412	3.9366913	-10.106415	1.5453491
1493856964412	0.5486908	-8.848419	1.9381256
1493856964412	-1.8203735	-9.250595	1.6831818
1493856964412	-2.6564026	-9.410278	2.0389404
1493856964412	-2.2075195	-9.441986	1.6151276
1493856964412	-1.5231171	-9.154877	1.5487518
1493856964412	-0.7594147	-8.494492	1.8818665
1493856964412	0.24015808	-8.117554	1.8807068
1493856964412	1.1802673	-8.443268	1.2973633
1493856964412	2.2241058	-9.029175	1.3895569
1493856964412	2.1328888	-9.573135	1.5042877
1493856964412	1.2259064	-9.410355	-0.36151123
1493856964412	1.4076233	-9.763336	-1.8005829
1493856964412	2.0812225	-10.952301	0.30630493
1493856964413	1.1311951	-11.6128235	0.5271301
1493856964413	0.14624023	-11.8506775	-1.1666412
1493856964413	1.6356354	-11.948486	-1.5614319
1493856964413	3.9005737	-11.5538025	-1.8095093
1493856964413	4.2227783	-11.940964	-3.04039
1493856964413	5.5980835	-14.204666	-1.5508881
1493856964413	4.1599426	-15.969879	-2.966156
1493856964413	-0.94314575	-14.644226	-4.86792
1493856964413	-6.6254272	-13.372681	-2.559723
1493856964413	-7.9706573	-11.296219	6.077194
1493856964413	-6.9814453	-11.878189	6.5746155
1493856964413	-4.983734	-14.301819	2.9534302
1493856964413	-4.134903	-15.853455	-2.858307
1493856964413	-2.5324402	-13.121384	-1.4076996
1493856964413	0.7518921	-9.979065	0.33709717
1493856964413	2.221405	-8.877731	2.3916168
1493856964413	0.31655884	-8.983719	1.3849945
1493856964413	-1.2102509	-7.420517	1.7189789
1493856964413	-2.6811523	-5.5297546	1.7747345
1493856964413	-3.2583008	-4.488373	1.4858856
1493856964413	-3.0151672	-3.8020782	1.8682709
1493856964413	-2.3518524	-3.5812988	2.2081604
1493856964413	-1.4977264	-3.163269	2.949768
1493856964413	-0.7694702	-2.2453308	3.4332733
1493856964413	-0.4132843	-3.2444458	2.7427368
1493856964413	0.83058167	-6.77005	-0.3909912
1493856964413	2.9172668	-12.987595	-9.259598
1493856964413	5.3772736	-19.474823	-19.467606
1493856964413	5.255844	-17.846054	-15.604965
1493856964413	1.1459656	-12.0629425	-6.6814423
1493856964413	-1.8223572	-5.996414	-1.1157532
1493856964413	-4.259033	-5.576599	3.9223175
1493856964413	-7.5663605	-13.6501465	3.922287
1493856964413	-6.310196	-17.078888	-1.6531525
1493856964413	-2.510559	-10.748322	-0.42492676
1493856964413	-0.36647034	-3.2467194	10.255402
1493856964413	-1.887207	-4.8426666	8.202209
1493856964413	0.2851715	-12.752396	5.516556
1493856964413	3.7311249	-15.892853	3.9171143
1493856964413	3.6773987	-12.852219	1.7763062
1493856964413	0.9410095	-9.863083	0.7860718
1493856964413	-1.3294525	-9.259369	1.4263763
1493856964414	-1.6595306	-8.849457	2.0470276
1493856964414	-1.2203217	-8.77742	2.0433197
1493856964414	-0.6157074	-8.756348	1.975235
1493856964414	0.09580994	-8.791229	1.8140717
1493856964414	0.47442627	-8.824036	1.2361908
1493856964414	1.1224518	-8.564377	0.7507782
1493856964414	2.0471954	-8.638992	0.46705627
1493856964414	1.990799	-9.383713	0.41056824
1493856964414	1.4273376	-10.103577	-0.16195679
1493856964414	1.1640167	-10.341782	-0.95191956
1493856964414	2.022644	-10.5928955	-1.9263153
1493856964414	2.7396088	-11.450607	-0.5535126
1493856964414	1.7511139	-11.849609	-0.05342102
1493856964414	0.64967346	-11.819229	-1.5397186
1493856964414	1.603653	-11.792999	-1.8779755
1493856964414	2.8195496	-11.448624	-3.007431
1493856964414	3.7750092	-13.106918	-4.6361084
1493856964414	4.7033844	-15.381912	-2.4331818
1493856964414	2.9075623	-14.858643	-3.3205414
1493856964414	-2.1869354	-13.226273	-1.0230255
1493856964414	-5.3298798	-12.450943	5.4421997
1493856964414	-5.5648804	-12.983215	5.9665833
1493856964414	-3.4909363	-15.221634	3.2681885
1493856964414	-4.1115417	-16.32843	-1.4188843
1493856964414	-3.045868	-14.143799	-0.71307373
1493856964414	0.26593018	-11.221817	1.1825409
1493856964414	2.9875183	-9.499847	1.7273254
1493856964414	2.0138245	-8.888275	0.819397
1493856964414	-0.1978302	-8.279724	0.65623474
1493856964414	-2.1036377	-6.2714386	2.7887115
1493856964414	-3.3874664	-4.207245	2.6212769
1493856964414	-3.5948029	-3.4580994	2.6673584
1493856964414	-2.1579742	-3.3867035	3.2293396
1493856964414	-1.3285217	-3.1859436	3.6355896
1493856964414	-0.9834137	-1.9814453	4.073227
1493856964414	-0.9719391	-2.358368	3.1911926
1493856964414	-0.65148926	-5.006592	-0.46705627
1493856964414	-2.8233643	-11.810455	-13.725723
1493856964414	2.581482	-19.474823	-18.955597
1493856964414	9.7100525	-18.911636	-8.861389
1493856964414	2.1955566	-12.3797	-3.8443146
1493856964414	-2.5951385	-5.010391	-2.1032562
1493856964414	-4.216629	-1.9672089	0.71299744
1493856964415	-7.6802063	-14.2202	-2.1834106
1493856964415	0.4100952	-19.010193	-0.41635132
1493856964415	2.4364014	-14.006973	2.7082672
1493856964415	-3.6768494	-1.2635345	5.4923706
1493856964415	-5.87619	-0.33390808	7.735504
1493856964415	-1.648529	-9.397415	7.845459
1493856964415	1.7995911	-16.569183	4.1458282
1493856964415	2.9342804	-16.174835	1.796341
1493856964415	3.4379425	-10.6840515	1.5868073
1493856964415	0.7706299	-8.884293	1.9607391
1493856964415	-0.7384491	-8.738647	1.4443359
1493856964415	-1.9553223	-9.355133	1.3317719
1493856964415	-2.0695648	-9.779556	1.133667
1493856964415	-1.3621368	-9.395859	0.91189575
1493856964415	-0.60505676	-8.736984	0.55101013
1493856964415	-0.18658447	-7.940613	0.8153076
1493856964415	0.29353333	-7.7489624	0.82803345
1493856964415	0.5756531	-8.243576	0.8692627
1493856964415	1.1114197	-9.17543	1.2671204
1493856964415	1.787262	-10.088791	1.0511017
1493856964415	2.442093	-10.533371	-0.00982666
1493856964415	3.131012	-10.766266	-2.1298828
1493856964415	3.438095	-11.657272	-3.0037384
1493856964415	2.3494873	-12.292877	-2.2731934
1493856964415	1.0078735	-11.955399	-2.423294
1493856964415	1.2558746	-11.666534	-2.6958313
1493856964415	2.9790802	-12.674332	-3.3044739
1493856964415	4.6259155	-14.686966	-2.0407562
1493856964415	3.8592072	-15.542664	-1.0629578
1493856964415	-0.6761627	-15.03096	-2.3906097
1493856964415	-5.182785	-13.982468	-0.34248352
1493856964415	-5.1678925	-13.190659	3.9859314
1493856964415	-3.6173859	-13.571182	5.4009094
1493856964415	-3.3848572	-14.369919	4.896286
1493856964415	-3.1383667	-14.337936	0.18217468
1493856964415	-0.98913574	-12.319778	-2.5284576
1493856964415	1.2866974	-10.572128	0.15377808
1493856964415	2.8899536	-9.292007	2.0425568
1493856964415	1.73909	-8.443436	1.5646362
1493856964415	0.039276123	-7.2934723	1.6634064
1493856964415	-1.5935364	-5.786484	2.9942474
1493856964415	-3.0037384	-4.580612	3.4377136
1493856964415	-3.68013	-4.5416565	3.1428528
1493856964416	-3.6864014	-4.751129	3.1104126
1493856964416	-3.5636597	-3.7197113	3.5814972
1493856964416	-3.580597	-1.6444855	3.9179688
1493856964416	-2.8990326	-1.661972	3.0687714
1493856964416	-1.267273	-4.731552	0.40226746
1493856964416	-0.64775085	-11.228806	-9.550171
1493856964416	4.5256195	-18.54831	-18.625412
1493856964416	8.0004425	-19.474823	-15.518127
1493856964416	3.0194244	-13.234299	-5.654587
1493856964416	-0.24301147	-4.247925	-2.5321655
1493856964416	-5.6619873	-9.037109	0.31523132
1493856964416	-3.0194855	-15.299896	2.2917786
1493856964416	1.8878937	-14.403427	3.064911
1493856964416	-1.244461	-8.694168	-1.2232513
1493856964416	-7.212723	-1.8393097	4.0802765
1493856964416	-7.928406	-1.1640015	14.0401
1493856964416	-3.0624847	-12.266739	3.2645264
1493856964416	1.745224	-16.250275	5.124832
1493856964416	6.880905	-13.751129	1.3375549
1493856964416	5.03421	-10.155533	0.33877563
1493856964416	1.5205078	-8.985123	2.1434784
1493856964416	-1.0345306	-8.294067	2.1623535
1493856964416	-2.9486694	-8.955719	1.089508
1493856964416	-2.456253	-9.895767	-0.0049743652
1493856964416	-1.8167267	-9.937973	-0.0061950684
1493856964416	-1.0859222	-8.811508	0.48124695
1493856964416	-0.032836914	-8.09436	0.15962219
1493856964416	0.98968506	-8.516327	0.8173218
1493856964416	1.0310059	-9.02182	1.6411438
1493856964416	0.83044434	-9.231277	1.5452576
1493856964416	1.2027435	-9.530487	-0.31124878
1493856964416	1.9031372	-9.958694	-1.9332733
1493856964416	2.0364075	-10.917938	-1.5995483
1493856964416	0.74024963	-11.299454	-0.37809753
1493856964416	0.40455627	-11.648178	-1.4140472
1493856964416	2.2997437	-12.252945	-2.204132
1493856964416	4.8038025	-12.886536	-3.3058472
1493856964416	6.6219788	-13.836655	-3.4628448
1493856964416	6.5189514	-14.749069	-1.3847198
1493856964416	1.4891815	-15.722519	-2.738327
1493856964416	-3.9934692	-14.892502	-2.7644196
1493856964416	-7.1964264	-12.779343	3.652008
1493856964416	-6.646637	-12.258606	7.3462677
1493856964417	-5.0395966	-13.817184	3.9370728
1493856964417	-4.1134186	-15.416046	-0.3034668
1493856964417	-2.8289032	-13.914337	-1.5546417
1493856964417	1.3755188	-10.754684	1.0640564
1493856964417	3.703186	-9.6861725	2.3616028
1493856964417	2.6157227	-9.380005	0.7299652
1493856964417	0.17774963	-8.1818695	0.42539978
1493856964417	-2.1243591	-6.6847687	2.372406
1493856964417	-3.241394	-4.973694	3.247696
1493856964417	-3.3614655	-3.8993988	2.8731842
1493856964417	-2.7677002	-3.8209076	2.8451996
1493856964417	-2.3374176	-3.3601227	3.1285706
1493856964417	-2.504959	-1.8488617	3.63591
1493856964417	-2.6491852	-1.545044	3.4631348
1493856964417	-2.1478882	-4.375778	0.35002136
1493856964417	-1.6720886	-10.494843	-8.932861
1493856964417	5.046173	-17.272385	-17.472855
1493856964417	7.383072	-19.474823	-14.973007
1493856964417	3.347229	-13.6006775	-5.925812
1493856964417	-0.3691864	-3.9302826	-1.1109161
1493856964417	-6.9109344	-7.480255	2.997345
1493856964417	-7.1541443	-16.185715	5.6104584
1493856964417	-2.5926208	-17.679153	-5.3242645
1493856964417	0.72114563	-9.619858	0.96617126
1493856964417	-3.2600555	-0.34584045	8.24411
1493856964417	-4.860306	-0.4716034	10.950211
1493856964417	-1.4927979	-11.76976	3.608902
1493856964417	2.2740326	-16.099167	4.1809235
1493856964417	3.2680206	-13.938629	0.55674744
1493856964417	2.5726776	-9.956284	0.65049744
1493856964417	0.99038696	-9.102524	0.9277344
1493856964417	0.24720764	-8.852127	1.5565033
1493856964417	-0.83265686	-9.086502	1.998291
1493856964417	-0.7749634	-9.355911	0.9499512
1493856964417	-0.7902527	-9.315857	0.44047546
1493856964417	-0.70358276	-8.687332	1.0266571
1493856964417	-0.85440063	-8.330917	0.40646362
1493856964417	-0.69381714	-8.65657	0.3836975
1493856964417	-0.025970459	-9.147659	0.71162415
1493856964417	0.55822754	-9.586105	0.2419281
1493856964417	1.45607	-9.768417	-0.60858154
1493856964417	2.6132965	-10.020554	-1.4513397
1493856964418	2.5652466	-11.068375	-1.2616882
1493856964418	1.4981384	-11.618912	-0.80537415
1493856964418	0.749115	-11.598389	-2.5577393
1493856964418	1.8598175	-11.4539795	-3.1078796
1493856964418	3.706604	-11.43512	-3.4826965
1493856964418	5.693802	-14.056854	-2.3197174
1493856964418	6.4162292	-16.488556	-1.3796234
1493856964418	0.44062805	-15.833771	-4.1452637
1493856964418	-5.6039124	-13.719666	0.8032532
1493856964418	-6.776474	-13.24292	6.0486755
1493856964418	-4.738449	-13.513443	4.984024
1493856964418	-2.6625366	-14.590775	1.836441
1493856964418	-3.7408752	-15.170837	-0.230896
1493856964418	-2.379959	-12.898788	-2.1846466
1493856964418	0.999176	-10.084778	-4.5117035
1493856964418	2.764038	-9.1766205	2.2138672
1493856964418	1.7255096	-9.405823	1.5017853
1493856964418	-0.12321472	-7.5225525	1.2194672
1493856964418	-2.5511475	-5.4920197	3.042694
1493856964418	-3.5906982	-3.949707	3.3804626
1493856964418	-3.6830444	-3.6523132	2.8722992
1493856964418	-3.8566284	-3.7052917	3.309784
1493856964418	-3.8220978	-2.750183	3.587082
1493856964418	-3.5808868	-1.7459717	3.5554962
1493856964419	-2.6541595	-2.8027344	2.1873474
1493856964419	-1.4826508	-6.9882355	-2.2998962
1493856964419	1.4431763	-14.450531	-12.353851
1493856964419	7.285843	-19.474823	-19.412552
1493856964419	7.2892	-16.938095	-12.485489
1493856964419	2.2564087	-9.551102	-3.0834045
1493856964419	-2.6298065	-7.5110474	-0.8728943
1493856964419	-6.7178955	-15.017151	-1.790863
1493856964419	-2.9394073	-16.600906	3.0026093
1493856964419	-2.7010498	-8.454132	4.439392
1493856964419	-8.261337	-1.383667	3.548645
1493856964419	-7.3328094	-1.9613037	10.229248
1493856964419	-1.890213	-10.775269	8.317505
1493856964419	3.038437	-16.990997	3.417694
1493856964419	7.0467834	-14.339874	1.1599274
1493856964419	5.972275	-10.222443	1.0353546
1493856964419	2.05661	-8.558533	1.5582123
1493856964419	-1.0559998	-8.271088	1.7035522
1493856964419	-2.9020233	-8.830826	1.3573914
1493856964419	-2.579605	-9.498199	0.423172
1493856964419	-1.4870605	-9.826233	-0.10777283
1493856964419	-0.950058	-8.99678	0.68833923
1493856964419	-0.7384796	-7.902481	0.98121643
1493856964419	0.007507324	-7.873062	0.896225
1493856964419	0.6995392	-8.527878	1.2379913
1493856964419	1.2207336	-9.289795	1.2789917
1493856964419	1.8140869	-9.781982	0.42752075
1493856964419	2.620346	-10.444351	-1.2022858
1493856964419	3.114624	-11.302444	-2.1687012
1493856964419	1.7294617	-12.21376	-0.048858643
1493856964419	0.016525269	-12.011932	-1.4125366
1493856964420	-9.3078613E-4	-11.946365	-2.8290558
1493856964420	2.509262	-11.981323	-2.0687408
1493856964420	5.4468384	-13.294815	-1.903244
1493856964420	6.67424	-14.689972	-2.096054
1493856964420	3.9868164	-15.474243	-1.5386658
1493856964420	-2.705719	-15.170166	-3.7560883
1493856964420	-6.890106	-12.781311	3.8104553
1493856964420	-7.3238373	-11.988678	6.137207
1493856964420	-4.9177856	-13.499939	3.7852173
1493856964420	-3.9959106	-15.879211	1.4943542
1493856964420	-3.4106445	-14.047073	-1.4756775
1493856964420	-0.3789978	-10.901688	-0.25553894
1493856964420	2.8488312	-9.044952	2.290924
1493856964420	2.4587555	-9.295517	1.8528442
1493856964420	0.3945923	-8.649124	-0.07395935
1493856964420	-1.12323	-7.27861	1.4229736
1493856964420	-2.6634674	-5.5540466	2.806076
1493856964420	-3.4408264	-4.1969147	2.7233124
1493856964420	-3.6864624	-3.6611328	3.1186981
1493856964420	-3.5136871	-3.327652	3.190094
1493856964420	-2.9700928	-2.2070618	3.4925537
1493856964420	-2.7073975	-1.2463989	3.5479126
1493856964420	-1.9510193	-2.9003754	1.4987793
1493856964420	0.294693	-7.7320557	-4.101074
1493856964420	3.9431915	-14.456757	-12.586746
1493856964420	6.329956	-19.474823	-18.039444
1493856964420	4.1256714	-17.164795	-10.318909
1493856964421	1.980545	-8.376801	-3.1499023
1493856964421	-3.208313	-5.6854095	-1.0755005
1493856964421	-6.906952	-14.278305	3.4627075
1493856964421	-2.3789978	-16.970123	4.4578705
1493856964421	-2.2799835	-8.875488	-0.7408905
1493856964421	-7.55455	-2.2512207	5.497818
1493856964421	-7.7813416	-2.075409	11.715393
1493856964421	-4.092636	-9.875336	6.126999
1493856964421	3.089981	-15.263229	4.1158905
1493856964421	7.0355225	-13.442856	2.2780762
1493856964421	5.340042	-10.5243225	0.94085693
1493856964421	1.2858429	-9.267303	1.4958191
1493856964421	-1.6547394	-8.735825	2.0672455
1493856964421	-3.2409973	-8.829987	1.697113
1493856964421	-3.088562	-9.376633	0.2363739
1493856964421	-1.618866	-9.362305	-0.042129517
1493856964421	-0.20648193	-8.723038	0.72972107
1493856964421	0.74824524	-8.487396	0.8470917
1493856964421	1.2363281	-8.844086	0.770813
1493856964421	1.2687073	-9.225937	1.0746765
1493856964421	1.2878265	-9.470276	0.7579193
1493856964421	1.6003876	-9.934143	-0.37667847
1493856964421	1.9516449	-10.633926	-1.7602081
1493856964421	1.1862335	-11.334824	-1.6130524
1493856964421	-0.35723877	-11.409531	-1.9312439
1493856964421	-0.3287964	-11.486053	-1.882721
1493856964421	1.1575012	-11.461624	-1.5622559
1493856964421	3.1327972	-11.670563	-2.5702362
1493856964421	5.1547394	-12.724701	-3.536499
1493856964421	7.2418823	-14.624695	-1.9542847
1493856964423	3.716156	-15.850479	-3.8815613
1493856964444	-2.4488678	-14.35466	-1.8970032
1493856964464	-4.8056335	-12.988861	4.6129
1493856964487	-5.0215454	-12.649628	4.9267426
1493856964509	-4.9812317	-14.405991	2.7093048
1493856964524	-6.49765	-16.738586	0.73023987
1493856964546	-5.681885	-14.5802765	0.54330444
1493856964566	0.18998718	-10.532837	1.1719971
1493856964584	4.775711	-8.827866	1.4329987
1493856964606	3.7668	-7.49559	-0.052017212
1493856964626	0.45031738	-7.138153	0.9615021
1493856964643	-1.2394867	-6.459732	2.892807
1493856964662	-2.7042236	-5.5325775	3.4326935
1493856964684	-2.844452	-5.1558075	2.4306183
1493856964706	-2.592575	-5.3081512	2.9691772
1493856964726	-2.3605042	-4.618393	3.356491
1493856964744	-2.6726227	-2.8326416	3.6402283
1493856964764	-2.6410217	-1.9435425	3.0060425
1493856964785	-2.2192688	-2.9686127	1.6257019
1493856964805	-1.775238	-7.688843	-4.420044
1493856964843	-1.1501007	-17.034637	-19.722397
1493856964862	7.457367	-19.434784	-19.193771
1493856964890	3.378662	-17.875687	-6.2483826
1493856964902	-0.10472107	-6.394623	-2.0644836
1493856964930	-3.155655	-3.2881927	0.77064514
1493856969328	-8.204773	-15.451538	-0.8006592
1493856969328	-1.6561279	-16.356491	7.0448303
1493856969328	-0.74391174	-9.710419	0.24937439
1493856969329	-2.4688263	-4.823349	5.7527466
1493856969329	-4.5617676	-4.990631	11.265106
1493856969329	-2.0749664	-12.098663	4.6108093
1493856969329	1.4575195	-13.63414	4.4780273
1493856969329	4.129669	-11.296356	2.1511993
1493856969329	2.7283936	-10.389008	1.1925354
1493856969330	0.44995117	-9.858078	0.4703064
1493856969330	-1.221344	-9.00473	1.425705
1493856969330	-1.9268188	-9.027679	0.996933
1493856969330	-1.7504578	-9.578262	-0.07318115
1493856969330	-0.99401855	-9.169708	0.2063446
1493856969330	-0.39416504	-8.263336	0.75798035
1493856969330	0.29335022	-8.039764	0.3545227
1493856969331	0.9618683	-8.680588	0.16555786
1493856969331	1.3848267	-9.347794	0.8921356
1493856969331	1.5901642	-9.47876	0.97468567
1493856969331	1.6815643	-9.726822	-0.116363525
1493856969331	2.0075989	-10.410507	-1.5328064
1493856969331	2.0675354	-11.279785	-1.2582703
1493856969332	0.94799805	-11.563553	-0.6685028
1493856969332	0.29144287	-11.529343	-1.9936218
1493856969332	1.7025452	-11.947586	-2.6442108
1493856969332	4.76651	-12.944992	-2.700348
1493856969332	6.951538	-14.583389	-2.0425568
1493856969332	6.2170105	-15.470261	-1.8283997
1493856969332	0.7051544	-15.374374	-4.1422577
1493856969333	-5.519058	-14.314423	-2.4532928
1493856969333	-6.535431	-12.330215	4.9809113
1493856969333	-4.8725586	-11.750885	7.5282593
1493856969333	-2.8005066	-13.705688	2.2639313
1493856969333	-2.1452026	-15.336395	-1.9227142
1493856969333	-0.9891815	-13.838898	-1.1883087
1493856969334	2.1770477	-10.958923	3.5291595
1493856969334	3.1918945	-9.340332	3.9741974
1493856969334	1.2573242	-8.466492	0.9824066
1493856969334	0.11276245	-7.2263184	1.0635223
1493856969334	-1.5886078	-5.594864	2.5663757
1493856969334	-3.0306244	-4.0202484	3.2235413
1493856969334	-2.7026367	-3.346405	2.8469849
1493856969335	-2.4788513	-3.7072754	3.0051422
1493856969335	-2.627121	-3.2024841	3.5118866
1493856969335	-3.2950745	-2.2881012	3.510727
1493856969335	-3.3352509	-2.8739624	2.523117
1493856969335	-1.6554108	-6.36792	-1.5656738
1493856969335	0.26670837	-13.050629	-11.225525
1493856969336	5.569763	-18.46843	-18.450607
1493856969336	5.9491577	-19.474823	-7.589615
1493856969336	2.8806152	-11.423309	-3.0818176
1493856969336	-0.2850647	-4.761673	-2.5484314
1493856969336	-6.0686493	-11.823563	-2.6176605
1493856969336	-1.6917267	-18.632065	2.0001984
1493856969336	-0.46011353	-12.378357	6.298584
1493856969337	-8.953964	-3.479004	-3.403885
1493856969337	-10.190033	-0.2919464	11.2365265
1493856969337	-2.669571	-6.034317	8.798019
1493856969337	2.4160156	-15.204666	5.4808044
1493856969345	5.557907	-16.41301	2.1632843
1493856969345	6.512665	-12.155701	0.8609314
1493856969346	2.772232	-9.366409	0.89234924
1493856969346	-0.7376251	-7.927429	1.2594147
1493856969346	-2.3960571	-8.117126	2.0378265
1493856969346	-2.9637299	-9.084976	0.8058777
1493856969348	-2.173355	-9.703247	0.6216583
1493856969349	-1.3798065	-9.988312	-0.09664917
1493856969349	-0.55781555	-8.618301	1.1912231
1493856969350	0.014007568	-7.977585	0.46514893
1493856969350	1.1300354	-8.51796	0.49517822
1493856969350	1.7804565	-9.440521	1.7996674
1493856969350	1.6779022	-10.178177	1.4376068
1493856969350	1.5441284	-10.449982	-0.46925354
1493856969350	2.0569763	-10.846283	-2.072525
1493856969350	1.9163818	-11.899231	-1.8722992
1493856969351	0.5494995	-11.770676	-1.5000458
1493856969351	0.36512756	-11.376831	-2.1102295
1493856969351	2.2675629	-12.017639	-1.9811859
1493856969351	4.8486633	-12.920929	-2.6043549
1493856969351	7.1394806	-14.083817	-2.5761414
1493856969351	6.2671967	-14.926636	-0.89624023
1493856969351	0.7611542	-15.0208435	-2.6087494
1493856969352	-6.064499	-14.13414	-1.8793182
1493856969352	-8.821915	-12.62558	4.6351624
1493856969352	-7.442581	-12.158463	5.82251
1493856969352	-5.1607666	-14.00264	2.627243
1493856969352	-5.143265	-15.570282	-0.8846741
1493856969352	-3.5423737	-13.457535	-0.7666168
1493856969352	0.76205444	-10.42218	2.006668
1493856969353	3.4657745	-8.923218	2.9572601
1493856969353	2.4982605	-8.496216	1.2361908
1493856969353	0.23312378	-7.8496246	0.65953064
1493856969353	-1.4837189	-6.5993347	2.0585785
1493856969353	-2.6750793	-5.3428345	2.929123
1493856969353	-2.6004791	-3.988968	3.1872559
1493856969354	-2.5838013	-3.1884766	2.9858246
1493856969354	-2.3384094	-2.3691254	2.706314
1493856969354	-1.6202698	-1.5536804	2.3026886
1493856969354	-0.8528137	-2.8723602	0.69241333
1493856969354	-0.36634827	-7.0162964	-4.701248
1493856969354	1.5321198	-14.518555	-14.722412
1493856969355	3.7959137	-19.060425	-17.727524
1493856969355	2.8781128	-16.911758	-9.286072
1493856969355	0.30059814	-11.34343	-4.9948883
1493856969355	-0.54696655	-6.652466	-3.605774
1493856969355	-3.9752808	-11.027283	-2.1822357
1493856969355	-3.9477997	-16.329712	1.6656494
1493856969355	-4.240494	-12.99791	4.0299377
1493856969356	-6.3918304	-6.443573	-0.37535095
1493856969356	-4.318344	-2.5545807	7.332901
1493856969356	0.08279419	-4.9709015	8.395676
1493856969356	3.0904846	-12.541092	3.7798462
1493856969356	4.6844482	-15.522507	1.4372711
1493856969356	4.1598663	-12.39563	1.3855438
1493856969357	1.5061493	-8.936584	2.3097076
1493856969357	-1.2389679	-8.0169525	1.5510406
1493856969357	-2.3020935	-8.533691	1.6308441
1493856969357	-2.241928	-9.213165	1.5815887
1493856969357	-1.3448029	-9.545715	0.9935913
1493856969357	-0.85943604	-9.94902	0.29206848
1493856969358	-1.1402435	-9.652908	1.2383118
1493856969358	-0.47535706	-8.586929	1.3433685
1493856969358	0.93013	-8.45874	0.2373352
1493856969358	2.012497	-9.327301	0.7134857
1493856969358	2.4259338	-9.863953	0.6829529
1493856969358	2.3694153	-10.08786	0.14537048
1493856969359	1.8143768	-10.044449	-1.213913
1493856969359	1.1155548	-10.912598	-1.057663
1493856969359	-0.081604004	-11.702911	-0.4853363
1493856969359	-0.057724	-11.972717	-1.8947144
1493856969359	1.4925537	-12.48378	-1.7529144
1493856969359	3.3924866	-12.190369	-2.0223083
1493856969359	4.02771	-12.3116	-3.944458
1493856969360	6.664673	-13.504532	-4.049362
1493856969360	5.853485	-14.356995	-1.1015778
1493856969360	0.6817932	-14.562607	-3.5862427
1493856969360	-4.6622925	-13.525894	1.1443939
1493856969360	-6.478775	-12.4142	6.830826
1493856969360	-5.5449066	-13.047302	5.719116
1493856969361	-4.1435394	-15.108307	1.8337708
1493856969361	-4.475815	-16.272629	-0.9671478
1493856969361	-2.1511536	-13.337051	-0.5584564
1493856969361	2.6060638	-9.875015	1.3927307
1493856969361	4.1646576	-8.834518	1.8257446
1493856969361	1.5785828	-8.265793	1.0071869
1493856969361	-0.76394653	-7.1502075	1.598587
1493856969362	-2.6608887	-5.4364624	3.310196
1493856969362	-3.5453796	-3.7327576	3.4622498
1493856969362	-3.592392	-3.1124268	2.898056
1493856969362	-2.9068298	-3.1731415	2.7675781
1493856969362	-2.3082886	-2.9735413	3.1840363
1493856969362	-2.1929016	-3.2745667	3.1896667
1493856969362	-1.3574371	-4.9608154	2.2317505
1493856969363	-0.5558624	-8.694885	-2.5946503
1493856969363	0.33493042	-14.623795	-12.191101
1493856969363	5.1683044	-19.474823	-17.556335
1493856969363	8.289352	-17.036331	-9.8832855
1493856969363	2.8086853	-11.11676	-3.0831604
1493856969363	-0.67500305	-6.230194	-1.4830322
1493856969364	-3.1595154	-6.3086243	-1.4592285
1493856969364	-3.4679413	-13.928436	-2.1328735
1493856969364	-0.8005829	-18.511337	0.6158142
1493856969364	-5.273926	-10.413879	-0.98191833
1493856969364	-10.881027	-0.67453	5.3827515
1493856969364	-5.6741486	-2.771164	12.7113495
1493856969364	2.333908	-12.324173	6.575119
1493856969365	7.0972137	-16.25296	1.015091
1493856969365	6.904831	-13.203613	0.2743988
1493856969365	2.3029022	-9.725021	1.2122803
1493856969365	-2.4269562	-7.9084625	1.075531
1493856969365	-3.8804016	-7.970413	1.9684296
1493856969365	-2.329956	-9.176773	1.761383
1493856969365	-0.6602173	-9.839844	1.2155914
1493856969366	-0.27993774	-9.526154	1.0528717
1493856969366	-1.0174866	-9.34317	0.14518738
1493856969366	-1.2028656	-9.149078	-0.46850586
1493856969366	-0.114974976	-8.521057	0.41444397
1493856969368	1.1435242	-8.585739	1.2246552
1493856969368	1.6155548	-10.218475	0.98210144
1493856969368	2.0014496	-11.372208	0.05078125
1493856969369	2.5677643	-11.229736	-0.95480347
1493856969369	1.9439545	-11.513031	-1.8128052
1493856969369	0.3501892	-11.568008	-2.1089325
1493856969369	0.6633606	-11.47821	-1.7545166
1493856969369	2.5638428	-11.681046	-2.526535
1493856969369	4.815918	-12.321671	-3.4827118
1493856969369	6.8007965	-13.353958	-2.1651459
1493856969370	4.7593536	-14.292099	-4.101486
1493856969370	-0.003692627	-14.508362	-2.1871338
1493856969370	-3.6221313	-13.697037	0.2783966
1493856969370	-4.768875	-12.421371	4.497177
1493856969370	-4.9759064	-12.6536255	4.600113
1493856969370	-5.624344	-14.739136	3.1772614
1493856969371	-5.5441437	-15.623505	0.07394409
1493856969371	-2.717041	-13.255875	-1.3097839
1493856969371	12.29454	-7.357788	18.800613
1493856969371	3.319168	-9.517761	-4.186676
1493856969371	1.4885712	-8.758575	3.2380219
1493856969371	1.2151031	-7.231949	1.3313141
1493856969371	-2.0118103	-6.389786	2.5342712
1493856969372	-3.152649	-4.8703156	2.9472198
1493856969372	-3.7788239	-4.447586	3.008377
1493856969372	-3.568756	-4.3237762	3.3517609
1493856969372	-2.9727936	-3.5221558	3.221634
1493856969372	-3.2361755	-2.1101532	3.0823975
1493856969372	-2.8848572	-2.1256561	2.771469
1493856969372	-1.6727753	-5.25325	-0.12223816
1493856969373	-0.028274536	-11.840927	-8.548492
1493856969373	3.4379425	-19.474823	-19.722397
1493856969373	6.5859528	-18.850418	-17.104889
1493856969373	1.8835602	-13.912888	-4.7008057
1493856969373	-1.0527496	-4.4244843	-0.7443085
1493856969373	-3.5724487	-4.4079895	0.9147644
1493856969373	-5.495163	-14.873764	0.43873596
1493856969374	0.007843018	-17.142487	2.0282898
1493856969374	0.33015442	-10.700027	-1.900238
1493856969374	-4.4167633	-3.381897	4.966614
1493856969374	-6.7164917	-2.831192	9.830933
1493856969374	-3.9015045	-9.632111	5.496704
1493856969374	1.3419037	-14.778534	3.7698212
1493856969374	4.811981	-13.396637	3.1902924
1493856969375	4.7539825	-10.926163	1.6854095
1493856969375	1.623764	-9.500107	1.1057129
1493856969375	-1.2008514	-9.004013	1.6226654
1493856969375	-3.0947876	-9.202042	1.7269897
1493856969375	-3.2779083	-9.529114	1.0063934
1493856969375	-2.0833435	-9.465652	0.36839294
1493856969376	-0.8340454	-8.860718	0.27731323
1493856969376	0.1586914	-8.060379	0.5595856
1493856969376	0.96998596	-7.9198456	0.5564728
1493856969376	1.3255005	-8.652649	1.4559937
1493856969376	1.410553	-9.989441	1.8776855
1493856969376	1.4120636	-10.548782	0.6145172
1493856969377	1.8974915	-10.178207	-1.5139618
1493856969377	2.3173065	-10.45816	-1.772995
1493856969377	1.6893463	-11.153534	-0.6350403
1493856969377	0.86247253	-11.523453	-1.042633
1493856969390	1.6416016	-11.825729	-1.9335327
1493856969410	3.4832153	-12.011826	-2.0435028
1493856969431	4.551483	-12.448074	-3.155365
1493856969451	5.345566	-13.306183	-2.8892212
1493856969471	4.1088867	-14.717682	-2.9830017
1493856969491	-0.0036315918	-15.067383	-3.7796326
1493856969511	-4.297516	-14.107025	-0.51145935
1493856969531	-6.0085907	-12.828079	6.164612
1493856969553	-6.892044	-13.318787	6.3597717
1493856969569	-7.1645813	-15.411575	1.7953644
1493856969592	-6.5111694	-15.1866455	-0.6664734
1493856969612	-3.633194	-12.493103	-0.0033111572
1493856969631	2.50708	-9.721848	0.94192505
1493856969649	5.1520844	-8.740921	1.7358246
1493856969669	2.475586	-8.306488	0.597702
1493856969690	-0.06652832	-7.540207	0.66864014
1493856969710	-1.8873291	-5.9409637	2.1411285
1493856969731	-2.9382324	-4.371277	2.6188812
1493856969748	-3.3230286	-3.3310852	2.8731232
1493856969769	-3.4095154	-3.1065674	3.19693
1493856969791	-2.4588013	-2.20018	3.326767
1493856969808	-1.7129669	-1.7644806	3.007019
1493856969827	-0.98349	-3.2189636	2.827301
1493856969850	-0.59059143	-7.5292816	-0.42744446
1493856969869	-0.124313354	-13.289703	-11.384598
1493856969887	4.7188873	-19.33696	-19.542496
1493856969908	7.232025	-19.474823	-8.870712
1493856969948	1.806427	-11.5186615	-4.0462494
1493856969948	-1.3356323	-6.9897156	-2.5265045
1493856969969	-2.5210876	-5.130707	-0.096832275
1493856970007	-7.3973083	-13.984879	-1.3397827
1493856970029	-3.6661987	-17.414139	0.39198303
1493856970046	-0.28231812	-12.1392975	-1.2071533
1493856970068	-0.44300842	-4.850189	5.9037323
1493856970086	-3.7332458	-2.3767548	9.207901
1493856970104	-3.2634125	-7.389038	5.9869385
1493856970122	0.8687134	-14.178604	3.6314087
1493856970143	3.2236633	-13.845459	3.0273285
1493856970162	2.6818848	-10.703766	1.3825531
1493856970180	0.026000977	-9.692657	1.5821381
1493856970202	-1.3569641	-9.499664	1.4995117
1493856970225	-1.7900391	-9.553574	1.951004
1493856970247	-1.9252167	-9.728226	1.4946136
1493856970264	-1.5455627	-9.571579	1.4289703
1493856970285	-1.1205902	-8.980545	1.6174011
1493856970304	-0.116485596	-8.406464	1.6924591
1493856970324	1.3540039	-8.268585	1.2965851
1493856970344	2.4935608	-8.652603	1.0201874
1493856970360	2.6710968	-9.386826	1.575943
1493856970380	1.8520508	-9.828262	1.531784
1493856970403	1.2454071	-9.569138	0.3625641
1493856970424	1.2852173	-9.815292	-0.913208
1493856970444	1.8463287	-10.954514	-0.5747986
1493856970460	1.8607025	-12.068314	-0.05418396
1493856970484	1.328476	-12.226471	-0.7444763
1493856970503	1.3091278	-12.115234	-2.0191193
1493856970519	2.0900116	-12.002411	-2.6393127
1493856970543	1.9625702	-11.896042	-2.8741302
1493856970561	2.2892456	-12.656754	-4.028412
1493856970582	3.2964478	-14.377045	-4.179291
1493856970602	2.213745	-14.878143	-4.3762207
1493856970620	-0.99086	-13.525604	-2.370346
1493856970642	-3.9671478	-11.906906	4.173752
1493856970662	-4.480545	-11.735779	7.3552246
1493856970680	-3.2263947	-13.982971	4.253296
1493856970701	-2.8901978	-16.504364	-0.94374084
1493856970721	-3.3114166	-15.644806	-1.3623047
1493856970739	-1.4998322	-12.465485	1.040268
1493856970762	0.7599945	-10.203857	1.7370453
1493856970781	1.1089478	-8.924988	2.3451538
1493856970801	0.26029968	-7.9378967	1.8913879
1493856970821	-0.9814148	-6.6696625	1.9635315
1493856970840	-1.9217072	-4.906433	1.8780212
1493856970863	-2.2807312	-3.5728302	2.392624
1493856970880	-2.2848663	-3.1816711	2.8801575
1493856970901	-2.7572784	-2.3746033	3.5259552
1493856970920	-3.3702698	-1.0456696	3.9669495
1493856970941	-3.1597748	-1.535614	3.4435425
1493856970960	-1.611145	-5.2407227	-0.40429688
1493856970980	1.2672882	-12.784195	-14.945328
1493856971000	5.0872498	-18.495422	-19.722397
1493856971018	3.8657837	-19.474823	-7.0217285
1493856971038	1.1344452	-9.376724	-3.2458496
1493856971060	-1.9813995	-4.8065186	-4.594284
1493856971079	-3.1229706	-6.634903	-0.4758911
1493856971098	-2.4191742	-12.683701	2.337738
1493856971118	-1.0694427	-14.23024	2.8099823
1493856971135	-1.0543518	-11.5686035	-4.957428
1493856971157	-2.1827698	-5.077057	6.6402435
1493856971179	-3.7653656	-4.4748993	6.4998474
1493856971199	-2.7694092	-10.314621	3.6949005
1493856971220	0.14118958	-13.508148	4.515274
1493856971240	3.4879608	-12.919357	4.301834
1493856971257	3.634262	-10.130402	1.8425598
1493856971280	1.2332458	-10.378967	0.16091919
1493856971317	-1.2383118	-9.596802	1.0895691
1493856971339	-2.5136871	-9.364075	1.4988251
1493856971339	-3.235199	-9.724823	0.48635864
1493856971378	-2.7680206	-9.764893	-0.28208923
1493856971397	-1.8311768	-9.108307	-1.6072693
1493856971415	-0.89167786	-8.074966	-1.3106384
1493856971436	-0.44728088	-7.446991	0.20652771
1493856971455	-0.17565918	-7.6790924	1.6024323
1493856971476	0.07859802	-8.843018	2.0214233
1493856971496	0.9543457	-9.414978	3.028656
1493856971516	2.0254517	-9.430679	2.6101837
1493856971535	1.8003387	-10.674652	-0.16189575
1493856971556	0.8998871	-12.065033	-2.4416656
1493856971574	0.37138367	-12.847824	-3.8328094
1493856971595	1.0540314	-12.61055	-2.6273346
1493856971614	2.2377777	-12.607788	-1.4921112
1493856971635	3.700714	-12.532135	-1.555069
1493856971655	4.6840515	-12.780594	-3.173111
1493856971673	5.4011383	-13.361069	-3.7787933
1493856971695	3.8905792	-13.151611	-2.839386
1493856971714	-0.27879333	-13.112289	-1.4015198
1493856971733	-3.3111115	-12.151764	3.221222
1493856971756	-3.890396	-11.282333	4.3581085
1493856971771	-3.879303	-13.198776	4.0536957
1493856971794	-3.277069	-15.831863	2.953476
1493856971813	-3.138443	-15.309967	1.5839081
1493856971833	-1.085968	-12.358368	0.89456177
1493856971853	1.694458	-10.300415	1.6889038
1493856971872	2.779068	-9.475037	1.4352875
1493856971892	1.855896	-8.555908	0.73443604
1493856971913	0.047943115	-7.698593	1.5122681
1493856971931	-1.8146973	-6.8253174	3.0566711
1493856971953	-2.7597198	-5.753479	3.3040009
1493856971973	-2.9793549	-5.0645447	3.1877136
1493856971991	-2.908432	-4.738571	2.8922424
1493856972012	-3.0358582	-3.9492645	2.7480927
1493856972033	-3.3851013	-3.4510956	2.993332
1493856972050	-3.1068878	-4.602768	2.0700073
1493856972068	-2.2506104	-7.7949677	-1.2678528
1493856972090	-2.392685	-13.111298	-9.003693
1493856972109	1.5927582	-17.939713	-17.088821
1493856972128	7.923004	-19.474823	-11.192474
1493856972150	4.6717987	-14.09256	-4.2835693
1493856972171	-0.33135986	-7.2006836	-1.5234528
1493856972189	-1.6068573	-3.921875	0.58399963
1493856972209	-1.2378387	-6.838028	0.42060852
1493856972231	0.988678	-15.010956	-0.7953949
1493856972249	4.4144897	-18.782547	-0.54563904
1493856972270	-0.30723572	-12.943314	-2.5965424
1493856972290	-8.85585	-3.318634	-1.7366028
1493856972305	-11.863754	0.2383728	9.273346
1493856972325	-4.8479614	-6.637665	8.415405
1493856972347	1.4841766	-13.752716	3.8039093
1493856972367	6.345703	-15.438538	0.91296387
1493856972388	6.2646637	-12.589539	-0.26307678
1493856972407	2.1589355	-9.635361	1.952713
1493856972427	-1.3730927	-8.761322	1.4680939
1493856972446	-3.2518463	-8.964462	1.6473083
1493856972466	-3.0713348	-9.7000885	1.7178802
1493856972486	-2.352188	-10.22995	0.9354706
1493856972506	-1.9446716	-9.466461	-0.30343628
1493856972526	-1.0164642	-8.553864	-0.44754028
1493856972546	-0.09918213	-8.054932	0.7794342
1493856972567	0.7685089	-8.195053	1.7577972
1493856972586	1.4244843	-8.848404	2.0628662
1493856972606	1.4702301	-10.363327	1.3692474
1493856972623	0.743103	-10.776535	-0.8537903
1493856984401	0.15362549	-10.440628	-2.355896
1493856984401	-0.5410156	-10.808029	-1.3421936
1493856984401	-0.6171112	-10.9384	-1.0609894
1493856984401	0.8690338	-11.425735	-1.7285461
1493856984402	3.4977875	-12.340286	-2.0911407
1493856984402	6.007019	-13.680634	-3.0368958
1493856984402	6.735779	-14.451889	-1.6624451
1493856984402	4.576172	-13.699783	-1.6712341
1493856984402	-1.1360474	-13.017838	-4.1481934
1493856984402	-5.0375366	-12.618729	0.9977875
1493856984402	-5.4072113	-11.019882	5.0471954
1493856984403	-6.0797577	-11.412521	6.932892
1493856984403	-5.1156006	-14.096497	5.1061707
1493856984403	-3.873169	-14.854691	-0.5410309
1493856984403	-1.5578003	-13.305435	-1.2887573
1493856984403	1.9078827	-11.153778	1.0536804
1493856984403	3.9874725	-10.550034	2.8929138
1493856984404	2.4947662	-9.9188385	2.131256
1493856984404	-0.06161499	-8.797211	1.4829102
1493856984404	-2.0364685	-7.568619	1.8793182
1493856984404	-3.20813	-6.2045593	3.2934418
1493856984404	-3.3576508	-4.9675903	3.655655
1493856984404	-3.369522	-4.2518616	3.2955627
1493856984404	-3.0177155	-4.1419525	3.141388
1493856984405	-3.0204773	-4.98967	2.8822174
1493856984405	-2.5786133	-7.055908	0.2779541
1493856984405	-1.2336731	-11.325912	-8.168228
1493856984405	2.024231	-14.765305	-14.081497
1493856984405	2.5859222	-14.500671	-7.823303
1493856984405	-1.1671753	-12.069122	-3.1229095
1493856984406	-4.311371	-9.674469	-1.1661682
1493856984406	-4.6797943	-9.760025	0.07795715
1493856984406	-2.6973877	-12.628464	-1.5437012
1493856984406	-0.27261353	-13.358124	-3.9554138
1493856984406	3.0049744	-8.713623	2.0984497
1493856984406	4.580536	-5.2226257	8.960678
1493856984407	1.6013031	-9.577499	4.509674
1493856984407	-0.8845062	-13.907944	-0.39253235
1493856984407	-1.1981964	-13.465866	2.1175232
1493856984407	-1.0605774	-10.428879	4.0414124
1493856984407	-1.066452	-8.940781	2.918991
1493856984407	-0.71343994	-10.875458	1.0112457
1493856984407	-0.38220215	-11.840866	0.9577637
1493856984408	-0.48994446	-10.374908	1.4646606
1493856984408	-0.65364075	-8.935287	0.96650696
1493856984408	-0.8182068	-8.753082	-0.08683777
1493856984408	-1.1704865	-9.179672	-0.34484863
1493856984442	-1.5525055	-9.499313	-0.6314392
1493856984442	-0.3058319	-9.018845	0.32226563
1493856984442	0.5065918	-8.254776	3.1179352
1493856984442	-2.1758575	-8.222809	3.7105255
1493856984442	-4.6016693	-8.508789	1.4630585
1493856984442	-3.5645447	-8.734253	0.75079346
1493856984442	-1.3574066	-9.059799	0.9893646
1493856984442	-0.48127747	-9.516052	0.3668518
1493856984442	-0.51278687	-9.945877	0.23654175
1493856984442	-0.70654297	-10.712509	0.16334534
1493856984442	-0.49378967	-12.164673	-1.4305267
1493856984442	-0.29823303	-12.811035	-3.0000458
1493856984442	-0.7854614	-12.246613	-4.8302155
1493856984442	-0.32609558	-11.527451	-4.618561
1493856984442	1.5852051	-11.451401	-3.4032593
1493856984442	4.360901	-13.25528	-4.07428
1493856984442	4.491791	-17.58014	-5.7213287
1493856984442	3.0369263	-15.930481	-2.1674957
1493856984442	2.5325317	-12.863846	5.035248
1493856984442	3.1735687	-11.098038	7.112274
1493856984442	2.7447662	-9.797348	8.465576
1493856984442	2.9807892	-11.267548	5.962631
1493856984442	3.2019653	-12.674835	4.1457214
1493856984442	2.9603424	-12.123184	1.7550049
1493856984442	2.19841	-10.766327	0.74295044
1493856984442	2.8287811	-10.4748535	0.13674927
1493856984442	4.321472	-10.288162	5.2765045
1493856984442	1.7921143	-11.134277	6.8253174
1493856984442	-0.6856537	-9.884842	3.6091309
1493856984442	-1.1124573	-8.148453	1.9650269
1493856984442	-2.3053436	-7.710602	2.6109924
1493856984442	-4.474243	-7.2830505	2.8864899
1493856984442	-5.3365784	-6.8400726	2.4025726
1493856984442	-5.3220215	-7.0357666	1.8697815
1493856984442	-4.912903	-8.198105	0.4253235
1493856984443	-3.9383087	-10.482407	-2.6808472
1493856984443	-2.2474518	-12.692734	-5.976425
1493856984443	0.75367737	-12.966415	-8.441406
1493856984443	3.7873383	-11.959305	-8.672028
1493856984443	6.3157043	-10.214859	-2.456482
1493856984443	8.70369	-9.536148	1.6932373
1493856984443	8.096848	-10.100769	2.3121643
1493856984443	5.035187	-9.908676	0.061782837
1493856984443	2.8358612	-9.239883	-1.0352173
1493856984443	1.2233887	-8.375	0.21939087
1493856984443	-2.2113495	-10.690994	2.2820892
1493856984443	-6.775482	-17.127808	1.2355804
1493856984443	-8.11377	-18.063568	-8.06929
1493856984443	-7.2573853	-10.745361	-6.242096
1493856984443	-7.482727	-0.6913147	11.377136
1493856984443	-6.4448547	-0.6611786	10.907852
1493856984443	-3.3296509	-9.569733	2.535263
1493856984443	1.5747375	-15.746826	0.63716125
1493856984443	3.6540375	-15.376434	2.5564423
1493856984443	3.9258728	-10.901352	3.095581
1493856984443	1.1946716	-8.167313	3.087082
1493856984443	-2.2321625	-9.180786	0.5996704
1493856984443	-2.7593231	-10.045868	-0.20683289
1493856984443	-1.6753998	-10.625137	-0.062164307
1493856984443	-1.3390198	-9.921097	-0.022384644
1493856984443	-2.3437042	-8.798828	1.0886383
1493856984443	-3.3132782	-8.556244	0.5703888
1493856984443	-1.8405609	-8.417358	1.0136414
1493856984443	0.16052246	-8.180969	2.9418488
1493856984443	0.4188385	-8.127686	3.020401
1493856984443	0.18605042	-8.437027	2.24646
1493856984443	-0.26600647	-9.474258	0.8473511
1493856984443	-1.1025085	-10.100952	-0.8831787
1493856984443	-1.1558838	-10.656418	-1.4526062
1493856984443	-0.0655365	-11.950897	-0.37297058
1493856984443	0.86976624	-12.970993	-0.19528198
1493856984443	1.0494995	-12.743301	-1.4654846
1493856984443	1.5898895	-12.408035	-3.2649994
1493856984443	3.378708	-13.253555	-4.4220734
1493856984443	5.12619	-14.379105	-3.057373
1493856984443	4.7711945	-14.71933	-1.6320801
1493856984443	1.6530304	-13.551025	-1.129837
1493856984444	-2.1637573	-12.202576	2.0565338
1493856984444	-3.535324	-11.192963	4.919235
1493856984444	-4.1800385	-12.631744	6.239395
1493856984444	-1.9482727	-14.474686	4.6374207
1493856984444	-1.2735138	-14.645126	0.12767029
1493856984444	0.013763428	-12.299866	1.7848053
1493856984444	2.3771515	-10.489761	4.0247345
1493856984444	2.444641	-10.253113	1.4100647
1493856984444	1.6963196	-8.9908905	1.0650787
1493856984444	-0.051757813	-8.014725	1.3464813
1493856984444	-2.441986	-6.748169	1.493988
1493856984444	-3.091385	-5.244156	2.127121
1493856984444	-2.7900696	-4.6141663	2.5429993
1493856984444	-2.8401031	-4.5058136	2.4446716
1493856984444	-3.1649933	-3.668213	2.9924622
1493856984444	-3.7361755	-3.8740692	2.4707031
1493856984444	-3.8204803	-5.8696136	1.0126953
1493856984444	-2.4310303	-9.61647	-3.4521942
1493856984444	-1.524231	-14.26413	-9.8693695
1493856984444	3.1877136	-19.195328	-18.61235
1493856984444	7.853195	-18.397781	-8.365753
1493856984444	4.72139	-11.777069	-2.6606903
1493856984444	1.7408295	-6.5850983	-0.5356293
1493856984444	1.2541199	-5.059784	0.6538086
1493856984444	2.0137482	-8.844147	-1.92276
1493856984444	2.8429565	-17.619186	-4.4378815
1493856984444	4.740814	-17.816345	1.7571259
1493856984444	-2.9174347	-8.92395	0.5207977
1493856984444	-15.744232	1.5556793	-3.100998
1493856984444	-16.487854	2.541153	14.56665
1493856984444	-4.5336304	-10.572708	11.803268
1493856984444	5.9864655	-18.61998	4.1435394
1493856984444	11.34317	-17.402557	-2.809723
1493856984444	7.3183594	-11.192413	-0.94229126
1493856984444	0.17063904	-8.062317	4.459717
1493856984444	-5.149887	-8.416931	2.216919
1493856984444	-6.3592834	-10.223038	1.0224915
1493856984444	-3.4580688	-10.910965	0.54600525
1493856984444	-0.93963623	-9.629639	-0.28935242
1493856984444	-0.3477173	-8.11795	-0.5284729
1493856984444	-0.27774048	-7.51886	0.2684784
1493856984444	0.24073792	-7.4401093	1.6204376
1493856984445	0.48876953	-7.6883087	2.9083862
1493856984445	0.05014038	-8.432465	2.9296417
1493856984445	-0.2841339	-9.263779	2.0340424
1493856984445	-0.23796082	-9.675583	0.26461792
1493856984445	-0.14324951	-10.160828	-1.9424896
1493856984445	-0.10513306	-10.9722595	-1.8911743
1493856984445	-0.30056763	-11.572174	-0.7668152
1493856984445	0.27954102	-11.813293	-0.58747864
1493856984445	2.1179352	-12.170685	-0.9623718
1493856984445	3.9057312	-12.734848	-1.6490021
1493856984445	5.037628	-13.303131	-2.469101
1493856984445	4.942444	-13.376846	-1.6193237
1493856984445	2.4976501	-13.353989	-1.5361633
1493856984445	-2.7872314	-14.170929	-6.3716736
1493856984445	-6.528717	-13.84462	-4.301407
1493856984445	-7.812866	-12.401123	3.5465698
1493856984445	-7.9802704	-12.703278	7.7204895
1493856984445	-6.573288	-13.533234	4.746109
1493856984445	-4.3697968	-13.979477	-2.6158295
1493856984445	-1.8680267	-12.719238	-4.0059967
1493856984445	1.5376434	-10.38121	0.3110199
1493856984445	2.026535	-9.143066	3.2821808
1493856984445	0.37696838	-8.390854	2.3195648
1493856984445	-1.1720123	-6.90036	0.48345947
1493856984445	-2.1955872	-5.382736	0.6347809
1493856984445	-3.1963806	-4.4763794	1.1492615
1493856984445	-3.156845	-4.119644	1.333252
1493856984446	-2.7897797	-4.272644	1.2110596
1493856984446	-1.7494965	-4.2576294	1.7119446
1493856984446	-0.67355347	-3.8728485	2.3043976
1493856984446	-0.7076111	-4.301056	2.0436401
1493856984446	-0.8888855	-5.8941803	0.116744995
1493856984446	-0.23242188	-8.588852	-3.6551056
1493856984446	1.2645111	-14.217636	-17.513748
1493856984446	5.45018	-19.2556	-19.661545
1493856984446	3.016159	-19.474823	-8.524933
1493856984446	0.36434937	-11.143936	-6.945938
1493856984446	-1.5189514	-5.02359	-2.5628967
1493856984446	-5.6160736	-5.2407227	0.64888
1493856984446	-8.347992	-14.131958	-4.758072
1493856984446	-1.9550934	-14.450394	1.4425812
1493856984446	2.7404785	-7.308487	5.863617
1493856984446	0.20539856	-1.8235168	5.838867
1493856984446	-4.3864746	-6.6372375	5.4080963
1493856984446	-2.6760254	-13.766357	4.060547
1493856984446	-1.0726013	-16.116425	3.3145447
1493856984446	1.2414398	-12.140335	2.3118134
1493856984446	0.9753418	-9.260422	1.3362274
1493856984446	0.6895294	-9.975067	1.9171295
1493856984446	0.47546387	-10.155869	2.372757
1493856984446	-0.4252777	-9.932922	2.6448822
1493856984446	-1.7171936	-9.680908	1.7604065
1493856984446	-2.3287354	-9.194809	1.060318
1493856984446	-1.9962006	-8.507019	0.16130066
1493856984446	-1.3110504	-7.961014	0.65011597
1493856984446	-0.35157776	-7.977722	1.2216187
1493856984446	0.58551025	-8.218918	1.9788055
1493856984446	1.7800598	-9.022919	1.506134
1493856984446	2.737381	-9.719818	0.82167053
1493856984446	2.6423035	-10.146606	-0.0016937256
1493856984446	1.4224854	-10.97641	-0.7560272
1493856984446	0.067092896	-11.836761	-0.9295502
1493856984446	-0.8058777	-12.34903	-1.2341156
1493856984446	-0.1441803	-12.612915	-2.2934723
1493856984446	1.8044128	-12.902451	-2.0817719
1493856984446	2.728897	-12.867508	-2.4631958
1493856984446	3.4147186	-13.16803	-3.4393768
1493856984446	5.1829987	-14.129791	-2.447281
1493856984446	4.225235	-14.428177	-2.4230042
1493856984446	-0.23262024	-13.87793	-3.3775482
1493856984447	-4.4900513	-13.0355835	0.46255493
1493856984447	-6.125229	-12.7052	5.633667
1493856984447	-5.261566	-13.467056	6.5316467
1493856984447	-3.6986237	-14.769318	2.8189087
1493856984447	-2.297058	-14.4839325	-0.8787689
1493856984447	0.60043335	-11.897919	-0.76649475
1493856984447	4.203186	-9.482697	1.3496857
1493856984447	4.0350647	-9.009094	1.9481812
1493856984447	1.8271637	-8.400116	1.1875763
1493856984447	-0.39666748	-7.2248993	1.5627594
1493856984447	-2.2020874	-5.4691315	2.6392822
1493856984447	-2.8377838	-4.113907	2.556427
1493856984447	-2.593216	-4.560379	2.298294
1493856984447	-2.3186035	-4.802063	2.5001068
1493856984447	-2.6826172	-3.564331	3.6963348
1493856984447	-3.5761108	-2.0733795	4.37764
1493856984447	-3.5507965	-2.7390137	2.7573242
1493856984447	-1.6885986	-5.709427	-1.0557709
1493856984447	-0.75712585	-11.563934	-9.441116
1493856984447	5.042343	-18.064682	-17.94693
1493856984447	9.802948	-19.474823	-8.783798
1493856984447	3.7206726	-13.950363	-3.7682953
1493856984447	-0.92567444	-5.666977	-1.8425293
1493856984447	-4.411789	-6.5101624	1.2488556
1493856984447	-4.5764923	-14.765808	-0.5106201
1493856984447	-1.1230164	-15.845673	2.8933563
1493856984447	-4.8302765	-8.439026	-1.5251923
1493856984447	-8.599564	-1.5436859	5.270691
1493856984447	-6.067215	-2.6903381	13.044159
1493856984447	-0.10533142	-12.7509	5.057434
1493856984447	3.5967255	-16.047592	3.1973267
1493856984447	6.4451294	-12.62709	0.6828003
1493856984447	3.1322174	-9.733704	1.7850037
1493856984447	0.25534058	-8.946884	2.126892
1493856984447	-2.2329865	-9.143616	2.128296
1493856984447	-2.1828003	-8.888031	1.7721405
1493856984447	-2.2692566	-9.652832	0.9573822
1493856984447	-1.1341095	-9.905167	0.7707062
1493856984447	-0.5743408	-9.266785	0.17448425
1493856984447	-0.0054779053	-8.697266	-0.23362732
1493856984447	0.5127411	-8.465424	0.035858154
1493856984447	0.91311646	-8.419907	1.1429138
1493856984448	1.1887665	-9.164871	1.0099487
1493856984448	1.3558502	-9.949432	0.40571594
1493856984448	1.4562988	-10.070496	-0.33677673
1493856984448	1.1702576	-10.734207	-1.0646973
1493856984448	0.053649902	-11.250351	-1.3912506
1493856984448	-0.4657135	-11.437515	-1.936203
1493856984448	0.8206024	-11.675552	-2.385147
1493856984448	3.0525818	-11.485001	-2.0772705
1493856984448	4.8531494	-11.800873	-2.158722
1493856984448	6.325638	-13.404999	-1.7450104
1493856984448	5.1086426	-15.643463	0.02734375
1493856984448	-1.4230042	-16.097107	-1.7828064
1493856984448	-5.8997955	-13.463959	-0.48582458
1493856984448	-4.397217	-11.197983	3.329132
1493856984448	-2.156311	-11.098724	4.868454
1493856984448	-2.2693024	-13.165543	2.5503845
1493856984448	-2.8910217	-15.307846	-0.69633484
1493856984448	-1.9155884	-13.987137	-0.8121948
1493856984448	0.85816956	-10.935593	1.2194824
1493856984448	2.3611603	-9.639191	2.7847748
1493856984448	0.9169922	-9.275742	2.3807526
1493856984448	-1.0577545	-8.118439	2.2145233
1493856984448	-2.2065735	-6.633255	2.4795074
1493856984448	-2.4158936	-5.278244	2.3638
1493856984448	-1.8749237	-4.4916534	2.4447327
1493856984448	-1.9032898	-4.3216248	2.874237
1493856984448	-2.6839142	-3.5944672	3.6623688
1493856984448	-3.3075256	-2.3448944	3.9925385
1493856984448	-2.6939545	-2.6750793	3.203659
1493856984448	-0.6610718	-5.585968	-0.038131714
1493856984448	-0.7429962	-10.995789	-7.5838776
1493856984448	2.2965088	-17.094635	-16.379257
1493856984448	8.8151245	-19.474823	-9.027847
1493856984448	6.190277	-13.822037	-1.9338379
1493856984448	-0.5596161	-6.9555817	-2.0037384
1493856984448	-5.40477	-10.268494	-2.0218658
1493856984448	-2.4940033	-16.963196	-2.6909943
1493856984448	1.2625122	-13.921326	3.0642395
1493856984448	-5.2220917	-5.7786865	1.4988251
1493856984448	-10.10083	-1.2396088	7.863861
1493856984448	-6.953186	-6.213455	11.340073
1493856984448	-1.0550232	-14.366028	6.9897614
1493856984449	3.9728394	-16.157776	2.4910583
1493856984449	6.112488	-12.119415	1.2006683
1493856984449	2.5482788	-9.812515	1.8134155
1493856984449	-1.1658783	-8.846771	1.5912933
1493856984449	-3.3106232	-8.985199	1.677536
1493856984449	-3.8665924	-10.249527	1.0266724
1493856984449	-2.683792	-10.096451	-0.18902588
1493856984449	-1.6294861	-8.869019	-0.41262817
1493856984449	-0.11657715	-7.34639	0.8812866
1493856984449	0.7967377	-7.4493103	0.62294006
1493856984449	1.0845947	-8.693726	0.5454254
1493856984449	1.2784424	-9.438889	1.4701538
1493856984449	1.3675232	-9.00824	2.0014343
1493856984449	0.9870758	-9.039841	0.09643555
1493856984449	0.8159332	-9.737762	-2.0813446
1493856984449	0.9756775	-10.9249115	-1.8717804
1493856984449	-0.5101471	-11.841858	-0.6075897
1493856984449	-1.7908783	-11.722168	-2.322113
1493856984449	0.41171265	-11.799896	-2.1837158
1493856984449	3.7341614	-12.272903	-1.0614166
1493856984449	4.2585297	-12.263992	-2.792633
1493856984449	4.976227	-13.006088	-4.14624
1493856984449	4.65152	-15.106659	-2.0789337
1493856984449	1.0030518	-15.130402	-3.8636627
1493856984449	-2.5907593	-13.57135	0.20089722
1493856984449	-4.587433	-12.674118	5.626007
1493856984449	-5.0173492	-14.048706	6.100174
1493856984449	-4.7212677	-15.324509	2.5033417
1493856984449	-4.6003876	-15.9973755	-1.016037
1493856984449	-1.8199615	-13.043259	-1.2561646
1493856984449	3.5973053	-9.82309	1.4743347
1493856984449	4.979431	-8.711899	1.1254425
1493856984449	2.8109283	-7.515732	0.6251373
1493856984449	-0.32878113	-6.9792175	1.7944336
1493856984449	-2.5174713	-5.0448	3.181366
1493856984449	-4.0149536	-3.7562408	3.364441
1493856984449	-4.1868896	-3.8300781	3.4034119
1493856984449	-3.8554077	-4.151932	3.5734558
1493856984449	-3.6068878	-3.2397308	3.867035
1493856984449	-3.404602	-2.149887	3.581131
1493856984449	-2.4062958	-2.9965973	2.0471802
1493856984449	-1.4673615	-7.214325	-3.6752014
1493856984449	0.32048035	-14.544815	-13.797562
1493856984450	5.4663544	-19.474823	-18.952484
1493856984450	6.634796	-17.10431	-12.944214
1493856984450	1.5475769	-9.884506	-4.1062317
1493856984450	-2.8931732	-6.6771393	-0.4881134
1493856984450	-4.6891937	-13.314835	-0.26843262
1493856984450	-0.19573975	-16.026062	1.0878754
1493856984450	-0.026062012	-8.584381	3.9431458
1493856984450	-7.430374	-1.1787262	5.6585083
1493856984450	-9.320526	-1.9942017	9.704041
1493856984450	-4.6909943	-10.841995	7.59021
1493856984450	0.7993927	-16.7025	3.8712616
1493856984450	5.9850464	-13.955368	1.8224487
1493856984450	6.004715	-10.243759	0.8876343
1493856984450	1.9655457	-8.931793	1.5241852
1493856984450	-1.1781464	-8.552673	1.8171082
1493856984450	-3.1414337	-9.303299	1.0703125
1493856984450	-3.3289642	-10.426239	-0.29830933
1493856984450	-2.2566528	-10.245361	-1.2312622
1493856984450	-1.1329651	-8.57547	-0.54496765
1493856984450	-0.29141235	-7.399475	0.41082764
1493856984450	0.49076843	-7.8461914	1.1106262
1493856984450	0.9147186	-8.898743	2.601593
1493856984450	0.8922577	-9.442703	3.1243896
1493856984451	0.9486542	-9.956741	1.007721
1493856984451	1.8156738	-10.394012	-2.9469757
1493856984451	3.2392426	-10.880234	-2.9410858
1493856984451	1.9714661	-11.42894	-1.108902
1493856984451	-0.82810974	-11.794342	-2.0958405
1493856984451	-0.83465576	-11.992477	-2.6632385
1493856984451	1.6251678	-12.108673	-3.132492
1493856984451	4.3262787	-12.705582	-1.171936
1493856984451	4.9110107	-14.768204	-1.7724915
1493856984451	1.767273	-15.710129	-3.0944672
1493856984451	-4.630295	-14.488144	-3.347641
1493856984451	-5.6827087	-12.513443	6.161209
1493856984451	-3.6607056	-12.681305	5.6233673
1493856984451	-2.7548828	-14.5056305	2.622055
1493856984451	-4.98938	-16.236664	0.4224701
1493856984451	-3.2910156	-13.647461	-0.8102722
1493856984451	2.7415466	-9.457489	1.3309937
1493856984451	5.694153	-9.075516	1.9254456
1493856984451	2.4978943	-9.401184	-1.4269409
1493856984451	0.5064087	-7.8487854	1.0970154
1493856984451	-2.3259735	-5.8332214	3.1108398
1493856984451	-3.7668152	-3.964447	3.2002258
1493856984451	-3.9907074	-3.5243225	2.7671967
1493856984451	-3.4923553	-4.013809	2.6142578
1493856984451	-3.0041046	-3.5707397	2.503952
1493856984451	-2.9109192	-2.1019745	3.0825195
1493856984451	-2.1872406	-2.756134	2.4289856
1493856984451	-0.97662354	-5.7388763	0.2619171
1493856984451	-0.37173462	-12.167053	-7.2218475
1493856984451	2.5801697	-19.474823	-19.722397
1493856984451	11.587891	-18.919128	-16.707932
1493856984451	5.2683563	-14.325211	-2.5042877
1493856984451	-1.3887482	-6.7914276	-0.4179535
1493856984451	-7.2250824	-11.83667	0.23205566
1493856984451	-5.0512695	-14.869965	1.2796173
1493856984451	-2.1036682	-8.014679	2.566101
1493856984451	-7.1301575	-2.5590515	2.759842
1493856984451	-7.424103	-2.1443481	10.906418
1493856984451	-3.495819	-10.859863	8.111694
1493856984451	1.0798187	-17.710846	1.3860474
1493856984451	4.260971	-14.79689	1.130539
1493856984451	5.2300262	-9.23381	1.3437805
1493856984451	2.3741455	-8.418594	1.9962463
1493856984452	-0.56707764	-8.972595	1.0632019
1493856984452	-2.3766632	-9.449387	1.0915527
1493856984452	-2.979721	-9.651993	1.059906
1493856984452	-2.5681915	-9.451279	-0.23265076
1493856984452	-1.5755157	-8.652069	-0.85580444
1493856984452	-0.2346344	-7.6396637	-0.10432434
1493856984452	0.5252533	-7.421631	0.49897766
1493856984452	0.65634155	-8.213791	1.0442505
1493856984452	1.0764618	-9.382507	1.9100952
1493856984452	1.4628448	-10.28421	1.2275696
1493856984452	1.9857941	-10.68573	-1.4398041
1493856984452	2.5214996	-11.1188965	-2.702774
1493856984452	1.6252289	-11.833557	-2.480774
1493856984452	0.49780273	-12.150848	-1.7437744
1493856984452	0.9249115	-12.095963	-2.0457153
1493856984452	2.5772552	-11.838882	-3.6700287
1493856984452	4.6440125	-12.175674	-4.8139496
1493856984452	6.250229	-14.301437	-2.801529
1493856984452	3.2050476	-15.651062	-3.3414001
1493856984452	-1.218277	-14.633011	0.19128418
1493856984452	-3.257843	-13.697815	5.332535
1493856984452	-3.8713226	-14.759872	6.0595856
1493856984452	-3.279602	-17.006989	2.7036133
1493856984452	-4.0283203	-17.740616	1.6209259
1493856984452	-3.031845	-14.480026	0.39205933
1493856984452	1.7018127	-10.683411	1.6199036
1493856984452	4.2033234	-9.225006	1.0918884
1493856984452	3.0592194	-8.423462	0.29200745
1493856984452	0.37779236	-7.223938	1.3319397
1493856984452	-1.5448151	-5.603119	3.3027802
1493856984452	-3.1860657	-3.9719849	3.7785187
1493856984452	-4.5071716	-3.6483612	3.7811432
1493856984452	-4.9922485	-3.8269653	3.2679443
1493856984452	-5.0089264	-3.1132355	3.081665
1493856984452	-4.733139	-2.2319946	2.9072113
1493856984452	-3.6121826	-3.0449677	1.4169159
1493856984452	-1.0835724	-5.864746	-1.7422028
1493856984452	0.0440979	-11.198044	-9.451584
1493856984452	5.2042084	-18.967636	-18.556412
1493856984452	8.713272	-19.472672	-15.66835
1493856984452	2.5062408	-13.297577	-4.6620483
1493856984452	0.25405884	-5.7745514	-2.68367
1493856984453	0.4749298	-3.1088257	-0.7786255
1493856984453	-5.899719	-16.772034	-2.5324707
1493856984453	-0.34422302	-19.212479	4.5691223
1493856984453	-2.528183	-10.901932	-1.275711
1493856984453	-8.404175	-1.8889008	0.80662537
1493856984453	-7.7464294	-2.404358	13.098633
1493856984453	-2.7211456	-9.728928	7.2461853
1493856984453	1.7553558	-14.442764	2.658142
1493856984453	5.567688	-14.631226	2.0603027
1493856984453	5.5346375	-12.002289	1.6334229
1493856984453	1.818634	-10.03186	1.389679
1493856984453	-1.2800598	-8.68663	1.8466644
1493856984453	-2.9453888	-8.50972	1.5738525
1493856984453	-3.1480713	-9.123428	0.60147095
1493856984453	-2.038498	-9.356033	0.15603638
1493856984453	-0.5009155	-8.810318	-0.4455719
1493856984453	0.26879883	-7.884918	0.5801239
1493856984453	1.0179901	-7.782593	0.3566742
1493856984453	1.2456055	-8.453812	1.0617065
1493856984453	1.0800781	-9.796402	1.558258
1493856984453	1.0279846	-10.187805	0.4817047
1493856984453	1.4564972	-10.41922	-1.579834
1493856984453	1.7966461	-11.60437	-2.5399323
1493856984453	0.91604614	-12.475784	-1.5733337
1493856984453	0.04055786	-12.471741	-2.1393585
1493856984453	1.4619293	-12.30423	-3.2046509
1493856984453	4.532898	-12.2491455	-3.8818665
1493856984453	7.056259	-13.468521	-3.7406769
1493856984453	6.315399	-15.682495	-1.7623901
1493856984453	0.6530762	-16.015503	-1.0143127
1493856984453	-5.567993	-14.5208435	1.2668152
1493856984453	-8.310196	-13.427704	4.8755493
1493856984453	-6.235031	-13.517227	4.6548004
1493856984453	-3.2399597	-14.499847	2.721527
1493856984453	-2.2924957	-14.530472	-0.0054473877
1493856984453	-0.3600464	-12.500351	-0.59503174
1493856984453	3.2092743	-10.292892	2.1668549
1493856984453	3.9138794	-9.636948	2.4204865
1493856984453	1.7951202	-9.430206	0.46006775
1493856984453	-0.5406189	-8.251953	1.2809296
1493856984453	-2.6145782	-6.2873993	3.2710876
1493856984453	-3.9936829	-4.361679	3.7062683
1493856984453	-4.081497	-3.388443	3.4320374
1493856984454	-3.4599152	-2.9632874	3.190506
1493856984454	-2.8171844	-1.9312134	3.4705048
1493856984454	-2.9845734	-1.9853821	3.4819183
1493856984454	-2.8447723	-3.8493042	2.0088348
1493856984454	-2.6414337	-8.0716095	-3.6726532
1493856984454	-0.51379395	-15.902817	-15.891556
1493856984454	5.3070526	-19.175812	-19.722397
1493856984454	5.0509644	-16.32901	-8.026001
1493856984454	2.2126465	-8.360565	-2.3375092
1493856984454	-0.1383667	-3.4271393	-1.1022186
1493856984454	-5.168396	-12.988327	-1.3510132
1493856984454	-2.6846924	-18.752518	0.9599762
1493856984454	-1.945755	-14.111725	0.034317017
1493856984454	-5.3936462	-2.0926208	4.682556
1493856984454	-7.5844116	1.0335693	10.774689
1493856984454	-1.0110474	-5.858322	10.615448
1493856984454	3.32576	-17.004883	5.5314026
1493856984454	5.6661224	-18.067856	2.6839142
1493856984454	3.1775513	-11.802429	1.1519775
1493856984454	-2.361374	-8.415482	1.7682648
1493856984454	-5.3028564	-7.531433	0.7765198
1493856984454	-3.0735626	-8.823593	1.7010651
1493856984454	-0.5625305	-10.106216	1.5210571
1493856984454	1.1443024	-9.597931	1.5526581
1493856984454	1.1274414	-8.67749	1.0104218
1493856984454	0.1146698	-8.302017	-0.093170166
1493856984454	-0.2624054	-8.507462	0.37924194
1493856984454	0.11141968	-8.917236	0.64082336
1493856984454	0.27337646	-9.972534	1.4555817
1493856984454	0.44812012	-10.442001	1.1259613
1493856984454	1.4921112	-9.95871	-1.1858673
1493856984454	3.1081543	-10.645782	-1.8087769
1493856984454	4.016571	-12.138977	-0.039596558
1493856984454	2.5980072	-12.166	-0.4129181
1493856984454	1.0736542	-12.2104645	-3.6351776
1493856984454	3.0859375	-12.187256	-3.539734
1493856984454	4.9712067	-12.632721	-3.1899414
1493856984454	4.7819214	-14.894684	-1.7698517
1493856984454	1.9611053	-15.916565	-3.4230957
1493856984454	-2.7935944	-14.135101	-1.728363
1493856984454	-5.6284485	-12.331757	2.4053345
1493856984454	-4.2335663	-11.609634	5.304657
1493856984454	-2.2598572	-13.4982605	4.7095795
1493856984455	-2.7490845	-16.541077	1.5445099
1493856984455	-2.9654388	-16.140396	-1.0175629
1493856984455	-0.4152832	-12.444199	-0.17695618
1493856984455	2.7697296	-9.934067	0.9916992
1493856984455	2.711853	-9.2638855	0.5297241
1493856984455	0.37506104	-8.429718	0.8638611
1493856984455	-1.9539642	-6.791977	2.4233093
1493856984455	-3.1600494	-4.905365	3.0378265
1493856984455	-3.771164	-3.946701	3.109436
1493856984455	-3.9329681	-4.035858	3.0721893
1493856984455	-3.7133484	-3.6900635	3.2920685
1493856984455	-3.6987305	-2.3056793	3.71904
1493856984455	-3.3108673	-1.6404419	3.449417
1493856984455	-1.7555695	-3.5753174	1.7397461
1493856984455	0.0317688	-8.430832	-4.680176
1493856984455	3.308609	-15.726746	-15.0095825
1493856984455	5.8380737	-19.474823	-15.953079
1493856984455	4.1628876	-15.580948	-6.9658356
1493856984455	0.5159607	-8.032639	-3.2860107
1493856984455	-1.4713593	-3.2256012	-1.4553833
1493856984455	-4.046631	-9.64415	0.5687256
1493856984455	-3.9594269	-17.293518	3.3035278
1493856984476	-2.8377838	-15.567093	-1.302536
1493856984496	-3.4688263	-7.6044464	1.9566193
1493856984514	-4.431595	-2.9759064	8.766724
1493856984535	-2.9667816	-7.0189514	7.2055664
1493856984556	0.0960083	-11.803848	5.5207367
1493856984571	3.887558	-13.141403	3.6028595
1493856984595	4.379822	-11.384506	2.0372467
1493856984611	1.4320221	-10.453064	1.0136261
1493856984630	-1.0944824	-9.284561	1.1785736
1493856984655	-2.2174072	-8.785019	1.5145721
1493856984674	-2.46698	-8.936401	0.8845062
1493856984692	-1.911972	-8.979538	0.88131714
1493856984710	-1.2483673	-8.863434	0.5553894
1493856999318	-0.7814789	-8.576721	0.90960693
1493856999318	0.32777405	-8.554916	0.5944061
1493856999318	1.1089325	-9.018845	0.92440796
1493856999318	1.1627655	-9.589966	1.1629791
1493856999318	0.98609924	-9.705429	0.67196655
1493856999319	1.4561005	-10.037094	-0.6502228
1493856999319	2.2550964	-11.045486	-0.6664429
1493856999319	1.7577515	-11.99324	-0.69862366
1493856999319	-0.006378174	-11.813324	-1.3184052
1493856999319	0.122558594	-11.7339325	-2.942505
1493856999319	2.8636932	-12.023972	-1.690506
1493856999319	5.328018	-12.193024	-1.1782684
1493856999320	6.9588165	-13.620941	-2.9617462
1493856999320	7.24794	-14.296204	-0.8915558
1493856999320	2.3099976	-15.4964905	-2.303772
1493856999320	-4.0182037	-14.693161	-3.9784393
1493856999320	-7.2265625	-12.228806	3.4658813
1493856999320	-6.395294	-11.401871	7.1746826
1493856999321	-3.9830627	-13.42688	4.049942
1493856999321	-3.9352722	-16.693375	0.098724365
1493856999321	-3.560028	-15.443939	-2.2794647
1493856999321	-0.092941284	-11.342239	0.9200134
1493856999321	2.989273	-9.449738	2.6990204
1493856999321	1.3124237	-9.060974	1.4973297
1493856999321	-0.520401	-7.932617	-0.09851074
1493856999322	-2.8584137	-6.409912	2.2666016
1493856999322	-3.8756104	-4.560211	4.088516
1493856999322	-3.3057098	-2.9605408	3.670929
1493856999322	-2.788803	-3.0169373	2.6684418
1493856999322	-2.434372	-3.3162231	2.7743225
1493856999322	-2.4246674	-2.232376	3.8983154
1493856999323	-2.6927795	-1.3305206	4.2059174
1493856999323	-2.1269836	-3.4860077	1.9691925
1493856999323	-1.1457367	-10.654724	-7.798279
1493856999323	3.0393677	-18.612076	-19.722397
1493856999323	7.773407	-19.426132	-14.539154
1493856999323	2.1537476	-14.870422	-3.6845093
1493856999324	-1.0335388	-4.614731	-2.2943878
1493856999324	-4.190033	-4.7529297	-0.9575653
1493856999324	-5.696701	-13.649048	2.157669
1493856999324	-2.5384521	-17.583618	2.0722198
1493856999324	-0.85832214	-12.321106	0.43154907
1493856999324	-2.3132935	-4.8376007	5.8717194
1493856999324	-3.1256104	-4.2996063	7.174408
1493856999325	-0.20851135	-8.948914	4.9076996
1493856999325	1.6168365	-11.985046	3.6134949
1493856999325	2.3061676	-11.17514	2.529663
1493856999325	1.6839752	-10.0767975	1.2506104
1493856999325	0.5075836	-9.546204	0.8542633
1493856999325	0.07095337	-9.088715	1.2734375
1493856999325	-0.2630005	-8.9869995	1.1968231
1493856999326	-0.46853638	-9.035889	0.9869232
1493856999326	-0.45066833	-9.189316	0.6314392
1493856999326	-0.41297913	-9.030533	0.797287
1493856999326	-0.016586304	-8.882751	1.0640717
1493856999326	0.92378235	-9.165222	0.95544434
1493856999326	2.1167908	-9.990585	1.3201904
1493856999327	2.2859192	-10.562241	0.973114
1493856999327	1.3348846	-11.104736	-0.55300903
1493856999327	0.62220764	-11.029251	-1.7426758
1493856999327	0.535202	-10.986267	-1.2448578
1493856999327	0.45300293	-11.514969	-0.35127258
1493856999370	0.25779724	-11.533005	-0.95925903
1493856999371	0.9956665	-10.902512	-2.4682007
1493856999371	2.7914276	-10.171143	-2.4434662
1493856999371	4.2550964	-10.859421	-2.6274414
1493856999371	5.7781982	-13.977188	-2.2452087
1493856999371	4.1407623	-16.312256	-1.0973969
1493856999371	-0.9859772	-15.559326	-2.387848
1493856999372	-6.4286194	-14.322403	-0.39845276
1493856999372	-6.396042	-12.943954	6.174179
1493856999372	-5.0974274	-13.759247	6.3737335
1493856999372	-4.077072	-15.647903	3.0186157
1493856999372	-3.9016876	-15.891144	-1.6456757
1493856999372	-1.1409912	-12.53508	-1.1873932
1493856999373	2.4375916	-9.853149	1.3640137
1493856999373	3.7794495	-8.470764	2.9046326
1493856999373	1.0626373	-8.157776	0.5569
1493856999373	-1.1353302	-6.75325	1.1644897
1493856999373	-2.5731812	-5.042282	2.9866486
1493856999373	-3.3871765	-3.7016602	3.57518
1493856999373	-3.1262207	-3.1566162	2.9825287
1493856999374	-2.3924866	-3.3928528	3.2307587
1493856999374	-2.242859	-2.750702	3.1486206
1493856999374	-2.25766	-2.0716705	3.0446167
1493856999374	-1.4781647	-3.554535	1.6364136
1493856999374	0.027023315	-7.339386	-2.3719025
1493856999374	0.6383667	-14.045471	-13.3029175
1493856999374	5.5560913	-19.474823	-18.435013
1493856999375	7.207184	-18.496979	-8.1432495
1493856999375	1.2936707	-11.2951355	-3.3933258
1493856999375	-1.6527863	-5.749939	-2.306549
1493856999375	-2.0231628	-3.3727112	-0.8474426
1493856999375	-4.1042023	-7.402069	-0.86169434
1493856999375	-4.295868	-14.518921	-0.43896484
1493856999376	-0.52786255	-15.964218	1.8307953
1493856999376	0.30430603	-13.50975	-4.828415
1493856999376	-2.2315521	-5.81575	5.873184
1493856999376	-4.451523	-3.8259125	6.9138184
1493856999376	-2.2625885	-6.436371	5.9161835
1493856999376	1.3294373	-11.156906	3.9864197
1493856999376	3.390808	-13.186035	3.8038635
1493856999377	2.7546082	-12.720245	2.235672
1493856999377	0.1616211	-10.589737	0.84935
1493856999377	-1.7566986	-9.00853	1.3502808
1493856999377	-2.5039825	-8.792725	1.5930328
1493856999377	-2.1784363	-9.067688	1.2370453
1493856999378	-1.2032928	-9.032379	1.0966187
1493856999378	-0.4572296	-9.109009	0.96466064
1493856999378	0.11795044	-8.917343	1.1161957
1493856999378	0.724823	-8.671463	0.8740387
1493856999378	1.2635956	-9.091537	0.9692688
1493856999378	1.4510193	-9.942154	1.412323
1493856999378	1.1283875	-10.318268	0.67684937
1493856999379	0.98043823	-10.335388	-1.1418152
1493856999379	1.4687958	-10.724152	-2.0991821
1493856999379	1.8486023	-10.96608	-1.3628082
1493856999379	1.6771088	-11.142105	-1.0403748
1493856999379	2.1154938	-11.6201935	-1.3359985
1493856999379	3.247589	-11.998688	-1.7539978
1493856999379	4.06131	-12.608719	-3.425827
1493856999380	5.334015	-13.991669	-3.261078
1493856999380	4.288849	-15.279465	-3.0503998
1493856999380	0.11555481	-15.185974	-2.477356
1493856999380	-5.0945587	-13.979095	0.3552704
1493856999380	-7.124161	-12.776245	5.562561
1493856999380	-7.3662567	-13.216095	6.0739594
1493856999380	-6.5279236	-15.04834	2.20961
1493856999381	-5.3972473	-15.453903	-1.0453033
1493856999381	-2.1947632	-12.741669	-0.55940247
1493856999381	2.0652924	-9.971863	1.4151764
1493856999381	3.432373	-8.895691	1.9443359
1493856999381	1.8008881	-8.1202545	0.3113098
1493856999382	-0.5858307	-7.299118	0.5935669
1493856999383	-2.271988	-5.4374084	2.6567688
1493856999384	-3.7077942	-3.4683533	2.9920044
1493856999384	-3.894455	-2.7125397	2.7314606
1493856999384	-3.1687775	-3.009552	2.7655792
1493856999384	-2.1737518	-2.398941	3.3859253
1493856999384	-1.6283264	-1.6951294	3.722229
1493856999384	-1.1056061	-3.3073883	2.6934052
1493856999385	0.41151428	-7.847641	-0.94992065
1493856999385	2.7457886	-16.176071	-17.83171
1493856999385	7.050186	-19.293	-19.696533
1493856999385	4.7336884	-19.029617	-3.391922
1493856999385	0.63464355	-9.50972	-4.277893
1493856999385	-2.3803864	-3.2734528	-2.505539
1493856999385	-7.0014954	-6.154541	4.423538
1493856999386	-5.7754517	-15.738632	2.8679504
1493856999386	-0.44056702	-19.020477	-0.6169281
1493856999386	1.9689331	-10.891098	-0.8463745
1493856999386	-5.328827	-3.004181	7.103531
1493856999386	-7.4401855	-3.3072815	5.2621613
1493856999386	-1.8900604	-10.791473	3.634018
1493856999386	3.0181122	-12.416916	4.7854156
1493856999387	4.47908	-11.571457	2.348755
1493856999387	2.147232	-10.762756	1.821579
1493856999387	-0.10499573	-10.442978	1.5988922
1493856999387	-2.0813751	-9.646851	2.3159027
1493856999389	-3.1321716	-9.107849	2.1167603
1493856999389	-1.7916565	-9.189133	2.0087738
1493856999389	-0.10960388	-9.0065155	2.0030365
1493856999390	1.3494873	-8.624374	1.039093
1493856999390	1.886795	-8.156555	0.39782715
1493856999390	1.3842468	-8.369812	0.642746
1493856999390	1.4499054	-9.212082	1.048706
1493856999391	1.2391968	-10.173523	0.8209839
1493856999392	0.8693085	-10.672119	-0.49986267
1493856999392	1.4423981	-10.841492	-2.2032318
1493856999392	2.329605	-10.937576	-1.224884
1493856999392	2.36911	-11.052414	-0.473938
1493856999392	2.7138824	-11.252228	-1.5657501
1493856999392	3.647644	-11.571121	-2.8091888
1493856999392	4.230713	-12.594528	-3.7577362
1493856999392	3.7583923	-14.902237	-4.0444336
1493856999392	1.5957489	-16.283707	-3.1961517
1493856999392	-3.0029907	-14.933258	-2.1629791
1493856999392	-7.17717	-13.295288	1.7268829
1493856999392	-7.8685913	-12.950928	5.943222
1493856999392	-6.337097	-13.904877	4.7229156
1493856999392	-5.784439	-15.360504	0.8361206
1493856999392	-4.784363	-14.749359	-0.76190186
1493856999392	-0.6789093	-11.800064	-0.22572327
1493856999392	3.585205	-9.183212	1.2080078
1493856999392	3.443283	-8.280029	1.2621307
1493856999392	0.67536926	-7.252548	0.75138855
1493856999392	-1.6082611	-5.518585	1.3112488
1493856999392	-3.2808075	-4.1698	1.8553467
1493856999392	-4.036148	-3.382492	2.2933807
1493856999392	-3.8930511	-3.0738525	3.0677643
1493856999392	-3.128296	-3.1175385	3.2700348
1493856999392	-1.249939	-2.619629	3.5523834
1493856999392	0.1171875	-3.018036	3.4801788
1493856999392	0.6825409	-5.541687	1.9432373
1493856999392	1.6575775	-9.98143	-3.3288116
1493856999392	2.9914093	-17.027725	-15.316605
1493856999392	7.631378	-19.474823	-19.722397
1493856999392	5.0500946	-17.72844	-10.792023
1493856999393	-0.070755005	-10.290512	-2.795578
1493856999393	-3.796173	-3.4178772	2.7294006
1493856999393	-7.8582916	-8.120743	3.8996887
1493856999393	-5.189743	-13.315277	6.145111
1493856999393	-2.5279694	-13.0707855	-5.973877
1493856999393	0.8806915	-8.164703	2.2734222
1493856999393	-2.0835266	-3.439148	10.03624
1493856999393	-2.6502533	-7.0308075	5.232132
1493856999393	0.738266	-13.571533	2.9477234
1493856999393	2.2547913	-14.301239	3.234253
1493856999393	2.2495728	-10.696304	2.0182953
1493856999393	0.8656616	-9.459076	2.4168243
1493856999393	-0.012908936	-9.202866	1.869873
1493856999393	-0.59358215	-9.250916	1.558258
1493856999393	-0.6963196	-9.379364	1.7831726
1493856999393	-0.5338135	-9.165848	1.0803833
1493856999393	-0.9707184	-8.591202	1.5318604
1493856999393	-0.55548096	-8.328247	1.7031555
1493856999393	0.861496	-8.628693	0.6455231
1493856999393	2.4751434	-9.441544	0.44366455
1493856999393	2.5753937	-10.250565	0.9672241
1493856999393	1.6894531	-9.701813	-0.22512817
1493856999393	1.0665131	-10.38887	-1.2385254
1493856999393	1.8492584	-11.256134	-0.6695862
1493856999393	1.9712219	-12.099197	0.47592163
1493856999393	1.5479126	-12.20015	-2.5903778
1493856999393	2.4282532	-12.607269	-3.7823486
1493856999393	4.7180023	-12.804611	-2.3976135
1493856999393	4.8473663	-12.612854	-4.0556946
1493856999393	4.6858215	-14.519211	-5.15123
1493856999393	2.0207977	-15.880234	-4.011078
1493856999393	-2.8348083	-15.1094055	-1.4962006
1493856999393	-7.7536163	-12.938675	3.3083801
1493856999393	-8.01796	-12.542221	7.3223724
1493856999393	-5.7282257	-13.515274	3.5396576
1493856999393	-3.5119781	-14.844116	0.056884766
1493856999393	-2.0890808	-14.401016	-1.1381836
1493856999393	2.5679626	-11.497467	0.19674683
1493856999393	5.130783	-9.470627	1.2454529
1493856999393	3.0960846	-8.446869	0.7184143
1493856999393	0.7473602	-7.158142	0.17581177
1493856999393	-1.2829285	-5.659363	2.4402313
1493856999393	-2.9565887	-3.730896	3.203415
1493856999393	-4.2331085	-2.7233276	3.3006592
1493856999394	-4.3075256	-2.9460907	3.3853302
1493856999394	-3.3858795	-2.9550781	3.5560303
1493856999394	-2.438919	-2.4884033	3.7333832
1493856999394	-1.4152527	-2.7048187	3.0043488
1493856999394	-0.3158722	-5.2167664	0.55870056
1493856999394	-0.38768005	-11.698593	-10.113617
1493856999394	3.45578	-17.95604	-19.722397
1493856999394	7.7048035	-19.474823	-13.280823
1493856999394	4.1059113	-14.639709	-4.7160187
1493856999394	-0.19239807	-6.0076447	-1.9709778
1493856999394	-2.2310486	-1.4558105	1.0550537
1493856999394	-7.433197	-7.4840393	3.2613678
1493856999394	-8.301376	-14.3090515	4.793442
1493856999394	-2.0024261	-16.397705	-4.967453
1493856999394	1.2639923	-13.190491	0.4809265
1493856999394	-2.5761871	-8.194473	8.7504425
1493856999394	-5.434311	-5.8679657	5.9424286
1493856999394	-2.0894623	-7.161316	4.6696777
1493856999394	3.2169952	-10.308319	5.2439423
1493856999394	5.621353	-12.394058	2.689331
1493856999394	4.3052826	-12.07869	0.20503235
