accelerometer_timestamp	accelerometer_x_data	accelerometer_y_data	accelerometer_z_data
1493774770122	-4.1030426	2.5699615	8.106201
1493774770141	-4.622986	2.2158203	10.267181
1493774770161	-3.060669	2.4703674	12.822296
1493774770181	-2.0097046	2.5475159	11.261917
1493774770200	-2.8232117	2.2514648	8.135757
1493774770220	-3.823883	2.025299	6.8500977
1493774770239	-3.1816711	2.2370453	7.4408875
1493774770259	-1.83461	3.068344	8.02179
1493774770279	-1.8671265	3.3047638	8.324158
1493774770299	-2.6397095	2.8966217	8.295105
1493774770319	-2.5908508	2.7949219	7.441101
1493774770338	-1.8156586	3.2659302	6.093231
1493774770358	-1.5072327	3.81633	6.0935516
1493774770378	-1.6707306	3.6942444	7.5739746
1493774770398	-1.5150452	3.442398	7.888138
1493774770418	-1.1551056	4.1149445	6.696472
1493774770437	-1.1004333	4.8172455	6.3299255
1493774770457	-1.6982422	3.3859558	4.066681
1493774770477	-1.4809723	4.5688477	6.4259796
1493774770497	-0.6347046	4.7259216	8.953949
1493774770517	-0.8122711	4.5811462	9.302872
1493774770536	-1.161377	4.077133	8.895599
1493774770556	-1.1812134	3.2708588	7.6308136
1493774770576	-0.67025757	3.1520538	8.107819
1493774770595	-0.26353455	3.7615662	10.991058
1493774770615	0.2930603	3.565796	10.443893
1493774770635	0.04914856	3.7029724	8.383057
1493774770655	-0.21473694	4.0599976	6.8459167
1493774770675	-0.1931305	4.465988	8.101044
1493774770694	0.13093567	4.009613	8.473694
1493774770714	0.46043396	3.6345673	8.555267
1493774770734	0.14535522	3.6480255	8.048523
1493774770754	0.46102905	4.5662537	7.308792
1493774770773	0.6300049	4.681122	7.3397217
1493774770793	0.1570282	4.0672455	7.8685455
1493774770813	-1.8519135	3.4550323	7.8588104
1493774770853	0.124298096	3.7984772	8.205978
1493774770872	1.1424713	4.7077026	7.4493713
1493774770892	0.6909485	4.818283	7.1946716
1493774770912	-0.029708862	4.4704285	8.446335
1493774770932	-0.5480652	4.026764	8.354095
1493774770952	-0.443161	4.188843	8.144287
1493774770971	-0.25950623	4.606888	7.703232
1493774770991	-0.4744568	4.602936	7.582535
1493774771011	-0.8610077	4.435379	8.451492
1493774771031	-1.3000488	4.1492004	8.647629
1493774771050	-1.4420929	4.038727	8.817627
1493774771070	-0.88264465	4.460327	9.070297
1493774771090	-0.70654297	4.713379	8.560257
1493774771110	-0.81973267	4.745926	8.283142
1493774771129	-1.0865479	4.528412	8.733734
1493774771149	-1.0962219	4.5493774	8.682953
1493774771169	-0.7608948	4.639023	8.852493
1493774771189	-0.515213	4.813629	8.674789
1493774771209	-0.5661011	4.7489624	7.328354
1493774771228	-0.6042023	4.301956	7.213623
1493774771248	-0.6896057	3.710495	9.077911
1493774771268	-0.6808777	3.6590881	9.333008
1493774771288	-0.06956482	3.969864	9.211517
1493774771307	0.47546387	4.1225586	9.193069
1493774771327	0.43891907	4.5207825	8.972397
1493774771347	0.3677826	4.7890472	9.616623
1493774771367	0.16661072	4.6454773	10.6644745
1493774771387	-0.02407837	4.6657104	10.700531
1493774771406	-0.29130554	4.640274	10.3367
1493774771426	-0.26957703	4.911804	9.214935
1493774771446	0.59506226	5.7317047	7.3833923
1493774771466	0.9268799	5.676132	7.0710754
1493774771486	0.596756	4.574585	8.453644
1493774771518	0.19187927	3.9752655	9.847687
1493774771525	1.1380768	3.4995117	9.169418
1493774771545	1.5145416	4.032303	7.372177
1493774771565	1.7917938	4.5240173	6.7792664
1493774771584	1.4518127	4.528961	7.222885
1493774771604	1.0408936	4.184326	7.547165
1493774771625	0.7140045	3.9029999	7.710083
1493774771644	1.6080475	3.9675598	7.751877
1493774771664	1.7483215	4.226349	6.504959
1493774771683	1.9467316	3.8810272	7.3444366
1493774771703	1.9017181	2.4146729	7.505554
1493774771723	1.7758026	0.673645	5.3800964
1493774771743	1.4234009	-1.6183777	3.7143707
1493774771762	1.6864471	-1.8006134	3.1944122
1493774771782	-0.05607605	-3.3813782	-0.17102051
1493774771802	-1.4655304	-5.148926	-2.4972687
1493774771822	-0.4902954	-6.623596	-2.3788757
1493774771842	1.144104	-8.571167	-2.075714
1493774771861	4.726074	-12.171204	0.4785614
1493774771881	7.872818	-13.610764	2.032364
1493774771901	12.6392975	-13.613052	1.128891
1493774771921	17.39766	-13.170593	7.4506683
1493774771960	19.461044	-9.946793	8.331131
1493774771980	19.461044	-6.340378	10.208649
1493774772000	19.461044	-2.0111694	9.126678
1493774772019	19.461044	-0.7895355	8.707809
1493774772039	19.461044	-2.1286774	8.003021
1493774772059	19.461044	-2.6544037	1.4819794
1493774772079	18.075897	3.974533	-18.732727
1493774772099	8.430008	-6.1734924	-9.420746
1493774772118	7.5674286	-8.466522	4.3132324
1493774772138	5.7995605	-5.419815	-0.23318481
1493774772158	9.29422	-5.8522797	1.9215698
1493774772178	12.450806	-4.0518494	-0.03036499
1493774772197	10.75528	-3.0941925	0.94992065
1493774772217	4.925003	-8.409271	0.14984131
1493774772238	3.811554	-8.177475	0.52075195
1493774772257	4.9471283	-7.6191864	-0.5123749
1493774772277	3.8578339	-8.485123	-2.1474
1493774772296	2.3414154	-8.095779	-2.032364
1493774772316	0.052841187	-7.3402405	-1.2498474
1493774772336	-0.9728241	-7.481415	-1.8685303
1493774772356	2.7462158	-6.499176	0.7134094
1493774772376	10.151886	-2.3755646	5.968857
1493774772395	8.717529	-4.200119	4.2499847
1493774772415	7.762268	-6.138489	-0.04096985
1493774772435	7.2966003	-8.503204	-1.0870667
1493774772454	9.03038	-11.31926	0.7557068
1493774772474	8.104736	-13.396881	0.3759308
1493774772494	5.736786	-12.767654	-4.5995483
1493774772515	8.409653	-9.789703	-5.862335
1493774772534	3.478241	-14.778915	-3.2299805
1493774772553	1.3516235	-12.370178	-1.5860596
1493774772573	3.9207916	-7.751129	-0.923584
1493774772593	4.2701874	-9.146042	-2.0618134
1493774772613	4.5711517	-8.911728	-1.3741455
1493774772633	3.6828003	-8.181076	-2.1390228
1493774772652	3.908615	-8.156815	-1.5518646
1493774772672	3.7488556	-8.011719	-1.2117004
1493774772692	2.8902283	-8.5972595	-2.0988464
1493774772712	2.466751	-8.893066	-1.9384155
1493774772731	0.9057007	-3.3722534	-4.884308
1493774772751	1.2089081	-5.6071625	-1.9332123
1493774772771	1.3086395	-5.777649	-2.2144165
1493774772791	2.9777222	1.1276855	-3.4007568
1493774772810	-0.01272583	1.9721527	-3.0952759
1493774772830	3.118805	-0.6375885	-2.159378
1493774772850	0.88635254	-8.137222	-8.763351
1493774772870	-0.966095	-8.962585	-4.086548
1493774772890	2.0426025	-8.52652	-3.8159027
1493774772909	3.2435455	1.335556	0.8851929
1493774772929	3.4825897	-10.634781	-0.24676514
1493774772949	3.1875305	-16.925247	1.1455994
1493774772969	1.107666	-19.370148	2.417923
1493774772989	3.4973297	-15.325058	0.32060242
1493774773008	-1.4851379	-14.0082245	-1.4752045
1493774773048	-1.6832428	-11.784134	1.6170044
1493774773068	-2.903122	-10.586365	0.68022156
1493774773088	-2.4071198	-10.204559	0.28059387
1493774773107	-0.20544434	-7.8875427	2.1709747
1493774773127	1.6302795	-8.695267	1.1915588
1493774773147	1.6504822	-9.6622925	2.3147125
1493774773167	1.7702179	-10.369446	0.85562134
1493774773186	1.1376038	-10.712433	1.5730896
1493774773206	0.06616211	-10.111404	2.2379456
1493774773226	-0.85910034	-10.931992	2.093048
1493774773246	-1.3453064	-10.601959	1.6727448
1493774773265	-0.9216919	-10.132767	1.7266388
1493774773285	-0.15657043	-9.955795	1.7190399
1493774773305	0.42227173	-9.845993	2.0760498
1493774773325	0.2765808	-9.802994	2.4994202
1493774773345	0.6325836	-9.698273	2.6802368
1493774776297	0.65808105	-9.997284	2.4018707
1493774776297	0.5864563	-9.9453125	2.1665497
1493774776297	0.06518555	-9.782837	1.7331085
1493774776297	0.019058228	-9.410126	1.3245239
1493774776297	0.3421173	-9.169159	1.4774017
1493774776297	0.6382446	-9.160522	1.755188
1493774776297	1.1191711	-9.136505	1.6887512
1493774776297	1.615387	-9.215317	2.048706
1493774776297	1.7485504	-9.434937	2.1195068
1493774776297	1.6299438	-9.732452	1.5776215
1493774776298	1.4124908	-9.8519745	1.1728363
1493774776298	1.3616943	-9.884277	0.90953064
1493774776298	1.5442657	-9.967621	0.8785858
1493774776298	1.6328735	-10.2526245	0.9013214
1493774776298	1.9447784	-11.058685	0.70803833
1493774776298	2.3144531	-11.472504	0.27038574
1493774776298	2.224884	-11.3954315	-0.4242096
1493774776298	2.0144196	-11.323257	-0.69551086
1493774776298	1.0863953	-11.348877	-0.74487305
1493774776298	-0.14894104	-11.983582	-1.1511078
1493774776298	-1.9386292	-12.596115	-2.0053864
1493774776298	-4.0121307	-12.270294	-3.3588715
1493774776298	-5.089035	-11.227951	-1.6570282
1493774776298	-5.1106567	-10.766434	0.425766
1493774776298	-4.1331177	-10.723099	1.8664246
1493774776298	-4.477295	-10.844696	1.5226593
1493774776298	-2.6412048	-10.765121	-0.64871216
1493774776298	0.23632813	-10.706711	-0.9623871
1493774776298	0.68434143	-10.787674	-2.0923462
1493774776299	-0.7384796	-10.429138	-2.0840302
1493774776299	-2.026703	-9.245697	-0.85627747
1493774776299	-3.0839233	-7.732666	-0.55241394
1493774776299	-4.6795197	-7.3045197	-2.0769348
1493774776299	-4.464203	-7.8186493	-3.1669617
1493774776299	-3.300644	-8.427185	-2.5618439
1493774776299	-2.2805939	-8.157043	-1.4924774
1493774776299	-1.2929688	-7.724304	-1.5048981
1493774776299	-0.06777954	-7.5038147	-2.5643616
1493774776299	0.575943	-8.015137	-3.5144806
1493774776299	0.99328613	-7.6846924	-3.7379456
1493774776299	1.1330872	-6.6155396	-4.1857147
1493774776299	0.49472046	-5.9612427	-4.3622894
1493774776299	0.44958496	-5.1212616	-4.309845
1493774776299	-0.0053710938	-5.4904785	-4.2868805
1493774776299	0.26150513	-5.9235077	-3.9636688
1493774776299	-0.13882446	-6.067032	-3.2501373
1493774776299	-0.7022095	-5.9208984	-3.00354
1493774776299	-0.6665039	-6.4893036	-3.6049194
1493774776299	0.03161621	-7.635956	-4.5328827
1493774776299	0.6509552	-9.779251	-6.0167694
1493774776299	1.2255402	-11.843033	-7.719757
1493774776299	0.87623596	-11.909317	-8.250076
1493774776299	0.21247864	-11.006119	-7.527542
1493774776299	-0.059158325	-10.172028	-6.697342
1493774776299	-0.04081726	-9.128326	-5.677124
1493774776299	-0.70732117	-8.113876	-4.0380096
1493774776300	-2.5849152	-9.483444	-2.2270966
1493774776300	-3.196518	-13.753815	-1.3434296
1493774776300	-2.7516174	-16.906357	-1.0345306
1493774776300	-2.1491241	-14.646149	-1.5550842
1493774776300	-1.9762573	-8.580765	-2.286789
1493774776300	-2.3978577	-5.514511	1.7576294
1493774776300	-2.344223	-5.4861298	3.0672913
1493774776300	-1.170227	-8.06337	2.947464
1493774776300	0.58206177	-10.811874	4.0723267
1493774776300	3.272461	-11.97023	3.6847382
1493774776300	4.8482513	-11.503128	1.8455048
1493774776300	3.650711	-10.227142	1.0567474
1493774776300	1.5213776	-9.428207	1.3830719
1493774776300	0.41261292	-9.839905	1.1563263
1493774776300	0.7805176	-10.382126	0.8328552
1493774776300	0.5015869	-10.41185	0.980484
1493774776300	-0.54063416	-10.196472	1.3903351
1493774776300	-0.7742462	-10.082626	1.9519501
1493774776300	-0.056289673	-10.281158	2.2026367
1493774776300	1.0653687	-9.789154	1.9058685
1493774776300	1.4486694	-9.453125	1.7307129
1493774776300	1.1965027	-9.23877	1.2271118
1493774776300	0.47885132	-8.894943	0.6227417
1493774776300	0.3583374	-8.515244	0.7225189
1493774776300	0.7944336	-8.267883	1.1471558
1493774776300	1.2405701	-8.535202	1.0053558
1493774776300	1.3107758	-9.307846	0.7155304
1493774776301	1.6319733	-9.703003	0.03616333
1493774776301	1.9590302	-9.381714	0.112091064
1493774776301	1.1726074	-9.781479	0.1998291
1493774776301	0.31288147	-10.148544	-0.35238647
1493774776301	0.37731934	-11.24707	-0.45324707
1493774776301	0.9083252	-12.58255	-0.5970154
1493774776301	1.4182892	-13.372742	-1.4981384
1493774776301	2.388855	-14.012482	-1.5117645
1493774776301	1.8277893	-13.973923	-1.1896515
1493774776301	1.5053711	-13.257278	-1.3840485
1493774776301	0.1949768	-11.97937	-2.643158
1493774776301	-1.6604004	-11.5217285	-3.4722443
1493774776301	-2.5667572	-11.448715	-2.6952667
1493774776301	-2.8748474	-10.231476	2.5518036
1493774776301	-4.232834	-10.624634	3.3438263
1493774776301	-3.9893494	-12.759384	2.3431091
1493774776301	-1.622757	-12.759537	2.0106354
1493774776301	1.6014252	-12.379715	1.2025146
1493774776301	2.8815155	-12.277374	-3.0850525
1493774776302	2.6632385	-11.776627	-1.2095337
1493774776302	1.9645691	-10.414963	0.25346375
1493774776302	-0.5362549	-8.889191	1.149704
1493774776302	-2.0062103	-7.085541	1.3620453
1493774776302	-2.7229614	-6.4361267	0.64733887
1493774776302	-2.2955017	-6.4432526	-0.36613464
1493774776302	-2.153885	-5.4823	-0.34855652
1493774776302	-2.7168732	-4.0114136	1.0587463
1493774776302	-3.0400848	-3.1083221	2.4435272
1493774776302	-2.3115692	-3.3240356	2.595871
1493774776302	-1.3005219	-3.8160248	1.4465942
1493774776302	-0.3636322	-4.693619	-0.9120331
1493774776302	2.1060333	-8.287613	-5.402481
1493774776302	4.846451	-14.0056305	-11.673462
1493774776302	5.642456	-17.947891	-14.754562
1493774776302	6.283676	-16.658539	-11.281158
1493774776302	4.5044556	-11.895935	-6.777466
1493774776302	1.8855286	-6.8250427	-5.1389313
1493774776302	-0.682312	-5.5879517	-2.7804718
1493774776302	-3.2144623	-12.581223	0.05970764
1493774776302	-3.5172577	-18.399292	0.69747925
1493774776302	-2.552765	-14.849426	-2.136032
1493774776302	-4.4205475	-7.0119324	1.8864136
1493774776302	-8.4270935	-1.2388916	7.9314575
1493774776302	-5.1044464	-5.100067	9.717331
1493774776302	2.5595245	-12.741653	6.5878754
1493774776302	4.509201	-15.459091	3.7932587
1493774776303	2.6399536	-13.671402	2.4975586
1493774776303	0.3966217	-10.987762	1.6416321
1493774776303	-0.4812622	-10.23671	1.1960602
1493774776303	-0.93429565	-10.027496	0.5290222
1493774776303	-0.8067627	-9.262329	0.3692932
1493774776303	-0.655777	-8.622528	-0.90586853
1493774776303	-0.6207733	-8.188965	-0.102752686
1493774776303	-0.25576782	-7.883026	0.042526245
1493774776303	0.25630188	-8.012772	0.2285614
1493774776303	0.70137024	-8.277863	0.99406433
1493774776303	0.7142334	-8.396896	1.4183044
1493774776303	0.6302643	-8.797211	1.1764374
1493774776303	0.8342743	-9.496994	0.15571594
1493774776303	1.6762085	-9.875153	-1.4850464
1493774776303	2.3151703	-10.431	-0.86294556
1493774776303	1.227066	-10.9357605	-1.161911
1493774776303	0.6284027	-11.679794	-1.8540039
1493774776303	2.1085815	-12.170029	-1.3507843
1493774776303	2.1775055	-12.098984	-1.6572113
1493774776303	1.1021881	-13.431107	-3.7987518
1493774776303	1.9049225	-15.237549	-3.0993042
1493774776312	1.6926575	-15.60289	-3.8719177
1493774776331	0.37446594	-13.8582	-3.6461182
1493774776351	-2.8762665	-12.820465	-1.1351013
1493774776371	-5.021515	-12.890305	3.6394958
1493774776391	-5.0723114	-15.025436	4.824234
1493774776410	-3.2866516	-15.561966	2.0696564
1493774776430	-0.082901	-14.359573	-1.4021912
1493774776450	2.9998932	-13.007019	-2.0701904
1493774776470	2.938568	-11.074844	-0.1124115
1493774776489	-0.7777252	-8.913193	1.2299194
1493774776509	-1.0837097	-7.582962	2.236206
1493774777296	-2.0251312	-6.0405884	2.7695313
1493774777296	-2.645691	-4.669525	3.2911377
1493774777296	-3.0274963	-3.8989258	2.755371
1493774777296	-3.2687225	-3.40773	2.1674347
1493774777296	-3.4521027	-3.1430206	2.2946167
1493774777296	-3.52948	-2.682846	2.4571228
1493774777296	-2.469284	-2.324356	2.491562
1493774777296	-1.0684967	-2.9064636	1.3128815
1493774777296	-0.5486603	-6.485138	-3.1312103
1493774777296	1.41362	-13.957108	-12.44722
1493774777297	4.4825745	-19.474823	-18.331131
1493774777297	4.30632	-18.640778	-12.4048
1493774777297	1.8721466	-12.369553	-3.9622498
1493774777297	-1.0286407	-3.7760315	-2.2886047
1493774777297	-5.117752	-4.837845	-3.1958618
1493774777297	-6.3805237	-11.202469	-0.2341156
1493774777297	-3.2670288	-14.781326	1.7371979
1493774777297	2.4854584	-14.410217	-0.15545654
1493774777297	3.1976013	-7.236023	6.332382
1493774777297	-5.2790833	-2.1054993	7.4197083
1493774777297	-5.765915	-6.264908	5.9173584
1493774777297	0.6798096	-11.985718	5.5761566
1493774777297	3.3423462	-14.455032	4.2069855
1493774777297	2.2504272	-14.0793	2.5758057
1493774777297	-1.0870667	-11.616547	2.0883484
1493774777297	-1.4979095	-10.664154	0.4591217
1493774777297	-1.0136719	-9.834396	0.6308899
1493774777297	-0.99694824	-8.603256	1.6066742
1493774777297	-0.98999023	-8.019409	1.7640533
1493774777297	-0.62498474	-8.012375	1.2572174
1493774777297	0.62060547	-8.123718	0.52238464
1493774777297	1.7144165	-8.4266205	0.12779236
1493774777298	1.1710052	-9.305862	-0.007522583
1493774777298	0.95059204	-9.858154	0.19900513
1493774777298	1.2585754	-10.172226	0.41555786
1493774777298	1.8091736	-10.615265	-0.88067627
1493774777318	3.2141724	-10.2947235	-2.378891
1493774777338	3.7333374	-10.3997345	-2.994812
1493774777357	2.3105316	-10.785873	-2.0357208
1493774777377	1.8413849	-11.7391205	-1.5956268
1493774777397	2.460617	-11.818817	-1.4743652
1493774777437	1.0839844	-12.100555	-3.952118
1493774777456	1.8220978	-13.739502	-1.8645935
1493774777476	0.110198975	-14.963806	-3.6139984
1493774777496	-1.1678772	-14.291611	-2.186493
1493774777516	-2.966156	-12.683914	3.34021
1493774779301	-4.0522614	-12.7435	6.215805
1493774779301	-4.089676	-15.514877	3.5398865
1493774779301	-3.3707733	-17.403671	-0.10952759
1493774779301	-0.9033661	-15.557907	-2.9470673
1493774779302	3.255066	-13.460373	-1.0908661
1493774779302	2.212143	-10.972458	0.83943176
1493774779302	1.0451813	-9.426117	1.1392059
1493774779302	-0.8417053	-7.8972473	2.3283997
1493774779302	-1.5824738	-6.315628	3.0119476
1493774779302	-1.6849823	-5.154907	3.0515442
1493774779302	-2.1082153	-4.743225	2.6291046
1493774779303	-2.7672424	-4.320801	2.3397675
1493774779303	-3.2100983	-3.5483398	2.6209106
1493774779303	-3.118515	-2.3208313	3.199234
1493774779303	-2.44339	-1.540329	2.7946625
1493774779303	-1.537857	-2.5115051	1.03479
1493774779303	-0.9434967	-6.1225433	-3.4492645
1493774779304	1.0363617	-13.656464	-12.738113
1493774779304	4.152954	-19.474823	-18.940979
1493774779304	3.716568	-17.07576	-11.441483
1493774779304	1.8036957	-8.975494	-1.2592621
1493774779304	-2.3048706	-3.791626	-1.3687439
1493774779306	-5.4170227	-10.769897	-4.163208
1493774779306	-1.1396942	-16.931519	-0.060409546
1493774779306	1.7695618	-15.129883	1.6831207
1493774779307	-1.3990784	-7.364105	4.199463
1493774779310	-5.3187714	-1.4754486	7.324356
1493774779310	-1.9940186	-6.6180573	5.9736786
1493774779311	3.5968475	-12.130692	4.7313538
1493774779311	4.4973145	-14.4921875	4.002243
1493774779311	1.6349182	-12.930527	2.852066
1493774779311	-1.7705841	-10.285431	2.2730255
1493774779311	-3.5729523	-9.427719	0.62438965
1493774779311	-4.065445	-9.576004	-0.4416809
1493774779312	-3.231659	-9.42305	-0.9243927
1493774779312	-1.1721039	-9.016968	-0.6331787
1493774779312	0.4007721	-8.405457	-0.36662292
1493774779312	0.7346802	-7.7156677	0.20166016
1493774779312	0.9829407	-8.053864	0.69132996
1493774779312	1.0684814	-9.043655	0.6779175
1493774779313	1.209549	-9.648087	0.025665283
1493774779313	1.6898499	-9.437698	-0.5853424
1493774779313	1.4888458	-9.728622	-1.411911
1493774779313	0.7657013	-10.596634	-1.7076263
1493774779313	0.3567505	-11.563843	-1.7453918
1493774779314	0.3143463	-11.907791	-2.4811401
1493774779314	0.82917786	-11.458206	-3.152649
1493774779316	1.5827942	-11.968735	-3.9259033
1493774779316	4.066086	-14.0342865	-3.3750916
1493774779316	3.9915009	-16.555267	-3.301529
1493774779316	1.9026489	-14.082336	-1.6051483
1493774779316	-2.0637207	-14.371445	-2.336563
1493774779316	-5.615921	-13.589661	2.7540894
1493774779316	-4.449814	-11.777985	8.74675
1493774779317	-4.0065613	-13.789429	7.9853516
1493774779317	-3.3773499	-15.449387	-0.3979187
1493774779317	-2.9471893	-14.955231	-3.6510925
1493774779317	0.44137573	-12.223694	-0.50997925
1493774779317	2.4800262	-9.73642	1.1082611
1493774779318	0.66604614	-7.5614014	1.6872101
1493774779318	-1.5168304	-6.1693726	2.4688873
1493774779318	-2.6632538	-5.580139	3.1689606
1493774779318	-3.0715332	-4.9625854	3.1765442
1493774779319	-2.8768463	-4.6907196	2.1768646
1493774779319	-2.4180145	-4.56662	1.6044159
1493774779319	-2.636673	-3.911972	1.1051483
1493774779319	-1.976593	-4.635254	0.061950684
1493774779319	0.37677002	-7.7687836	-1.7144318
1493774779320	0.8873596	-11.75148	-5.900421
1493774779320	-1.4610901	-13.437012	-9.839096
1493774779320	-2.7649384	-12.379288	-8.6050415
1493774779320	-2.276413	-11.729813	-5.0483246
1493774779320	-2.799591	-11.993454	-3.5245056
1493774779321	-2.7733307	-11.806686	-3.3463135
1493774779321	-2.0499268	-11.086426	-3.1567383
1493774779322	-2.1321259	-12.141678	-1.6257477
1493774779322	-2.7895203	-11.859192	4.178009
1493774779322	-4.495102	-9.098175	6.4650726
1493774779322	-3.8235168	-7.9508057	3.2380981
1493774779322	0.90460205	-9.434784	1.6547852
1493774779322	1.9962769	-10.6792755	1.6701202
1493774779323	0.5185394	-10.465515	1.1148529
1493774779339	-0.15254211	-10.511383	0.63494873
1493774779360	-0.976532	-10.581802	0.266037
1493774779378	-1.7849579	-10.321472	-0.38467407
1493774779401	-2.1309814	-10.022491	-0.7224884
1493774779418	-1.223114	-9.850082	-1.3248749
1493774779438	-0.02720642	-9.943665	-1.2184906
1493774779460	-0.3690796	-9.847763	-0.8277893
1493774779478	-1.2645111	-9.516327	-0.6275635
1493774779498	-1.4679108	-9.310654	-0.47927856
1493774779516	-1.3199158	-9.318954	-0.7623749
1493774779532	-1.3983765	-9.363281	-0.90534973
1493774779554	-1.5923309	-9.564224	-0.91567993
1493774805303	-1.2743073	-9.847916	-0.81562805
1493774805303	-0.2244873	-9.838684	-0.2511902
1493774805303	0.52085876	-9.950775	-0.018997192
1493774805303	0.814209	-10.133942	0.27648926
1493774805303	0.9354553	-10.358124	-0.23855591
1493774805303	1.0380707	-10.497055	-0.6717377
1493774805303	0.83392334	-10.376404	-0.6559906
1493774805303	0.6021881	-10.2939	-0.9302521
1493774805303	0.4960785	-10.03746	-0.6526642
1493774805303	0.36621094	-9.558243	-0.5852356
1493774805304	0.9763336	-9.268448	-0.34484863
1493774805304	1.2702332	-9.750137	-0.6925659
1493774805304	1.3325348	-10.101913	-0.17233276
1493774805304	0.88090515	-10.329407	0.22741699
1493774805304	0.10525513	-10.329605	0.40208435
1493774805304	0.27241516	-9.495041	0.8576813
1493774805304	0.92640686	-8.806488	2.0114899
1493774805304	-0.115982056	-9.318024	2.5469818
1493774805304	-1.5780029	-10.462021	1.097702
1493774805304	-1.9886932	-11.43074	-0.35473633
1493774805304	-1.4021454	-11.666199	-3.0074615
1493774805304	-0.4454651	-11.591888	-5.286972
1493774805304	0.53608704	-10.567078	-3.64682
1493774805305	0.04194641	-9.248627	-1.3934937
1493774805305	-0.73335266	-8.904114	-0.81217957
1493774805305	-0.110672	-9.531448	-2.02565
1493774805305	1.5284729	-10.459106	-3.6449127
1493774805305	3.2936554	-11.8867035	-3.5379028
1493774805305	3.232315	-12.070114	-0.26757813
1493774805305	0.908905	-10.918274	1.5696411
1493774805305	-1.320282	-9.785156	-0.22203064
1493774805305	-3.343216	-9.042618	-1.5775757
1493774805305	-3.7369537	-8.714081	-1.5541534
1493774805305	-3.0823975	-8.753006	-1.8439941
1493774805305	-2.134903	-8.852356	-1.6891327
1493774805305	-1.3112793	-9.07283	-1.5151978
1493774805306	-0.6938324	-9.162491	-1.6225739
1493774805306	-0.008377075	-8.968872	-2.216858
1493774805306	0.28808594	-8.733017	-2.6576233
1493774805306	0.152771	-8.733765	-2.86763
1493774805306	-0.007293701	-9.040558	-3.3230743
1493774805306	-0.09529114	-9.120819	-3.7328339
1493774805306	-0.05430603	-8.443298	-3.7686615
1493774805306	0.14176941	-7.5478973	-3.940979
1493774805306	0.5042572	-6.9774933	-4.0943756
1493774805306	0.11758423	-6.604767	-4.648575
1493774805306	-0.68585205	-7.007126	-5.6551666
1493774805306	-0.27574158	-7.7908783	-6.1130066
1493774805307	2.3993835	-7.639282	-5.319397
1493774805307	3.7525177	-5.839264	-4.320923
1493774805307	3.986786	-3.506134	-2.5525665
1493774805307	0.9842377	-5.867935	-0.38546753
1493774805307	-3.292633	-16.763	-8.116547
1493774805307	-0.45843506	-19.474823	-8.937012
1493774805307	-4.2766876	-8.449966	1.026535
1493774805307	-9.3732605	-1.3364258	5.181656
1493774805307	-5.005661	-2.564911	0.50268555
1493774805307	2.1019745	-8.55838	2.6155853
1493774805307	3.5214844	-13.690033	2.703354
1493774805307	3.695694	-13.044205	1.2830353
1493774805307	1.8894806	-10.476593	0.77474976
1493774805308	0.57810974	-8.820984	1.3874054
1493774805308	-0.12931824	-9.5217285	1.6277466
1493774805308	0.21522522	-10.350525	0.90982056
1493774805308	0.96839905	-10.360062	0.3193817
1493774805308	0.4452362	-10.327393	0.5477905
1493774805308	0.45791626	-10.400787	0.9738312
1493774805342	0.43341064	-9.984329	1.495224
1493774805342	0.4446411	-10.38002	1.3496552
1493774805342	0.5176239	-10.473145	0.94355774
1493774805342	0.66329956	-9.4925995	0.86968994
1493774805342	0.40496826	-8.543304	0.5279541
1493774805342	1.5161133	-8.468765	0.2129364
1493774805343	2.409607	-8.718277	1.8434906
1493774805343	1.1836853	-8.984009	1.9020233
1493774805343	0.22846985	-8.835617	1.3804626
1493774805343	-0.10934448	-9.218048	1.1914825
1493774805343	-0.5673981	-10.211014	1.2224884
1493774805343	-0.78622437	-11.483368	0.48880005
1493774805343	-0.4589386	-12.133713	-0.37231445
1493774805343	0.03250122	-12.115356	-0.43052673
1493774805343	-0.13623047	-12.134293	-0.5972748
1493774805343	-0.47842407	-12.01857	-1.9129181
1493774805343	0.9254761	-11.861481	-2.569336
1493774805343	2.5078125	-12.93782	-1.849884
1493774805344	1.5713806	-13.961288	-2.1618958
1493774805344	-0.8805542	-13.047699	-2.4323883
1493774805344	-3.8706207	-11.870682	-0.73358154
1493774805344	-4.8567047	-11.5481415	2.9335175
1493774805344	-5.3447266	-12.632797	3.9139252
1493774805344	-4.853653	-13.723251	2.9196625
1493774805344	-4.005966	-13.170303	0.10877991
1493774805344	-1.8112793	-12.265549	-1.7763672
1493774805344	-0.0011749268	-11.517593	-2.4754333
1493774805344	0.047592163	-9.922165	0.031143188
1493774805344	-0.9189453	-8.4900055	0.7245331
1493774805344	-2.6615295	-7.1943817	0.71847534
1493774805345	-3.5171204	-6.214615	0.68470764
1493774805345	-2.910492	-5.625473	0.48358154
1493774805345	-2.0543365	-5.186157	0.5883179
1493774805345	-1.2264252	-5.0133057	0.993515
1493774805345	-1.0064087	-4.292877	1.9747925
1493774805345	-1.145462	-3.5502167	2.713028
1493774805345	-0.6638031	-3.4917908	2.2270355
1493774805345	-0.0851593	-3.855774	0.7406006
1493774805345	0.24012756	-6.0883484	-2.281067
1493774805345	2.2347107	-10.817917	-7.028763
1493774805345	2.9230347	-17.406082	-13.293503
1493774805345	4.901306	-19.38411	-14.662048
1493774805345	2.3976288	-15.694931	-7.577545
1493774805346	-0.46447754	-8.915848	-4.8724823
1493774805346	-3.0697021	-2.5784912	-1.9121094
1493774805346	-5.487793	-5.091324	3.3058777
1493774805346	-4.3293457	-13.765121	5.6939697
1493774805346	-1.9277039	-17.160706	-3.5507202
1493774805346	-1.8466492	-17.853745	-8.142532
1493774805346	-2.0703735	-7.186783	11.676971
1493774805346	-12.314545	-3.2373962	7.4829407
1493774805346	-3.486679	-6.25795	6.4165955
1493774805346	5.2861633	-12.008743	6.538849
1493774805346	4.3974304	-14.922714	5.2511444
1493774805348	1.6969299	-12.604797	2.4235992
1493774805348	-1.040863	-10.476303	0.84407043
1493774805348	-0.71321106	-9.41832	0.12945557
1493774805348	-1.4733276	-9.217758	0.5128021
1493774805348	-1.1418304	-8.847565	1.1951141
1493774805348	-1.5836792	-8.5372925	1.0121918
1493774805348	-0.15419006	-8.96434	0.50135803
1493774805349	0.9619446	-8.964203	0.7132416
1493774805349	1.1248932	-9.504257	0.67289734
1493774805349	1.2690277	-9.921829	0.86486816
1493774805349	1.3041992	-9.777939	0.6558838
1493774805349	1.5288696	-9.368607	-0.43730164
1493774805349	2.4123383	-9.124863	-0.5307007
1493774805349	2.512085	-9.660049	0.30018616
1493774805349	1.9278412	-10.494858	0.28311157
1493774805349	1.9985199	-11.74411	-0.42907715
1493774805349	2.5765533	-12.488007	-0.8332062
1493774805349	1.3224335	-13.083694	-2.4302673
1493774805349	0.37997437	-13.617401	-3.4444275
1493774805350	1.4492188	-13.428024	-3.2719574
1493774805350	1.0420837	-13.247086	-4.4727936
1493774805350	-1.5529938	-12.714767	-3.6418457
1493774805350	-4.3391266	-12.303513	0.5989227
1493774805350	-6.1243744	-13.293472	4.287735
1493774805350	-5.87529	-14.793381	4.3841705
1493774805350	-4.641632	-14.916718	1.0268707
1493774805350	-3.0725403	-14.110748	-1.6950989
1493774805350	0.46165466	-13.251221	-2.0314941
1493774805350	1.9733734	-11.845337	-1.3907928
1493774805350	0.6886444	-9.685135	0.41581726
1493774805350	-0.94581604	-7.1284485	2.0998688
1493774805351	-2.2757874	-5.520859	2.8684235
1493774805351	-3.0755463	-4.676178	2.328354
1493774805351	-3.12471	-4.030533	1.5112457
1493774805351	-2.684372	-3.7469635	1.084137
1493774805351	-2.5540771	-3.3195496	1.5131683
1493774805351	-2.3522797	-2.4408264	1.9908905
1493774805351	-0.9079895	-2.6009521	1.6035614
1493774805351	-1.1968231	-3.2170563	0.9861908
1493774805351	-1.0968628	-5.8865356	-3.0396423
1493774805351	-1.0238342	-12.837723	-12.041443
1493774805351	-0.50032043	-18.6082	-16.192947
1493774805351	-0.837677	-19.474823	-14.4201355
1493774805351	-0.13693237	-12.446671	-5.3378754
1493774805352	-3.6464844	-4.7654724	-1.6376343
1493774805352	-9.905502	-9.779816	-2.5638275
1493774805352	-8.895111	-13.2708435	-1.256424
1493774805352	-2.7661743	-13.142258	0.52342224
1493774805352	6.536789	-7.508835	4.506668
1493774805352	5.7673492	-3.2066345	12.132828
1493774805352	-5.1933136	-6.6020355	2.829483
1493774805352	-1.4543762	-9.925903	6.3787384
1493774805352	0.8589783	-13.60997	2.8001251
1493774805352	3.8097534	-13.999588	2.361679
1493774805352	0.36106873	-10.610275	2.6165314
1493774805352	-1.2306366	-9.647919	2.7781067
1493774805352	-1.1187134	-9.900879	1.1157379
1493774805353	-1.4227905	-9.796295	-0.20150757
1493774805353	-1.9226532	-9.746292	-0.079071045
1493774805353	-1.3456573	-9.037552	0.4066162
1493774805353	0.11936951	-8.260208	0.78593445
1493774805353	1.5904541	-8.416794	1.1911163
1493774805353	1.9837952	-8.948563	1.7916718
1493774805353	1.0340424	-9.298157	1.6410828
1493774805353	0.7013092	-9.291702	0.6598511
1493774805353	1.0134735	-9.910889	-0.1634674
1493774805353	1.4851685	-10.482452	-0.78240967
1493774805353	1.9017334	-10.822968	-1.8181915
1493774805353	2.0255585	-11.532211	-2.1988068
1493774805354	1.3066864	-12.064392	-1.945755
1493774805354	1.2859955	-11.943329	-1.942337
1493774805354	1.7367554	-11.671799	-1.6159363
1493774805354	0.81088257	-11.766281	-2.5190277
1493774805354	1.1577911	-12.811279	-3.401886
1493774805354	2.5756683	-13.648621	-2.7525635
1493774805354	1.5976868	-14.11969	-2.6877136
1493774805354	-0.62965393	-14.128479	-2.1412048
1493774805354	-3.1558838	-13.119003	0.7965088
1493774805354	-5.097931	-13.398254	4.4441986
1493774805354	-4.993225	-14.58725	5.3538513
1493774805354	-3.7521515	-15.369019	2.7391052
1493774805354	-2.0160828	-14.476379	-1.4756012
1493774805355	1.3157196	-12.824219	-0.7275696
1493774805355	1.8223724	-11.147232	0.8833008
1493774805355	-0.2855835	-9.387558	1.6696014
1493774805355	-1.9694214	-7.4935303	2.9543152
1493774805355	-3.0522919	-6.050873	3.409027
1493774805355	-3.5913239	-4.716202	3.1630402
1493774805355	-3.3021393	-3.833023	2.136734
1493774805355	-2.5368195	-3.6532745	1.523346
1493774805355	-1.8816833	-3.1319122	1.656189
1493774805355	-1.4443054	-2.230133	2.2502747
1493774805355	-0.66793823	-2.088089	2.0229645
1493774805355	-0.8511505	-2.9710236	0.1605072
1493774805356	-1.464798	-8.079651	-7.836441
1493774805356	-1.6668854	-16.711533	-16.10553
1493774805356	-0.17572021	-19.289627	-17.103073
1493774805356	0.47608948	-18.304398	-7.9027405
1493774805356	-0.6573181	-8.1875305	-1.9337921
1493774805356	-2.4718323	-0.1761322	-2.697174
1493774805356	-8.569183	-7.1076202	-6.8034973
1493774805356	-5.442032	-13.069031	2.8773956
1493774805356	1.3380432	-14.263458	2.310257
1493774805356	1.0429535	-12.691376	0.66537476
1493774805356	-2.2466888	-6.6426544	6.077957
1493774805356	-3.0987396	-5.6034393	6.0425873
1493774805356	0.4283905	-9.188141	4.748642
1493774805356	2.1881714	-11.724731	4.095978
1493774805357	3.0456696	-13.294891	2.148819
1493774805357	1.9002838	-12.976593	2.2261505
1493774805357	-1.0125885	-10.057602	1.2672882
1493774805357	-2.730133	-9.24794	0.42053223
1493774805357	-2.8215027	-9.589249	-0.7592621
1493774805357	-2.4716034	-9.521011	-0.3608551
1493774805357	-0.6415558	-9.143539	-0.6395569
1493774805357	0.6800537	-8.37825	-0.38186646
1493774805357	0.31651306	-8.227341	-0.028762817
1493774805357	-0.19511414	-8.479416	0.7968445
1493774805357	-0.006164551	-8.844269	1.2474976
1493774805357	0.5759735	-9.511032	1.202301
1493774805358	1.2374268	-9.914169	0.5688782
1493774805358	1.7295685	-10.244614	-0.3635559
1493774805358	1.7093048	-10.583496	-0.92222595
1493774805358	0.43232727	-11.037491	-1.2273407
1493774805358	-0.75961304	-11.19072	-1.8794861
1493774805358	0.8652649	-11.067276	-0.83436584
1493774805359	2.007904	-11.383713	-0.34397888
1493774805359	1.2371063	-12.643829	-2.199585
1493774805359	1.4994507	-13.613235	-3.1040955
1493774805359	2.701233	-14.082153	-2.9351654
1493774805360	2.5928192	-14.499313	-3.417511
1493774805360	-0.38780212	-13.859528	-1.6329651
1493774805360	-4.2960815	-12.567886	0.9438324
1493774805360	-5.542633	-12.677811	3.603592
1493774805361	-5.347458	-14.375015	4.448593
1493774805361	-4.5589905	-15.310287	1.992569
1493774805361	-2.4854126	-14.037811	-1.3483124
1493774805361	1.6173553	-12.607666	-1.8222046
1493774805361	1.610199	-11.072876	-0.5497284
1493774805362	-0.5374603	-9.532547	1.6074677
1493774805362	-1.4834137	-8.267838	3.2664795
1493774805362	-1.8720703	-7.33107	3.651596
1493774805362	-2.8111877	-6.0662994	3.3144836
1493774805362	-3.3519745	-4.409912	2.5687103
1493774805362	-2.9550476	-3.4897156	1.891159
1493774805362	-2.7755737	-2.7116547	1.739502
1493774805362	-2.8878326	-1.4322357	2.1394958
1493774805362	-2.1776276	-0.98727417	2.3316803
1493774805363	-2.008728	-1.7917633	1.6755676
1493774805363	-1.7694092	-5.0557404	-3.214859
1493774805363	-1.1286774	-12.5881195	-13.545654
1493774805363	-0.9161835	-18.793991	-19.16861
1493774805363	1.8947296	-19.474823	-12.406082
1493774805363	1.5455322	-7.586273	-2.3648987
1493774805363	-2.4746094	1.2794952	-2.288147
1493774805363	-10.16507	-8.585037	-4.7813416
1493774805363	-8.586945	-15.847519	1.6240234
1493774805363	3.622223	-15.340103	1.5701752
1493774805363	5.402481	-12.407547	1.0556488
1493774805364	-3.7535248	-2.1144562	9.710678
1493774805364	-7.572159	-3.4701996	4.6592407
1493774805364	0.5810394	-10.070114	6.0740356
1493774805364	4.839905	-14.121902	3.6910553
1493774805364	4.363785	-14.492615	3.028595
1493774805364	1.2970734	-11.986404	2.28302
1493774805364	-2.062149	-9.620804	0.7360077
1493774805364	-3.178772	-8.962769	0.27290344
1493774805364	-3.0904694	-9.567902	0.16506958
1493774805364	-2.287918	-9.439148	1.1702118
1493774805364	-1.0127563	-9.208298	-0.24507141
1493774805364	-0.2522583	-8.458954	0.5564728
1493774805364	0.6138153	-8.214447	0.9368439
1493774805364	1.2732697	-8.670624	1.2565002
1493774805365	1.3604431	-9.594162	0.7008362
1493774805365	1.2934875	-9.976654	-0.24507141
1493774805365	1.4238281	-9.951828	-1.2387543
1493774805365	1.6254883	-9.994141	-1.6566925
1493774805365	1.4829712	-10.118088	-1.4851074
1493774805365	0.10751343	-10.473572	-1.4063721
1493774805365	-0.99272156	-10.960617	-1.4432678
1493774805365	0.1884613	-11.458847	-1.0303497
1493774805365	1.1530457	-11.987762	-1.599762
1493774805365	1.0469818	-12.680557	-2.8334503
1493774805365	1.1462402	-13.250885	-3.2671967
1493774805365	1.3605499	-13.966919	-3.8379211
1493774805366	1.872757	-14.256683	-3.2210083
1493774805366	1.0422363	-13.220474	-0.40118408
1493774805367	-2.8546448	-12.812119	2.8135986
1493774805367	-6.160385	-14.457443	4.0531616
1493774805367	-5.7659454	-15.377228	2.918396
1493774805367	-3.9145508	-14.40387	-0.36920166
1493774805367	0.37641907	-12.867813	-1.820221
1493774805367	2.9567108	-11.233643	-1.6609192
1493774805367	0.90963745	-9.517746	-0.9145813
1493774805367	-0.5177307	-8.330338	1.0907898
1493774805367	-1.5223083	-7.0786896	2.9974518
1493774805367	-2.57576	-6.592453	3.5095978
1493774805367	-2.9951324	-5.811249	3.1865692
1493774805368	-3.464981	-5.303299	2.4337463
1493774805368	-3.6467743	-5.0984955	1.7576904
1493774805368	-3.6782837	-4.1483307	2.3293457
1493774805368	-3.487564	-2.8932495	3.2795868
1493774805368	-2.9450836	-2.7013855	2.5650177
1493774805368	-3.5466156	-3.5612946	0.92211914
1493774805368	-2.3530579	-7.770218	-3.5139465
1493774805368	0.47927856	-17.055939	-15.465378
1493774805368	-0.727005	-19.350235	-19.45459
1493774805368	-1.1024475	-19.474823	-9.452621
1493774805368	-0.39916992	-4.979004	-4.004669
1493774805368	-2.166748	1.3582001	-1.686615
1493774805369	-6.7211456	-5.320999	1.8828735
1493774805369	-6.5973206	-12.875381	2.7535553
1493774805369	0.44874573	-15.014267	-3.4876099
1493774805369	6.5322876	-14.82283	4.476074
1493774805369	-2.6416626	-7.3462677	9.064697
1493774805369	-9.081848	-6.095276	2.3847961
1493774805369	-1.2392426	-8.764526	6.1086426
1493774805369	3.8847504	-12.211227	3.6819
1493774805369	3.9934692	-13.247543	3.392273
1493774805369	1.5669556	-11.584549	1.3781738
1493774805369	-0.6917877	-10.401093	0.72413635
1493774805369	-1.6366119	-9.792023	0.0541687
1493774805369	-1.7695923	-9.3971405	-0.22602844
1493774805370	-1.9550629	-9.031494	-0.49813843
1493774805370	-1.3198853	-8.447311	-0.42189026
1493774805370	0.15159607	-8.106232	0.15026855
1493774805370	1.025589	-8.262848	0.43241882
1493774805370	1.5478363	-8.801636	0.8260193
1493774805370	1.5921326	-9.457489	0.62213135
1493774805370	1.4027252	-9.488831	0.22290039
1493774805370	1.5086517	-9.4897	-0.14364624
1493774805370	1.8371735	-9.875656	-0.5521698
1493774805370	1.7662201	-10.676575	-0.79281616
1493774805370	-0.08117676	-11.45192	-1.347992
1493774805370	-1.6060791	-11.604691	-1.7156372
1493774805371	-0.4019165	-11.917847	-0.47846985
1493774805371	0.34735107	-12.677902	-0.77194214
1493774805371	0.2571106	-13.608398	-2.0940247
1493774805371	0.91360474	-14.540955	-2.463272
1493774805371	1.8325195	-14.320557	-2.8218384
1493774805371	1.4823151	-13.526047	-3.3563385
1493774805371	-0.54385376	-12.752563	-1.3824005
1493774805371	-3.0995789	-12.554611	2.986084
1493774805371	-5.803421	-14.060547	4.213318
1493774805371	-6.7388153	-14.997208	2.84227
1493774805371	-4.5327454	-13.407379	-0.0053863525
1493774805371	0.17326355	-12.005112	-0.54393005
1493774805371	2.641037	-11.119766	-1.0460815
1493774805371	0.76249695	-9.649506	0.51660156
1493774805372	-0.82528687	-8.240738	1.7913666
1493774805372	-1.8441315	-7.0394287	2.5172882
1493774805372	-2.7686768	-6.07045	2.5397797
1493774805372	-3.2471313	-5.109421	2.4215393
1493774805372	-2.7461548	-4.3849792	1.7685394
1493774805372	-2.3054047	-3.761322	1.3579559
1493774805372	-2.1785583	-3.3193665	1.7419586
1493774805372	-1.9690094	-2.5120392	2.5407104
1493774805372	-1.2338715	-2.4165192	2.263733
1493774805372	-1.2866211	-2.8697357	0.9255829
1493774805372	-0.6677551	-6.9207764	-3.8358154
1493774805372	-2.0383759	-15.390503	-14.237091
1493774805373	-0.8339844	-19.240585	-19.401657
1493774805373	1.068924	-19.474823	-9.696655
1493774805373	0.05369568	-6.4900665	-3.2075958
1493774805373	-2.0531006	1.886383	-1.4494476
1493774805373	-7.6507416	-4.7924957	-0.017242432
1493774805373	-7.3973846	-16.345276	5.5994415
1493774805373	2.5973206	-19.25946	0.82910156
1493774805373	4.304367	-15.377396	-6.3027344
1493774805373	-1.3738251	-3.4275208	10.597702
1493774805373	-10.94812	0.22529602	6.9207153
1493774805373	-5.372711	-6.540497	4.9922943
1493774805373	3.0259857	-13.067673	4.580429
1493774805373	3.6724854	-15.708405	4.8377533
1493774805374	1.6674652	-13.402145	3.6431274
1493774805374	-0.23171997	-11.331131	0.74468994
1493774805374	-0.29704285	-10.457413	-0.005279541
1493774805375	-0.66619873	-9.972839	0.20222473
1493774805375	-0.5470123	-8.968567	0.6967926
1493774805375	-0.5459137	-8.159866	0.9065857
1493774805375	-0.9123688	-7.4413605	1.2565765
1493774805375	-1.0384216	-7.345581	0.7216034
1493774805375	-0.93089294	-7.6614075	0.92822266
1493774805375	-0.46018982	-7.939636	0.905838
1493774805375	-0.45367432	-8.38887	1.0335236
1493774805375	-0.14074707	-9.269241	0.84381104
1493774805375	0.98643494	-9.964081	-0.14083862
1493774805375	2.8019714	-10.730774	-0.9736481
1493774805375	3.2154846	-11.667328	-1.0302887
1493774805376	1.7329559	-12.127533	-2.0964355
1493774805376	1.2019043	-12.459656	-1.6832886
1493774805376	1.0502625	-12.66394	-2.358139
1493774805376	0.020309448	-12.711395	-3.6084595
1493774805377	0.31433105	-13.030792	-3.1718597
1493774805377	0.9979248	-14.362427	-3.0598755
1493774805377	0.7269745	-14.965744	-3.164688
1493774805377	-0.34225464	-13.425842	-1.0040131
1493774805377	-2.1407318	-12.032227	2.8203583
1493774805377	-4.054413	-13.124359	4.9222565
1493774805377	-4.333618	-14.937836	3.2954865
1493774805377	-4.852661	-15.425827	0.81988525
1493774805377	-3.373291	-14.14917	-1.2219238
1493774805377	1.0708313	-12.17627	-0.23693848
1493774805377	2.6371307	-10.641922	-0.13423157
1493774805377	0.67526245	-9.081268	1.6885071
1493774805378	-1.6343536	-7.4067993	2.5393066
1493774805378	-2.8511963	-6.105423	2.8692017
1493774805378	-3.197403	-5.2864227	2.7409668
1493774805378	-3.1802826	-4.771286	2.2715454
1493774805378	-3.0831146	-4.9071503	1.6100311
1493774805378	-3.2245483	-4.1636505	1.9262238
1493774805378	-2.9235687	-2.6360016	2.8959503
1493774805378	-1.5791779	-2.032074	2.4180298
1493774805378	-1.7547455	-1.9420776	1.6330261
1493774805378	-1.5027771	-6.5555573	-3.008545
1493774805378	-0.8521271	-14.900864	-12.652512
1493774805378	0.18823242	-19.261414	-19.379562
1493774805379	1.3567657	-19.474823	-10.118835
1493774805379	0.9508209	-9.392029	-2.421997
1493774805379	-1.435379	-1.9196777	-1.8387299
1493774805379	-7.402664	-9.786789	-2.9310913
1493774805379	-6.0231323	-14.768021	2.107254
1493774805379	-1.20224	-16.79216	-0.45922852
1493774805379	3.0627747	-10.158478	1.4794006
1493774805379	-0.012084961	-0.29589844	11.821686
1493774805379	-7.4820404	-2.2459717	3.410843
1493774805379	0.57728577	-11.026321	8.348434
1493774805379	3.958725	-15.561096	3.5977325
1493774805379	3.2483826	-14.91922	2.627243
1493774805379	-0.672287	-11.015381	1.6594391
1493774805380	-2.8909302	-9.353577	2.26268
1493774805380	-2.348236	-9.840073	0.0705719
1493774805380	-1.7055359	-9.416489	-0.17401123
1493774805380	-1.2245941	-8.948929	0.31472778
1493774805380	-0.45762634	-8.795074	0.7836304
1493774805380	-0.060058594	-8.361465	0.81085205
1493774805380	0.56495667	-8.3377075	0.87135315
1493774805380	1.0039368	-8.467865	0.6876221
1493774805380	0.8286438	-8.7892	0.22161865
1493774805380	0.6925354	-9.316864	-0.2933197
1493774805380	1.1738739	-9.959808	-0.21614075
1493774805380	1.8448486	-10.528381	-0.24156189
1493774805381	1.4737091	-11.036575	-1.5976868
1493774805381	-0.071136475	-11.154205	-2.4504852
1493774805381	-0.6696472	-11.078995	-1.7982178
1493774805381	0.61886597	-11.214951	-1.0020905
1493774805381	1.1314697	-12.106567	-1.6924133
1493774805381	1.0790863	-13.906448	-2.659607
1493774805381	1.0244141	-15.634537	-3.3077393
1493774805381	0.3366089	-15.60611	-3.707718
1493774805381	-1.3673096	-14.028549	-2.349533
1493774805381	-2.8266602	-12.719238	0.7709961
1493774805381	-4.501129	-12.673859	4.4668274
1493774805381	-5.0236664	-13.391281	4.3498383
1493774805381	-5.040985	-14.120651	1.7163086
1493774805382	-1.4980469	-13.289673	-1.5210876
1493774805382	2.5531006	-12.423798	-0.88027954
1493774805382	3.028946	-11.138931	-0.28198242
1493774805382	0.479187	-8.993744	1.0011597
1493774805382	-1.5797577	-6.883957	2.2630157
1493774805382	-2.4253082	-5.930847	2.7538452
1493774805382	-3.0487823	-5.3549805	2.7252197
1493774805382	-3.2605743	-4.588608	1.8628998
1493774805382	-2.8345184	-4.118286	1.5995178
1493774805382	-2.6184845	-3.688446	1.4892578
1493774805382	-2.5398407	-2.6365051	2.1752014
1493774805382	-1.5204468	-1.8053284	2.232666
1493774805383	-1.1206665	-2.195282	1.438324
1493774805383	-0.5909271	-5.642151	-1.6914215
1493774805383	-1.1211243	-13.83403	-9.991653
1493774805383	0.060165405	-19.217438	-19.257217
1493774805383	3.2651672	-19.474823	-12.817902
1493774805383	1.4764557	-9.037979	-4.2952423
1493774805383	0.05706787	0.04928589	-0.7063141
1493774805383	-6.595276	-6.803726	-1.1721344
1493774805383	-7.7616577	-16.8732	1.6107178
1493774805383	-0.6253052	-14.453796	0.2945099
1493774805383	2.1397552	-8.590576	4.6161194
1493774805383	-4.51326	-2.7006683	8.74559
1493774805384	-4.668106	-6.7413177	7.0303955
1493774805384	1.6689148	-11.906967	4.958084
1493774805384	2.971344	-13.888504	2.8748322
1493774805384	2.7345734	-12.259415	2.9267273
1493774805384	0.49150085	-10.672836	1.1318207
1493774805384	-1.4997864	-9.962753	0.68878174
1493774805384	-2.0991821	-9.560104	0.7981262
1493774805384	-2.3211365	-9.229843	0.9050598
1493774805384	-2.0268097	-8.777832	0.31726074
1493774805384	-1.1387634	-8.919647	0.7240448
1493774805384	-0.09248352	-8.875671	0.7263489
1493774805384	0.70521545	-8.799271	0.69277954
1493774805384	1.6360474	-8.972488	0.73921204
1493774805385	1.9203796	-9.3984375	0.7727051
1493774805385	1.507721	-9.837784	-0.1691742
1493774805385	1.4759674	-10.405701	-1.571701
1493774805385	2.0287628	-10.483627	-1.9038696
1493774805385	1.7711945	-10.82106	-1.6026917
1493774805385	0.3247223	-11.372528	-1.7698212
1493774805385	-0.39082336	-11.814804	-2.0474243
1493774805385	0.5579529	-12.134811	-2.472519
1493774805385	1.6237183	-13.058029	-3.1727295
1493774805385	1.9451141	-15.082489	-3.4128418
1493774805385	0.85995483	-15.596542	-3.7317963
1493774805385	-0.8835449	-14.215424	-3.1570282
1493774805385	-2.6329193	-13.019241	-0.14315796
1493774805385	-4.393982	-13.092773	4.7293243
1493774805386	-5.2804413	-14.571121	5.7605743
1493774805386	-5.6112976	-15.673599	2.8243256
1493774805386	-4.1734467	-15.04538	-1.6022949
1493774805386	1.094696	-13.33754	-1.8038635
1493774805386	3.6240387	-11.449921	0.14849854
1493774805386	0.25404358	-9.1002655	0.23866272
1493774805387	-1.275589	-7.263153	1.5302887
1493774805387	-1.8736267	-5.80336	2.9427032
1493774805387	-2.4515076	-4.929764	3.4540253
1493774805387	-2.5897827	-4.152649	2.9385834
1493774805387	-2.608307	-3.7744446	2.010498
1493774805387	-2.6322784	-3.4356842	1.832428
1493774805387	-3.1219177	-2.45018	2.1486206
1493774805388	-2.5452423	-1.7384949	2.032898
1493774805388	-1.8096313	-2.603302	1.4166718
1493774805388	-0.27212524	-5.472397	-1.4836731
1493774805388	-1.0984039	-12.493088	-7.7856445
1493774805388	-1.8455353	-19.063568	-18.897629
1493774805388	0.6415558	-19.474823	-16.491302
1493774805389	1.0342865	-12.069489	-4.7897797
1493774805389	0.76446533	-2.283493	-1.5165253
1493774805389	-3.2321777	-1.2309723	-2.9968262
1493774805389	-9.312515	-11.605438	0.47331238
1493774805389	-4.887436	-15.084564	4.1753387
1493774805389	0.88235474	-15.838013	-5.3112335
1493774805389	3.9983978	-8.747711	9.09082
1493774805389	-5.956726	-5.233902	6.5175323
1493774805390	-3.3759003	-7.535568	4.8062897
1493774805390	2.4653015	-10.651779	4.080597
1493774805390	4.9852295	-12.492844	3.4929352
1493774805390	3.5009155	-11.842514	2.5903778
1493774805390	0.2124939	-10.789871	1.0663757
1493774805390	-1.6874237	-10.232162	1.4613495
1493774805390	-2.0888824	-9.679916	0.116363525
1493774805390	-2.7731323	-8.924377	0.3491516
1493774805390	-2.0430603	-8.514023	0.6481323
1493774805390	-0.6702728	-8.930832	0.7363739
1493774805391	0.15908813	-9.170425	1.0830994
1493774805391	1.1096497	-9.353653	1.0137329
1493774805391	1.3952026	-9.909851	0.9897766
1493774805391	1.3212738	-9.9887085	0.3042755
1493774805391	1.3164063	-9.58371	-0.39128113
1493774805391	1.3703766	-9.3654785	-1.3677826
1493774805391	1.4640808	-10.09108	-1.7777405
1493774805391	0.88075256	-11.013214	-1.2194366
1493774805391	-0.07424927	-11.476898	-1.1265869
1493774805391	0.35385132	-12.170151	-0.8005676
1493774805391	0.885437	-12.903763	-0.65586853
1493774805391	1.1790619	-13.881531	-1.7945404
1493774805392	2.180069	-14.508072	-1.7534485
1493774805392	2.5131073	-13.839645	-1.6078644
1493774805392	0.33624268	-13.210541	-3.694336
1493774805392	-2.3147736	-12.163345	-2.711609
1493774805392	-3.4481354	-10.722992	1.1748962
1493774805392	-4.28302	-10.801849	4.8839417
1493774805392	-4.228775	-12.183411	4.8616333
1493774805392	-3.8214264	-13.435013	1.2524872
1493774805392	-3.0595093	-13.713776	-2.3517456
1493774805392	1.9056549	-13.076981	-1.3665619
1493774805392	3.507553	-12.305893	0.12234497
1493774805392	0.8310089	-10.567413	1.6768646
1493774805392	-1.1198425	-8.5	3.068451
1493774805392	-1.8207245	-6.9829407	3.1637268
1493774805392	-2.3728638	-5.8517456	2.806488
1493774805392	-2.578415	-5.157074	1.902359
1493774805392	-2.5089111	-4.6682587	1.2542114
1493774805392	-2.6990662	-3.9081879	1.6481934
1493774805392	-2.9796295	-2.4120789	3.022171
1493774805392	-1.818573	-1.436676	2.826355
1493774805392	-1.1685486	-1.6496124	1.9018402
1493774805392	-0.5623627	-4.4281464	-1.0882568
1493774805392	-1.6036682	-11.569717	-7.3974457
1493774805392	-3.5082855	-19.310242	-19.461136
1493774805392	2.8431396	-19.474823	-17.528946
1493774805392	1.07518	-14.228302	-3.828064
1493774805392	0.9501953	-2.223999	-2.124176
1493774805392	-2.205246	-3.1157684	-3.5228424
1493774805393	-8.017822	-10.372589	4.438736
1493774805393	-5.1444397	-14.648819	0.49414063
1493774805393	4.261795	-15.242081	2.774002
1493774805393	-0.39709473	-8.424454	8.326706
1493774805393	-5.063492	-5.373535	4.0056763
1493774805393	-1.9372253	-7.0935516	6.11467
1493774805393	1.2808838	-9.881149	4.0111237
1493774805393	2.5522766	-11.920273	3.0812378
1493774805393	1.8768463	-12.001526	1.721283
1493774805393	0.9764862	-11.215118	0.5783539
1493774805393	0.2841339	-10.3172455	0.6987152
1493774805393	-1.2790222	-9.4865265	1.0635071
1493774805393	-2.5758057	-8.954758	0.86880493
1493774805393	-2.7929535	-8.889481	0.6463165
1493774805393	-1.1215057	-8.774277	0.7010803
1493774805393	0.78292847	-8.595749	1.0336456
1493774805393	1.1472626	-9.342163	1.2029266
1493774805393	1.0041504	-9.746704	1.0024567
1493774805393	0.69496155	-9.7426605	0.20219421
1493774805393	0.50868225	-10.231567	-0.3592224
1493774805393	0.45666504	-10.772934	-0.54992676
1493774805393	0.7903137	-10.720383	-1.452591
1493774805393	1.2194061	-10.8971405	-1.5261536
1493774805393	0.7110596	-11.176727	-0.6803131
1493774805393	0.55210876	-11.283295	-0.58221436
1493774805393	1.1465912	-11.481232	-0.36044312
1493774805393	0.3961029	-11.930786	-1.1512451
1493774805393	-0.23594666	-13.112915	-2.2537994
1493774805393	0.15800476	-14.133453	-2.4573364
1493774805393	0.1404419	-14.14473	-4.2293243
1493774805393	-0.636322	-13.095673	-1.4893341
1493774805393	-2.4467316	-11.243454	1.9492798
1493774805393	-4.317093	-11.155777	4.322632
1493774805393	-4.7056274	-13.089066	3.568161
1493774805393	-5.107666	-15.010666	1.3661957
1493774805393	-3.295761	-15.087601	-1.0553131
1493774805393	2.1131134	-13.73201	-1.0773163
1493774805393	3.696701	-12.394714	-0.111083984
1493774805393	0.17358398	-10.324646	1.2515717
1493774805394	-1.3356323	-8.550369	2.4626007
1493774805394	-1.8991547	-6.8947296	3.4011536
1493774805394	-2.990265	-5.3098145	3.6538239
1493774805394	-3.710434	-4.0806885	2.7410126
1493774805394	-3.6123962	-3.3963928	2.3320618
1493774805394	-3.0834808	-2.9906921	2.0512848
1493774805394	-3.1442566	-1.8570404	2.4928436
1493774805394	-2.2773285	-1.0801239	2.0805664
1493774805394	-2.2726593	-1.7152557	1.271347
1493774805394	-1.6789551	-5.154434	-4.176651
1493774805394	0.8069916	-14.129135	-13.633377
1493774805394	-1.3558807	-19.355148	-16.819565
1493774805394	-1.0570221	-19.474823	-9.850113
1493774805394	-0.2496643	-11.251129	-2.9674377
1493774805394	-1.6990051	-3.397995	-3.1956787
1493774805394	-6.653488	-7.0163574	-4.4984894
1493774805394	-4.455551	-11.852325	-0.71917725
1493774805394	1.2155304	-13.44603	4.624008
1493774805394	0.8995514	-11.788635	-2.7138824
1493774805394	-0.20201111	-5.632965	7.2585144
1493774805394	-5.433441	-3.9600067	4.818573
1493774805394	-1.5905609	-8.723038	4.9098816
1493774805394	3.1957855	-12.334122	3.2922516
1493774805394	3.7468872	-13.649902	1.9762573
1493774805394	1.1807251	-11.775528	1.2381592
1493774805394	-0.9199524	-10.24234	0.60606384
1493774805394	-1.584259	-9.590759	-0.16493225
1493774805394	-2.1331024	-9.209717	0.097595215
1493774805394	-2.3250885	-9.013824	0.44654846
1493774805394	-1.1684723	-8.906586	0.5314789
1493774805394	-0.1013031	-8.725006	0.54733276
1493774805394	0.2318573	-8.639053	1.078064
1493774805394	0.41506958	-8.914764	1.6271515
1493774805394	0.7404785	-9.362946	1.1742401
1493774805394	0.6336975	-9.778336	0.41029358
1493774805394	0.7170868	-10.274948	-0.42086792
1493774805394	1.4381104	-10.576874	-0.92118835
1493774805394	2.0957031	-10.96669	-1.3334808
1493774805394	2.0406036	-11.660446	-1.7126923
1493774805394	0.8385773	-11.8415985	-2.14682
1493774805394	0.48809814	-11.670959	-2.8011475
1493774805394	1.7518768	-11.28714	-2.6612244
1493774805394	2.2895966	-11.796631	-3.206604
1493774805394	2.4995728	-13.694992	-2.809311
1493774805395	1.8930206	-15.064301	-2.2440948
1493774805395	0.12251282	-14.140198	-2.6663055
1493774805395	-2.2439117	-12.918106	-1.0567627
1493774805395	-3.665985	-12.027924	1.1386871
1493774805395	-5.2000732	-13.148666	4.8000336
1493774805395	-6.03096	-14.642944	4.825699
1493774805395	-4.8240814	-14.9253235	1.5362396
1493774805395	-2.9934387	-14.01268	-2.2300262
1493774805395	1.1674957	-12.349335	-1.8175354
1493774805395	1.2856445	-10.691711	-1.1263428
1493774805395	-0.6491394	-9.072922	1.4037933
1493774805395	-2.3767548	-7.5192413	2.2797394
1493774805395	-2.7088013	-6.2917175	2.907318
1493774805395	-2.5806885	-5.375931	2.8497925
1493774805395	-2.6615295	-4.454788	2.3354797
1493774805395	-3.0120697	-4.207138	1.7263641
1493774805395	-3.0485382	-3.6338654	1.9724884
1493774805395	-3.0254974	-2.692154	3.0148773
1493774805395	-1.8267822	-1.9075012	2.8692474
1493774805395	-1.3503876	-2.0961304	1.9425964
1493774805395	0.16607666	-6.270111	-1.8032379
1493774805395	-2.0134277	-14.816391	-11.255814
1493774805395	-1.7770233	-19.474823	-19.71408
1493774805395	2.1970062	-19.272232	-14.09111
1493774805395	1.4372559	-9.042908	-2.50206
1493774805395	-0.45614624	-0.8117981	-0.81892395
1493774805395	-2.4928894	-0.4933014	-3.7784424
1493774805395	-4.932495	-12.192474	-1.1655884
1493774805395	0.20913696	-19.420471	4.431549
1493774805395	-1.0466461	-17.233887	-5.5864716
1493774805395	-4.729767	-4.9292603	6.4943237
1493774805395	-6.8169403	-1.5267181	10.014343
1493774805395	-1.2679291	-6.933258	4.533386
1493774805395	2.131607	-11.408493	6.885208
1493774805395	3.030365	-13.846924	4.3046722
1493774805395	2.898285	-13.827744	2.1357422
1493774805395	0.83335876	-11.172043	0.36436462
1493774805395	-1.2063599	-9.463135	1.3330536
1493774805395	-1.632309	-9.216232	0.4787445
1493774805395	-1.2359924	-9.365143	0.06893921
1493774805395	-1.4356842	-9.214645	0.5462494
1493774805395	-0.6474762	-8.999344	-0.32279968
1493774805396	-0.11882019	-8.719879	0.1762085
1493774805396	0.3819275	-8.666199	0.844635
1493774805396	0.8869171	-9.228455	1.225296
1493774805396	0.84225464	-9.880341	1.0748749
1493774805396	0.65805054	-10.065964	-0.0059509277
1493774805396	0.64253235	-10.270294	-1.0731506
1493774805396	0.8888397	-10.23056	-1.2518005
1493774805396	1.0230103	-10.494629	-0.9752655
1493774805396	0.27130127	-11.062088	-1.0254974
1493774805396	0.013809204	-11.246185	-1.1576996
1493774805396	1.4495544	-11.475327	-0.4684906
1493774805396	2.0042725	-12.164688	-0.74575806
1493774805396	1.90979	-13.163818	-1.878067
1493774805396	1.5392609	-14.5711975	-1.9389038
1493774805396	0.6235962	-14.31163	-2.2764282
1493774805396	-2.3670197	-13.944061	-2.8336487
1493774805396	-6.2231293	-12.491226	-0.57762146
1493774805396	-6.5783844	-10.991226	4.1614075
1493774805396	-5.7256165	-11.654587	4.4020386
1493774805396	-5.0565643	-13.531815	1.3481598
1493774805396	-4.3974	-14.233749	-0.850708
1493774805396	0.6638489	-12.956619	-0.40577698
1493774805396	3.7306366	-11.373276	-1.0785675
1493774805396	1.137085	-9.90329	0.015136719
1493774805396	-0.88038635	-8.3246155	1.9785767
1493774805396	-2.0683746	-7.1415253	3.0739746
1493774805396	-3.086975	-6.6513977	2.5065002
1493774805396	-3.2480164	-5.7156525	2.041809
1493774805396	-3.4065857	-4.9549713	1.103714
1493774805396	-3.3312225	-4.363327	1.4442596
1493774805396	-3.479477	-3.1723633	2.210205
1493774805396	-3.3553162	-2.269806	2.8983765
1493774805396	-2.2240448	-2.354721	2.7192993
1493774805396	-1.8034515	-2.9769287	1.4567108
1493774805396	-0.7916565	-6.9882965	-2.8215942
1493774805396	1.0878906	-16.356415	-18.295029
1493774805396	-1.3740692	-19.474823	-19.246841
1493774805396	-0.9735718	-18.700043	-10.2565155
1493774805396	1.4603119	-7.592514	-5.046417
1493774805396	-0.2459259	-0.50198364	-4.5899353
1493774805396	-4.7449036	-5.6068726	-2.0168457
1493774805396	-5.6317596	-14.7391815	3.1911469
1493774805396	0.29104614	-15.304642	2.2331696
1493774805397	-2.5925903	-12.195938	-3.8401947
1493774805397	-2.197281	-4.3992615	8.066772
1493774805397	-3.6539917	-4.093033	6.184204
1493774805397	1.0630646	-9.211365	3.6259613
1493774805397	3.94104	-11.911957	4.2738037
1493774805397	3.607315	-13.113831	2.5149078
1493774805397	1.9124451	-11.939163	1.9199677
1493774805397	-0.47088623	-10.406097	0.38555908
1493774805397	-2.3294525	-9.333923	0.85687256
1493774805397	-2.557663	-9.04541	0.46380615
1493774805397	-2.3680878	-8.926926	0.02748108
1493774805397	-1.9566498	-8.968475	-0.48658752
1493774805397	-1.2800446	-8.919357	0.18370056
1493774805397	-0.37960815	-8.660934	0.573822
1493774805397	0.40579224	-8.741455	1.0267487
1493774805397	0.69129944	-9.227997	1.4988861
1493774805397	0.49726868	-9.604691	1.8674469
1493774805397	0.123062134	-9.99231	1.4011841
1493774805397	-0.10017395	-10.464737	0.32202148
1493774805397	0.165802	-10.76033	-0.66845703
1493774805397	0.4583435	-11.146698	-1.2674255
1493774805397	-0.33106995	-11.636063	-1.9612427
1493774805397	0.5367279	-12.020798	-1.8348389
1493774805397	2.3005981	-12.314011	-1.0204163
1493774805397	2.3282623	-12.666382	-1.6972351
1493774805397	2.1068573	-13.107574	-3.2234497
1493774805397	2.1144104	-14.003433	-3.9078217
1493774805397	2.1295166	-14.049606	-3.717453
1493774805397	0.5194855	-12.59819	-2.4263763
1493774805397	-3.7899475	-12.166504	0.6784363
1493774805397	-6.003525	-12.770981	3.8181152
1493774805397	-6.0669556	-14.205826	3.7101593
1493774805397	-5.477539	-14.7013855	2.6277618
1493774805397	-3.890091	-13.392487	-1.3054962
1493774805397	1.008316	-12.266663	-0.8860626
1493774805397	2.339798	-10.264587	-0.5184326
1493774805397	-0.079208374	-9.087875	0.765152
1493774805397	-1.8163147	-7.8175507	2.3290558
1493774805397	-2.7161713	-7.1112976	3.3572083
1493774805397	-2.963745	-6.488037	3.0711975
1493774805397	-3.0202942	-5.1305695	2.5733948
1493774805397	-3.1444092	-5.120987	1.668808
1493774805397	-3.3128052	-4.6803284	1.4785309
1493774805398	-3.3536682	-3.2931519	1.7531128
1493774805398	-2.1763	-2.0892792	2.7341156
1493774805398	-0.7620239	-2.3339996	2.1403198
1493774805398	-1.0736084	-3.5742645	0.05784607
1493774805398	-1.3102875	-9.419159	-6.6568604
1493774805398	-1.4550629	-19.474823	-19.350113
1493774805398	1.0986481	-19.326965	-18.531403
1493774805398	1.7413635	-16.2341	-6.684662
1493774805398	0.81910706	-2.478119	-0.97691345
1493774805398	-1.9587097	0.59069824	-3.1561432
1493774805398	-6.2864227	-6.148224	-3.0060425
1493774805398	-5.814438	-14.933609	3.8932953
1493774805398	1.2741394	-17.652039	1.7358704
1493774805398	1.408081	-13.893402	-2.9930878
1493774805398	-4.470352	-4.5629425	7.142212
1493774805398	-7.061035	-4.112442	5.291565
1493774805398	-0.3420105	-7.7855225	5.1271973
1493774805398	4.007309	-11.143509	4.336258
1493774805398	3.9423218	-13.347702	2.7321167
1493774805398	2.3890839	-12.7117	1.8334808
1493774805398	-0.36416626	-10.852051	0.7493286
1493774805398	-2.2036438	-9.463608	0.878479
1493774805398	-2.476883	-9.144623	0.53019714
1493774805398	-1.9827423	-9.042511	0.35798645
1493774805398	-1.6375427	-8.959732	0.7414093
1493774805398	-0.60523987	-8.952759	0.41078186
1493774805398	0.0741272	-8.759415	0.81282043
1493774805398	0.7344055	-8.684235	1.3487549
1493774805398	1.4206696	-9.070923	1.2476501
1493774805398	1.5333862	-9.929062	0.40454102
1493774805398	1.1491394	-10.612259	-0.61009216
1493774805398	1.1117554	-10.629639	-2.4596405
1493774805399	1.8524323	-10.50386	-2.8078918
1493774805399	1.4610901	-10.698013	-0.7016754
1493774805399	0.044265747	-11.316147	-0.98158264
1493774805399	0.6669159	-11.878189	-0.93096924
1493774805399	0.85723877	-12.142334	-1.0073853
1493774805399	-0.11090088	-13.21257	-2.3763733
1493774805399	2.0501404	-14.148468	-2.4678192
1493774805399	2.2189941	-14.206497	-2.7350311
1493774805399	1.3874817	-14.375305	-6.5433044
1493774805399	-1.8785553	-13.394592	-3.2182922
1493774805399	-4.0160065	-11.51387	2.8848572
1493774805399	-5.315811	-11.718826	5.3894653
1493774805399	-4.071823	-13.184616	2.7160492
1493774805399	-4.2855835	-14.855179	-0.28819275
1493774805399	-0.07800293	-13.331879	-1.9807129
1493774805399	2.9367828	-12.707581	-0.2672577
1493774805399	2.8645477	-11.06282	0.28215027
1493774805399	0.6539917	-8.994461	1.7741089
1493774805399	-1.578186	-7.167755	2.4423676
1493774805399	-2.7054596	-6.074646	2.5149689
1493774805399	-2.9594574	-4.919403	2.705246
1493774805399	-3.1831665	-4.2024994	1.8313293
1493774805399	-2.6964722	-4.468933	1.9182739
1493774805399	-2.5811462	-3.8269043	2.3019257
1493774805399	-2.827362	-2.5438232	3.3158875
1493774805399	-2.0063782	-1.4854736	2.5435028
1493774805399	-1.9862671	-1.3403473	1.4469604
1493774805399	-1.1918335	-6.4886475	-4.089432
1493774805399	-1.052475	-16.909454	-17.997269
1493774805399	0.082214355	-19.474823	-16.371796
1493774805399	0.1065979	-17.995026	-10.661179
1493774805399	-0.73876953	-7.7398987	-3.7213135
1493774805399	-1.743103	-2.201233	-4.145157
1493774805399	-4.599823	-7.7067413	-5.0296326
1493774805399	-4.467041	-15.87204	-0.2941742
1493774805399	0.9688721	-17.239014	2.682953
1493774805399	0.6302643	-10.391541	0.65008545
1493774805399	-3.0771332	-2.109436	7.803772
1493774805399	-5.665756	-2.6229553	5.225601
1493774805399	0.33052063	-10.034058	6.5556335
1493774805400	3.9112396	-13.983231	4.3614044
1493774805400	3.4836884	-13.908249	1.889267
1493774805400	2.0415955	-11.802887	1.6412659
1493774805400	-0.48168945	-10.152313	0.8551178
1493774805400	-1.7099304	-9.351761	0.09118652
1493774805400	-1.6849213	-9.48822	-0.5203705
1493774805400	-1.8838806	-9.183258	-0.533371
1493774805400	-1.6807251	-8.543671	-0.06072998
1493774805400	-0.75346375	-8.343369	0.5223236
1493774805400	0.06587219	-8.282715	0.78738403
1493774805400	0.9855194	-8.551071	1.0091858
1493774805400	1.1288147	-8.908707	1.1108246
1493774805400	1.0538635	-9.046188	0.8753967
1493774805400	1.2442932	-9.533371	0.9213104
1493774805400	1.3707886	-10.282639	0.5123596
1493774805400	1.5067902	-11.100754	-0.51564026
1493774805400	0.41438293	-11.796692	-1.9297028
1493774805400	-0.42271423	-11.901627	-2.93396
1493774805400	1.1549835	-12.021957	-1.3377075
1493774805400	2.2764282	-12.201111	-0.7377167
1493774805400	1.5462189	-13.271988	-2.480957
1493774805400	2.0997162	-14.160034	-2.4244232
1493774805400	1.2805176	-14.801376	-1.4304962
1493774805400	-1.5058289	-14.612747	-3.138733
1493774805400	-3.4079285	-12.806488	-0.4312439
1493774805400	-3.6935425	-11.457474	1.6550903
1493774805400	-3.730957	-12.514191	4.2888947
1493774805400	-3.3566742	-14.316742	3.7601318
1493774805400	-5.0412292	-13.824722	1.4648743
1493774805400	-3.3175354	-12.198975	-0.923172
1493774805400	2.6983795	-11.902054	-0.15107727
1493774805400	2.9710236	-11.247299	-0.20829773
1493774805400	-0.40534973	-9.428741	1.3453369
1493774805400	-1.804245	-7.984543	2.0975647
1493774805400	-2.5705109	-6.8459625	2.8853912
1493774805400	-3.2494202	-6.0075684	3.0983887
1493774805400	-3.055664	-4.8685455	2.6954193
1493774805400	-2.8555908	-4.525543	1.6494751
1493774805400	-2.7826996	-3.5401764	1.3079376
1493774805400	-2.746582	-2.3757172	1.8808136
1493774805400	-2.183136	-1.206192	2.1911469
1493774805400	-1.7069397	-2.1237488	1.0849762
1493774805400	-1.2797852	-5.444748	-1.8366547
1493774805401	1.3975525	-12.51947	-9.87764
1493774805401	0.9512024	-19.474823	-19.655975
1493774805401	0.17991638	-18.32425	-16.934158
1493774805401	0.40827942	-10.122482	-4.677765
1493774805401	-1.0267334	-0.27676392	-2.1908417
1493774805401	-6.4723053	-5.0016174	1.4930267
1493774805401	-7.875519	-13.979218	4.2459106
1493774805401	-0.39201355	-15.17746	-0.4756317
1493774805401	0.62072754	-11.554962	-0.6060333
1493774805401	-2.5981903	-4.6506195	9.409256
1493774805401	-4.1214294	-6.455612	4.0670013
1493774805401	2.4965057	-10.805557	4.102051
1493774805401	5.0749054	-13.027985	3.2794647
1493774805401	3.5318909	-12.737381	2.2474823
1493774805401	0.21717834	-11.0299225	0.7281647
1493774805401	-2.5598602	-9.815369	0.23474121
1493774805401	-3.2245789	-9.167511	0.39604187
1493774805401	-3.1137543	-9.212753	0.43476868
1493774805401	-1.8573303	-9.135468	-0.026824951
1493774805401	-0.2140503	-8.859558	-0.18740845
1493774805401	-0.11122131	-8.434784	0.14207458
1493774805401	-0.041931152	-8.059753	0.80770874
1493774805401	0.9002228	-8.431015	1.4752045
1493774805401	1.4972229	-9.529373	1.3551636
1493774805401	1.6319122	-10.298386	0.86283875
1493774805401	1.5706329	-10.221512	-0.45092773
1493774805401	1.0238953	-10.168961	-1.366272
1493774805401	-0.42738342	-10.662003	-1.1714935
1493774805401	-1.4546814	-11.218842	-1.608963
1493774805401	0.29571533	-11.585968	-1.0679932
1493774805401	1.628067	-11.841324	-0.8718567
1493774805401	0.8602905	-12.709366	-2.2024078
1493774805401	2.0010223	-14.297516	-2.5764313
1493774805401	2.9254913	-14.764801	-2.19281
1493774805401	1.6075287	-14.516327	-3.6931763
1493774805401	-1.2333374	-13.821945	-1.911789
1493774805401	-3.5399323	-12.332901	-0.24673462
1493774805401	-5.351425	-12.205612	4.3825684
1493774805401	-5.982132	-14.144241	5.8831024
1493774805401	-5.5534973	-14.67395	3.339798
1493774805401	-4.254944	-14.338287	-1.204834
1493774805401	0.9119873	-12.549225	-1.2898712
1493774805401	3.6368866	-11.761673	0.477005
1493774805402	0.73124695	-9.8125	1.784668
1493774805402	-1.3123322	-8.126923	3.5019684
1493774805402	-2.1994019	-6.76622	3.1075897
1493774805402	-2.8251038	-5.6734924	3.3689728
1493774805402	-3.4110718	-4.5099792	2.302826
1493774805402	-3.0409698	-4.003372	1.2888031
1493774805402	-3.03656	-3.403778	1.1691742
1493774805402	-2.9637604	-2.0998688	1.9759979
1493774805402	-2.1296844	-1.0200195	2.5988312
1493774805402	-1.0044556	-1.7541809	1.9766693
1493774805402	-0.13082886	-3.9814453	-0.2314148
1493774805402	1.1557465	-11.299805	-7.554474
1493774805402	-0.13752747	-19.474823	-19.085663
1493774805402	1.177002	-18.999588	-17.881485
1493774805402	0.1361084	-14.092621	-6.766205
1493774805402	0.21263123	-1.926712	0.15322876
1493774805402	-1.0622711	0.094573975	0.7677002
1493774805402	-6.063034	-10.49559	2.8726044
1493774805402	-5.6640167	-18.349564	2.670395
1493774805402	-4.0119934	-16.819702	-7.379959
1493774805402	-1.8470001	-7.1890717	6.977844
1493774805402	-2.0077667	-2.5353699	9.656723
1493774805402	1.306427	-7.6624603	4.815048
1493774805402	3.1298218	-11.5729065	4.1234894
1493774805402	1.6837006	-12.557907	2.745453
1493774805402	1.168045	-12.547989	1.1381683
1493774805402	-0.35508728	-11.221222	-0.09590149
1493774805402	-2.0591888	-9.663956	0.12007141
1493774805402	-1.7819519	-9.413284	0.49195862
1493774805402	-1.2126312	-8.998993	0.48954773
1493774805402	-0.8631897	-8.46756	0.7761078
1493774805402	-0.46014404	-8.727341	0.68289185
1493774805402	-0.04336548	-9.021652	0.7123413
1493774805402	0.74565125	-9.262238	1.236557
1493774805402	1.819519	-9.497528	1.0584259
1493774805402	1.7876587	-9.454361	0.7461548
1493774805402	1.2023163	-9.421112	-0.54244995
1493774805402	1.3312836	-9.511124	-1.7039032
1493774805402	1.4757538	-10.3355255	-1.2320862
1493774805402	-0.17591858	-11.176178	-0.93092346
1493774805402	-1.0576019	-11.414322	-1.1498108
1493774805402	0.33332825	-11.636536	-0.578125
1493774805403	1.1245422	-11.674316	-0.7035675
1493774805403	-0.027786255	-12.415848	-2.7770386
1493774805403	1.4036865	-12.881943	-3.039734
1493774805403	2.7177124	-13.932648	-2.6353455
1493774805403	2.4747772	-14.599564	-3.4444122
1493774805403	-0.28399658	-13.813446	-1.9402618
1493774805403	-3.681015	-12.176437	-0.21382141
1493774805403	-6.505188	-11.820099	4.2508545
1493774805403	-7.689316	-13.586334	5.930298
1493774805403	-6.3662567	-14.091995	2.7996674
1493774805403	-1.7784119	-13.843079	-1.259964
1493774805403	6.068924	-12.684769	-2.0859375
1493774805403	4.6960907	-12.191666	-2.3156738
1493774805403	0.6542511	-10.021454	-0.48779297
1493774805403	-0.69833374	-7.746826	2.4068756
1493774805403	-1.9148712	-6.3285217	2.6705627
1493774805403	-2.9875336	-5.439392	3.036438
1493774805403	-3.52948	-4.721237	2.3513184
1493774805403	-3.4638367	-4.7169952	1.559433
1493774805403	-3.2075348	-4.3629456	0.94374084
1493774805403	-2.644333	-3.2761078	1.6863098
1493774805403	-1.9299316	-2.110382	2.5789948
1493774805403	-1.038147	-2.0988312	1.965332
1493774805403	-0.6399994	-3.35466	0.07426453
1493774805403	-0.15885925	-8.793686	-5.4592285
1493774805403	-1.1008453	-17.393585	-14.512802
1493774805403	1.7038269	-19.474823	-18.126831
1493774805403	2.677124	-17.225235	-9.213776
1493774805403	0.5517731	-6.5968933	-2.1220703
1493774805403	-1.3140869	-1.9749908	-1.4637604
1493774805403	-5.2551117	-8.581131	-2.2951202
1493774805403	-4.1793823	-15.432266	2.1767883
1493774805403	0.043640137	-14.52063	1.0203094
1493774805403	-3.5022736	-9.890228	-1.7994232
1493774805403	-5.452179	-3.8995514	5.4673615
1493774805403	-3.411728	-5.412216	6.6799164
1493774805403	1.358902	-10.345886	4.0320587
1493774805403	3.547882	-12.34761	3.492508
1493774805403	3.5574493	-12.918243	2.8728485
1493774805403	2.0683746	-11.996994	1.6148376
1493774805403	-0.090545654	-10.53656	0.65426636
1493774805403	-1.8029327	-9.569717	0.9266052
1493774805403	-2.2624817	-9.165054	0.7663727
1493774805403	-2.368744	-9.078552	1.0100403
1493774805404	-2.286438	-9.006653	0.3624115
1493774805404	-1.1997375	-8.985336	-0.19676208
1493774805404	0.24368286	-8.798035	-0.08154297
1493774805404	0.7352295	-8.389313	0.6033783
1493774805404	0.79400635	-8.318802	1.5584259
1493774805404	0.9801178	-8.870316	1.8190308
1493774805404	1.1107025	-9.73262	0.80152893
1493774805404	1.7571106	-10.007431	-1.2358246
1493774805404	2.126114	-10.41095	-2.1088715
1493774805404	0.508667	-11.015289	-1.5853729
1493774805404	-0.7355957	-11.392151	-1.5107574
1493774805404	0.7470703	-11.692291	-0.6457062
1493774805404	1.8137054	-11.804245	-0.9658203
1493774805404	0.74557495	-13.138657	-2.9736328
1493774805404	2.158966	-14.485962	-3.209671
1493774805404	2.9334106	-15.009369	-2.6079254
1493774805404	2.0376892	-15.153137	-1.0147247
1493774805404	-2.453659	-13.897598	-0.32322693
1493774805404	-5.140564	-12.136398	0.40118408
1493774805404	-6.570114	-11.895691	4.4890594
1493774805404	-7.1231537	-13.45697	5.1099396
1493774805404	-6.3193817	-14.412079	2.2620697
1493774805404	-4.462799	-14.477127	-1.457016
1493774805404	3.8356934	-12.256317	-1.5506134
1493774805404	3.4116974	-11.005173	0.36128235
1493774805404	-0.19706726	-8.749512	0.90600586
1493774805404	-1.4718628	-7.2253723	2.9944153
1493774805404	-2.4657135	-6.2990723	3.3208008
1493774805404	-2.8425293	-5.407547	2.8406525
1493774805404	-2.835312	-4.2845	1.9461975
1493774805404	-2.661621	-3.7828064	1.4364929
1493774805404	-2.5383759	-3.2662811	1.5525513
1493774805404	-2.7013855	-2.5281677	2.1470947
1493774805404	-1.9231415	-1.5765533	2.7590485
1493774805404	-0.9303131	-2.1359558	2.0955658
1493774805404	-1.0476227	-4.1171265	-0.46499634
1493774805404	-0.3929596	-11.272415	-7.8887177
1493774805404	-0.7266693	-19.474823	-19.20819
1493774805404	1.1405334	-19.394333	-17.875977
1493774805404	0.50849915	-15.432251	-9.131851
1493774805404	-0.35494995	-2.2697601	-1.875412
1493774805404	-2.3786469	-0.49545288	-1.2393799
1493774805405	-5.732605	-9.954361	1.2022858
1493774805405	-2.2830963	-16.982635	2.607193
1493774805405	-0.26290894	-17.634827	-5.132126
1493774805405	-3.269394	-9.36142	2.2263947
1493774805405	-6.6246033	-1.4563904	8.895187
1493774805405	-4.9573975	-4.638397	4.5071106
1493774805405	1.8520813	-9.823044	6.102478
1493774805405	4.08136	-13.477524	5.2994385
1493774805405	3.5673065	-14.164444	2.4458466
1493774805405	2.3202972	-12.060242	0.6110382
1493774805405	-0.014373779	-10.046127	0.5691376
1493774805405	-1.6881409	-9.087341	1.0982819
1493774805405	-1.7737732	-8.9496	0.3121643
1493774805405	-1.7088165	-8.85762	0.2832489
1493774805405	-1.5735016	-8.784943	0.33787537
1493774805405	-0.8514862	-8.748352	0.3882904
1493774805405	0.09309387	-8.835602	0.8020935
1493774805405	0.8495331	-9.199493	0.8209381
1493774805405	1.0552521	-9.448578	0.8778534
1493774805405	0.92422485	-9.508209	0.52534485
1493774805405	0.9475708	-9.487488	-0.20785522
1493774805405	1.4466858	-9.770981	-0.7441559
1493774805405	1.6756287	-10.662735	-0.7658539
1493774805405	0.3924408	-11.448288	-1.1299133
1493774805405	-0.40957642	-11.850449	-1.7082367
1493774805405	0.60575867	-12.322693	-1.0481873
1493774805405	1.4727936	-12.55751	-1.4705353
1493774805405	1.7413635	-13.802307	-3.1524353
1493774805405	2.5845337	-14.14473	-2.078415
1493774805405	2.027893	-14.596771	-1.8716888
1493774805405	-0.4039154	-14.136169	-3.5482635
1493774805405	-3.8282166	-12.38382	0.970932
1493774805405	-4.9645844	-11.130615	2.58313
1493774805405	-5.18161	-12.90358	5.2681885
1493774805405	-3.854004	-14.625412	4.228241
1493774805405	-4.3912354	-14.92363	-0.11177063
1493774805405	-1.234436	-13.398865	-2.280075
1493774805405	2.5729828	-12.922806	0.65730286
1493774805405	2.582489	-11.163727	1.1022644
1493774805405	0.06486511	-9.127838	1.9676361
1493774805405	-2.755478	-7.573303	2.9189758
1493774805405	-3.0402985	-6.0446167	3.132187
1493774805405	-3.1553955	-5.0718536	3.2435303
1493774805406	-3.2301636	-4.533798	2.3581238
1493774805406	-3.0972748	-3.9644623	1.9881134
1493774805406	-3.0403137	-3.2723694	2.2463531
1493774805406	-2.682953	-1.9850159	2.8266602
1493774805406	-1.4633789	-1.0893707	2.2135468
1493774805406	-0.80610657	-2.2470398	0.43016052
1493774805406	-0.38641357	-7.181366	-4.4035797
1493774805406	-1.7755432	-15.561188	-13.001724
1493774805406	-0.8344574	-19.474823	-18.418442
1493774805406	1.0591736	-16.49086	-11.516647
1493774805406	1.5628357	-5.6863556	-2.2793121
1493774805406	0.29490662	-0.42982483	-0.98680115
1493774805406	-4.8557434	-8.653427	-2.3150635
1493774805406	-5.0332184	-18.411484	-0.07839966
1493774805406	-0.9615631	-16.90892	-1.7280579
1493774805406	-1.8638	-8.186432	0.7794342
1493774805406	-4.1900024	-1.1852875	7.6615906
1493774805406	-1.7746887	-4.808838	6.7855377
1493774805406	2.6074371	-11.981827	4.972763
1493774805406	3.2050018	-14.175049	3.2837372
1493774805406	2.9152222	-13.557068	2.3386536
1493774805406	1.2775269	-11.03569	1.5930023
1493774805406	-1.1604462	-9.438431	1.1053162
1493774805406	-1.5831604	-9.563065	0.6564789
1493774805406	-1.1726685	-9.758392	0.9867401
1493774805406	-2.1365967	-9.36731	0.8625946
1493774805406	-2.554779	-8.797211	0.31254578
1493774805406	-1.3795013	-8.504776	0.3605194
1493774805407	-0.060943604	-8.369858	0.7023163
1493774805407	0.6802521	-8.703339	0.90374756
1493774805407	0.78567505	-9.173065	0.98695374
1493774805407	0.6775818	-9.244522	0.69358826
1493774805407	0.8182373	-9.360504	-0.19238281
1493774805407	1.4277496	-9.885803	-1.2501526
1493774805407	1.9265442	-10.610825	-1.6081696
1493774805407	0.61117554	-10.954468	-1.6905975
1493774805407	-0.46418762	-11.147583	-1.6850739
1493774805407	0.667099	-11.704956	-1.2982178
1493774805407	1.3383789	-11.781784	-0.8194275
1493774805407	0.023498535	-13.768265	-2.3715973
1493774805407	1.0587158	-14.448364	-1.9441376
1493774805407	1.2735443	-15.120087	-1.4065094
1493774805407	-0.975296	-15.006592	-3.552246
1493774805407	-5.409668	-12.6354065	-0.27635193
1493774805407	-5.942795	-10.791504	1.5299377
1493774805407	-5.6306763	-12.4131775	4.9608765
1493774805407	-4.289612	-14.855469	4.8488007
1493774805407	-3.9736328	-15.269043	0.15359497
1493774805407	-1.8086395	-12.635513	-3.0158234
1493774805407	2.620819	-11.4608	-0.41938782
1493774805407	2.1462402	-10.180557	0.81266785
1493774805407	-0.96850586	-8.97876	1.4273529
1493774805407	-1.9723358	-7.678772	2.7556763
1493774805407	-2.5599823	-6.673218	3.3005676
1493774805407	-2.7041779	-5.8223877	3.3063202
1493774805407	-2.3466797	-4.923172	2.7296295
1493774805407	-2.1449738	-4.832611	1.5078735
1493774805407	-1.915451	-3.8969421	1.5858917
1493774805407	-2.1475525	-2.5099335	2.1849823
1493774805407	-2.162033	-1.311615	2.2355347
1493774805407	-1.639801	-1.9336395	0.6834259
1493774805407	-1.651062	-5.303879	-3.4341125
1493774805407	-0.91223145	-13.010529	-11.623642
1493774805407	1.2814331	-19.474823	-18.288483
1493774805407	0.8054657	-17.343048	-13.281555
1493774805407	-0.14474487	-9.287857	-4.7036285
1493774805407	-2.974594	-4.3615723	-2.2657928
1493774805407	-7.8047485	-11.951218	-2.8188782
1493774805407	-5.220108	-15.510086	0.8442688
1493774805407	1.0709991	-11.255402	2.8894043
1493774805408	-0.948349	-5.6748657	3.8169708
1493774805408	-4.110901	-3.016159	5.886383
1493774805408	-1.6826019	-8.013275	6.4678345
1493774805408	1.8408508	-13.467926	4.8507233
1493774805408	3.8002472	-14.192566	2.57901
1493774805408	3.8122559	-12.706451	2.2103271
1493774805408	1.302597	-10.765839	1.5452423
1493774805408	-1.0044861	-9.912415	0.96536255
1493774805408	-1.9454346	-9.541672	0.99290466
1493774805408	-1.8591461	-9.705994	0.13955688
1493774805408	-2.0556946	-9.403	0.14657593
1493774805408	-1.7884064	-8.661224	0.07800293
1493774805408	-1.1674042	-8.323975	-0.19644165
1493774805408	-0.574234	-8.090866	-0.028808594
1493774805408	0.01927185	-8.176285	0.6389923
1493774805408	0.5441437	-8.824585	1.5039978
1493774805408	0.9451904	-9.449997	1.7268219
1493774805408	1.3345032	-9.912552	0.21307373
1493774805408	2.1377106	-9.901611	-1.8780212
1493774805408	2.9026794	-10.356094	-2.3747559
1493774805408	1.7130737	-11.313202	-1.4440308
1493774805408	0.15562439	-12.282455	-1.6848145
1493774805408	0.96617126	-12.5	-0.7559967
1493774805408	-0.11468506	-12.192017	0.99832153
1493774805408	-1.8091125	-12.735306	-3.9368744
1493774805408	-0.15086365	-13.592072	-4.1690216
1493774805408	2.6532288	-13.980072	-1.8561401
1493774805408	2.412735	-14.923294	-2.4516296
1493774805408	-0.4129486	-13.476395	-1.6094666
1493774805408	-3.964035	-12.245682	-0.6322479
1493774805408	-5.411484	-12.406387	3.3415375
1493774805408	-6.37059	-14.810242	5.0158386
1493774805408	-6.2713623	-15.970627	3.4044037
1493774805408	-4.8329926	-14.830154	1.2285919
1493774805408	0.7416229	-12.764328	-1.2197418
1493774805408	3.615631	-11.138321	-0.9753876
1493774805408	0.83839417	-9.556778	-0.17715454
1493774805408	-0.36775208	-8.328888	2.0548859
1493774805408	-1.6522675	-7.0246277	2.8609314
1493774805408	-2.077835	-6.078888	3.1788025
1493774805408	-2.395935	-5.311096	3.2906952
1493774805409	-2.413025	-4.3861084	2.6138
1493774805409	-2.5130463	-3.703064	2.1848907
1493774805409	-2.7389984	-3.0939026	2.1323242
1493774805409	-2.578537	-2.204132	2.5360565
1493774805409	-1.3527527	-1.702652	2.1565094
1493774805409	-0.5693512	-2.8943176	0.39518738
1493774805409	-0.95947266	-8.114792	-6.063446
1493774805409	-2.933899	-16.408325	-16.327911
1493774805409	-0.91729736	-19.474823	-15.259674
1493774805409	0.50538635	-16.271484	-7.5277557
1493774805409	-0.3594513	-6.4441376	-1.947113
1493774805409	-1.660202	-0.2129364	-3.1587067
1493774805409	-5.1320343	-2.9002686	-4.6111298
1493774805409	-6.661972	-11.937515	1.8399658
1493774805409	-0.958374	-17.364197	3.1623688
1493774805409	2.0724487	-16.676514	-2.2406006
1493774805409	-1.785202	-10.059692	2.8785248
1493774805409	-5.441086	-4.335602	6.100189
1493774805409	-2.96492	-5.9069977	4.9539185
1493774805409	1.9155731	-9.460831	5.1381073
1493774805409	3.8943024	-12.720779	4.7976837
1493774805409	3.7424774	-13.638596	3.0881195
1493774805409	1.5537109	-11.837677	0.89959717
1493774805409	-1.5341797	-10.100555	1.3097382
1493774805409	-2.7407227	-9.423035	1.1270142
1493774805409	-2.7163086	-9.114578	1.1970215
1493774805409	-2.277954	-8.813126	0.52305603
1493774805409	-1.1483612	-8.616241	0.50865173
1493774805409	0.22425842	-8.303726	0.70570374
1493774805409	1.3623657	-8.230072	0.83496094
1493774805409	2.157196	-8.875214	0.7772064
1493774805409	2.070053	-9.677811	0.81425476
1493774805409	1.7048035	-10.290344	0.6099396
1493774805409	1.5487671	-10.373718	-0.09402466
1493774805409	1.4400024	-9.976181	-1.4723206
1493774805409	0.84840393	-10.704971	-1.6967621
1493774805409	-0.16592407	-11.320831	-1.5031586
1493774805409	-0.18232727	-11.618988	-0.8925934
1493774805409	1.0029907	-12.05217	-0.39331055
1493774805409	0.49913025	-12.173859	0.072143555
1493774805409	-1.3073273	-13.892105	-3.4767303
1493774805409	2.2759552	-14.162933	-1.7556305
1493774805409	3.5104675	-13.911209	-0.79447937
1493774805409	2.5081635	-14.416931	-3.3293152
1493774805410	-0.82040405	-13.685486	-2.0001068
1493774805410	-4.8255615	-11.448532	-0.28952026
1493774805410	-5.9393463	-10.888901	6.141464
1493774805410	-5.053314	-13.362625	5.3334656
1493774805410	-3.0640259	-14.002762	2.0618896
1493774805410	-2.013626	-14.353851	-1.511795
1493774805431	-1.4361572	-12.725372	-2.8194733
1493774805451	3.2475433	-11.649658	0.27075195
1493774805470	2.199295	-10.303543	1.2959442
1493774805487	-0.4968109	-8.498566	2.7854156
1493774805506	-1.983017	-6.8656464	2.3889618
1493774815312	-2.2556458	-6.4387817	2.2876892
1493774815312	-2.2539368	-5.426956	1.7333832
1493774815312	-2.4502716	-4.8710175	1.1470337
1493774815312	-2.5821686	-4.1924286	1.6024628
1493774815313	-2.48732	-2.933075	2.6397552
1493774815313	-1.8584595	-1.89357	3.2753296
1493774815313	-1.1231232	-1.8680573	2.5956268
1493774815313	-0.8347473	-3.6671295	0.17474365
1493774815313	-0.94763184	-9.36232	-6.1357574
1493774815313	-1.9901886	-16.691498	-15.073517
1493774815314	0.23864746	-19.474823	-17.05745
1493774815314	1.383255	-15.981888	-8.830856
1493774815314	-0.06732178	-7.125839	-2.5644226
1493774815314	-2.6148987	-2.4086304	-3.0251312
1493774815314	-6.1058197	-7.5845184	-4.0871887
1493774815314	-3.6142883	-14.038788	1.1872711
1493774815314	0.6676636	-14.376633	2.0836792
1493774815315	-1.2468109	-9.435333	1.020752
1493774815315	-5.37352	-3.4536285	6.4290314
1493774815315	-4.103653	-5.193405	6.8120575
1493774815315	2.0432587	-10.446396	5.4944153
1493774815315	4.5601196	-12.924606	4.1360016
1493774815315	3.766159	-13.286423	3.1936493
1493774815316	1.3098755	-11.827377	1.2164764
1493774815316	-0.9970093	-10.036835	1.10289
1493774815316	-2.067688	-9.346756	1.2606354
1493774815316	-1.6503296	-9.349915	0.659729
1493774815316	-1.2183685	-9.19014	1.2888336
1493774815316	-1.0887756	-8.992126	0.89834595
1493774815317	-0.5517578	-8.852417	0.91734314
1493774815317	0.51750183	-8.726166	0.8025665
1493774815317	1.5323181	-8.855545	0.65148926
1493774815317	1.8769073	-9.305084	0.62734985
1493774815317	1.5623779	-9.616501	-0.13735962
1493774815317	1.2023315	-10.1353	-0.92219543
1493774815318	1.5456085	-10.350204	-2.044983
1493774815318	2.133667	-10.372284	-1.6828613
1493774815318	1.3325806	-10.773422	-0.94621277
1493774815318	-0.43688965	-10.967056	-0.9065857
1493774815318	0.42118835	-11.437363	-0.13516235
1493774815318	1.3339386	-11.42955	-0.23493958
1493774815319	0.10021973	-11.716934	-2.1071472
1493774815319	0.0025939941	-12.947479	-3.6438751
1493774815319	1.1355591	-13.76944	-1.2009888
1493774815319	0.7689209	-14.332275	-3.3315887
1493774815319	-0.40794373	-14.410812	-2.6174316
1493774815319	-3.71727	-12.597076	-1.2905579
1493774815352	-4.4577026	-11.975067	4.1145782
1493774815352	-5.006317	-13.5017395	6.482361
1493774815352	-4.8746796	-14.717285	2.683075
1493774815352	-4.209305	-14.317657	-0.87275696
1493774815352	1.2072754	-12.702835	-2.5882568
1493774815352	3.2032623	-11.853088	-0.5298767
1493774815353	2.040039	-9.959595	0.7276001
1493774815353	-0.43920898	-8.009033	2.058548
1493774815353	-1.8954773	-6.735321	3.5371857
1493774815353	-3.021225	-5.978058	3.4481506
1493774815353	-3.3738708	-5.321945	3.0212097
1493774815353	-3.1805115	-4.803711	1.7350311
1493774815353	-2.992981	-4.356781	1.3967743
1493774815354	-3.3190002	-3.4016724	1.7258453
1493774815354	-3.0998535	-2.2000885	2.4863434
1493774815354	-1.8128967	-1.764267	2.5276184
1493774815354	-0.88275146	-2.6865234	1.4621582
1493774815354	0.13565063	-7.18515	-3.3783112
1493774815354	0.59866333	-15.068787	-13.336258
1493774815354	0.33485413	-19.474823	-18.56604
1493774815355	0.9729614	-16.99498	-11.96785
1493774815355	1.1121979	-9.730804	-4.99205
1493774815355	-0.03463745	-2.998291	-4.3667755
1493774815355	-3.5683594	-3.8464355	-3.8813934
1493774815355	-6.357025	-11.690826	-1.1629791
1493774815356	-1.4873657	-16.617462	3.1512756
1493774815358	0.4869995	-14.2052	-1.2469788
1493774815358	-2.763626	-6.7976837	-0.4998474
1493774815358	-4.658203	-2.0169983	6.6997223
1493774815358	-2.2287445	-6.0857086	7.024887
1493774815358	1.56987	-11.683517	4.1952972
1493774815359	2.7313995	-14.171951	3.229126
1493774815359	2.1350708	-13.97467	3.205307
1493774815359	0.2324524	-12.027359	1.4620667
1493774815360	-1.3232269	-10.047409	0.6353302
1493774815360	-1.6658783	-9.268631	0.698761
1493774815360	-0.35812378	-9.318512	0.30656433
1493774815361	-0.6772156	-9.060974	0.6031647
1493774815361	-0.80322266	-8.804947	0.7105713
1493774815361	-0.22644043	-8.478683	-0.20230103
1493774815361	0.23161316	-8.210388	-0.028060913
1493774815361	0.1330719	-8.086731	0.28736877
1493774815361	0.75172424	-8.306717	1.0320282
1493774815362	1.0904388	-9.587265	1.4000397
1493774815362	0.81114197	-10.84343	0.10346985
1493774815362	1.1865387	-10.599319	-1.303772
1493774815362	1.4579468	-10.663315	-1.9842682
1493774815362	0.91075134	-11.422089	-2.652237
1493774815362	-0.4271698	-11.804077	2.5240784
1493774815362	0.9890442	-11.924683	0.5647278
1493774815363	1.5006714	-12.205765	-0.10939026
1493774815363	0.15397644	-13.361496	-2.4144287
1493774815363	0.6012268	-14.386307	-2.2179565
1493774815363	2.3697357	-14.754776	-1.9220734
1493774815363	0.6256714	-14.003983	-2.8947754
1493774815363	-3.5559387	-12.926239	-3.5026855
1493774815363	-3.9737244	-11.177109	0.31428528
1493774815364	-6.2031097	-11.416672	5.3891144
1493774815364	-7.052719	-13.690033	4.1311646
1493774815364	-5.7462463	-14.402878	0.8907776
1493774815364	-1.5522156	-13.632767	-1.0335846
1493774815364	3.8964539	-12.1489105	-1.6114502
1493774815364	4.493866	-11.163635	-0.94699097
1493774815365	0.48147583	-9.6536255	0.27729797
1493774815365	-0.84780884	-7.92836	1.7233276
1493774815365	-2.2794952	-6.42041	3.0713806
1493774815365	-3.039093	-6.0005035	3.1538544
1493774815365	-2.912445	-5.266266	2.3626404
1493774815365	-2.5735626	-4.9961395	1.769928
1493774815365	-2.51503	-4.1071167	2.3743439
1493774815366	-2.544098	-2.923294	2.8177338
1493774815366	-2.0904083	-2.2544708	2.261612
1493774815366	-1.6148987	-2.1937103	1.2013702
1493774815366	-1.1493073	-3.6043396	-1.0113373
1493774815366	0.05291748	-8.472595	-7.5686646
1493774815366	0.25334167	-15.757004	-14.842499
1493774815366	0.24920654	-19.346634	-14.554855
1493774815367	0.3376007	-16.926773	-9.791748
1493774815367	-0.11289978	-11.150284	-5.320999
1493774815367	-0.8887329	-5.935211	-3.7321625
1493774815367	-4.763138	-7.9963837	-4.298172
1493774815367	-6.9873962	-15.076828	-2.705719
1493774815367	-4.0543976	-16.981995	1.3578033
1493774815368	-3.9594116	-10.464249	2.926117
1493774815368	-4.141571	-4.45961	5.2611847
1493774815368	-2.1099243	-6.6180573	5.793106
1493774815368	0.51553345	-11.554382	4.681198
1493774815368	1.6316376	-12.869156	2.9938202
1493774815368	0.34501648	-11.765564	2.0270844
1493774815369	-0.66871643	-11.327789	1.7083893
1493774815369	-0.7602844	-11.602676	1.03862
1493774815369	0.06324768	-11.279877	0.9502411
1493774815369	0.8085327	-10.502441	0.8669739
1493774815369	1.1912842	-9.83342	0.68670654
1493774815369	1.7474823	-9.334717	1.089386
1493774815370	2.1077576	-9.241608	0.71409607
1493774815370	2.3036804	-9.384201	2.085495
1493774815370	1.2202911	-9.131393	1.3510132
1493774815370	0.5157776	-10.133148	-0.6457825
1493774815370	1.3919678	-10.553467	0.35968018
1493774815370	0.47880554	-9.733353	-1.0440979
1493774815370	-2.295868	-8.932175	0.1320343
1493774815371	-1.5906677	-9.042313	1.8458405
1493774815371	2.4391937	-10.17215	1.5419312
1493774815371	5.1891937	-11.361725	0.8503723
1493774815371	4.607147	-11.327042	-0.2624359
1493774815371	2.390976	-9.899612	-1.1647644
1493774815371	-0.3435974	-9.261551	-2.9839325
1493774815372	-0.35671997	-9.083817	-2.8855438
1493774815372	-1.479248	-8.919601	-2.2876282
1493774815372	-3.6347046	-11.646042	-1.4087372
1493774815372	-6.654663	-13.65094	-0.6946411
1493774815372	-7.002014	-13.384781	2.8812866
1493774815372	-4.282837	-12.126236	3.4514618
1493774815372	-2.6924286	-11.276016	2.9218903
1493774815373	-1.504425	-12.492416	0.9914551
1493774815373	-2.5235443	-11.809067	0.107177734
1493774815373	-4.1194305	-9.909958	0.34898376
1493774815373	-3.2313385	-8.869888	0.42504883
1493774815373	-1.6182098	-8.947418	-0.11541748
1493774815373	-0.20863342	-8.7211	-0.51802063
1493774815374	0.44676208	-8.204514	-0.76509094
1493774815374	0.88305664	-7.3831787	-1.1353302
1493774815374	0.91737366	-6.1260376	-1.4163666
1493774815374	0.07507324	-5.305313	-1.9167328
1493774815374	-0.36509705	-5.759384	-2.764511
1493774815374	0.2180481	-6.452881	-3.4631958
1493774815375	0.9720459	-6.9144897	-4.2894287
1493774815375	1.7330017	-7.698349	-5.8933105
1493774815375	2.2693176	-8.946442	-7.2938538
1493774815375	2.659958	-10.205383	-8.120026
1493774815375	2.3017426	-10.565811	-8.640015
1493774815375	1.2691498	-9.724396	-7.840805
1493774815375	0.82632446	-9.949005	-7.0766754
1493774815376	-0.8044586	-11.413986	-1.3641663
1493774815376	-6.1447296	-11.291565	2.8166656
1493774815376	-9.671738	-9.393158	-0.37606812
1493774815376	-7.148224	-7.2502747	3.2904816
1493774815376	-2.0282898	-8.548752	4.98053
1493774815376	1.9424286	-11.833206	3.118454
1493774815376	4.5967865	-13.160721	2.1453552
1493774815377	4.7372437	-12.759491	2.6513824
1493774815377	1.9857788	-11.396423	3.169876
1493774815382	0.41171265	-10.033066	2.1101532
1493774815382	-1.5415039	-9.537247	1.5005951
1493774815382	-1.6113434	-10.230469	1.12854
1493774815382	-1.9563751	-10.686813	1.684021
1493774815383	-2.2761536	-9.483398	2.5487213
1493774815383	-1.4177094	-8.467453	1.535492
1493774815383	0.18727112	-8.793686	0.7809601
1493774815383	1.4424591	-9.25882	2.526474
1493774815383	2.3802948	-10.075195	1.8362732
1493774815383	3.2450867	-10.283371	0.85824585
1493774815383	3.43219	-9.841827	0.12283325
1493774815384	2.9090424	-9.454376	0.3242035
1493774815384	1.1132965	-9.391541	0.07362366
1493774815384	-0.32795715	-9.811935	-0.02809143
1493774815384	-0.35835266	-10.817947	-0.8968353
1493774815384	-0.11703491	-10.80423	0.11500549
1493774815384	-1.1531372	-11.33313	0.29330444
1493774815384	-1.1217194	-11.750397	-0.33717346
1493774815385	-0.2811432	-11.600067	-0.6187744
1493774815385	-0.14399719	-11.201294	-1.2003326
1493774815385	-1.418396	-11.472275	-2.658554
1493774815385	0.44189453	-12.766785	-3.2387848
1493774815385	4.0750732	-13.757584	-1.6961975
1493774815386	3.6690216	-13.206558	-2.3303375
1493774815386	0.97869873	-12.026993	-3.2272491
1493774815386	-2.7724152	-11.681351	-0.4962921
1493774815386	-4.9407043	-11.260742	1.9486694
1493774815386	-5.5264435	-12.305206	4.2769775
1493774815386	-5.209091	-13.816223	3.602356
1493774815386	-3.6026	-13.387497	1.5263824
1493774815387	0.13552856	-12.412231	-0.9522095
1493774815387	2.3766174	-11.94104	-1.7364349
1493774815387	2.0440216	-11.0616	-1.3914185
1493774815387	0.98561096	-9.763992	0.86468506
1493774815387	-0.21864319	-8.235397	2.2578888
1493774815387	-1.9553528	-6.863571	2.4733582
1493774815387	-3.0250092	-5.8618164	2.225418
1493774815388	-3.3558197	-5.0214844	1.4337616
1493774815388	-2.66922	-4.374649	1.2368927
1493774815388	-2.0969543	-3.943924	1.737381
1493774815388	-2.2761078	-3.0887299	2.6358948
1493774815388	-2.1420135	-2.5133972	2.7093964
1493774815388	-1.5997162	-3.0493011	1.842392
1493774815388	-0.40660095	-5.6809235	-0.8125
1493774815389	0.4096527	-11.993729	-8.039825
1493774815389	1.8495789	-17.795654	-16.482437
1493774815389	3.9790497	-19.474823	-15.071564
1493774815389	3.555313	-13.010971	-6.3694763
1493774815389	0.4215088	-3.6100922	-0.66316223
1493774815392	-2.6187134	-0.51690674	-0.91999817
1493774815392	-6.217209	-6.8274994	-1.5628967
1493774815393	-5.612503	-15.344925	-0.24453735
1493774815393	-0.5579834	-16.753387	-3.5357208
1493774815393	-0.40634155	-12.327789	0.15461731
1493774815394	-5.497696	-5.578171	5.0509033
1493774815395	-6.187378	-4.0342255	4.7368164
1493774815395	-0.15086365	-7.927582	4.7221985
1493774815395	3.5065765	-11.580521	4.629181
1493774815395	3.883484	-13.263321	3.0102234
1493774815395	2.3722076	-13.091049	2.2734833
1493774815395	0.70980835	-11.330765	0.7123871
1493774815395	-1.6832733	-9.893021	1.4199066
1493774815395	-2.2830048	-9.380051	1.1981812
1493774815395	-2.146759	-9.408783	0.86676025
1493774815395	-1.9798431	-9.010452	0.79623413
1493774815395	-1.322464	-8.956406	-0.4032135
1493774815396	-0.94462585	-9.046204	-0.014755249
1493774815396	-0.27944946	-8.602432	0.3479004
1493774815396	0.67051697	-8.646576	1.3567352
1493774815396	1.6411743	-9.389175	2.0079498
1493774815396	1.1208801	-9.558197	1.3242493
1493774815396	1.0484619	-9.518555	-0.1376648
1493774815396	1.2756805	-9.858398	-1.2645264
1493774815396	1.519989	-10.351257	-1.337143
1493774815397	1.2665405	-11.315964	-1.0078888
1493774815397	-0.64152527	-12.17511	-1.9258728
1493774815397	0.3173523	-12.284531	-1.8347778
1493774815397	1.5539703	-12.1671295	-0.92007446
1493774815397	0.14198303	-12.469727	-1.802948
1493774815397	-1.1927032	-13.726929	-3.7703705
1493774815397	1.5922699	-13.036346	-2.4792328
1493774815397	2.017044	-12.884064	-3.1432343
1493774815397	1.4679108	-13.975128	-3.3888855
1493774815397	-1.5435944	-13.062332	-1.3023529
1493774815397	-3.8466034	-12.182236	2.1325684
1493774815397	-4.3965454	-13.4414215	4.958191
1493774815397	-3.8278809	-14.177826	3.928131
1493774815397	-3.5523376	-13.891144	0.491333
1493774815397	-0.9491577	-12.529388	-2.007141
1493774815397	2.6718597	-11.733688	-0.98184204
1493774815397	1.7796936	-10.156403	0.30070496
1493774815397	0.063964844	-8.676651	2.2057037
1493774815397	-1.3042908	-7.327469	3.1246643
1493774815397	-2.3234253	-6.3613434	2.9946747
1493774815397	-2.7055511	-5.4474335	2.5709534
1493774815397	-2.890335	-4.8917084	1.7797089
1493774815397	-2.7674713	-4.444458	1.2959747
1493774815397	-2.7996368	-3.852417	1.7939911
1493774815397	-2.5867462	-2.7483673	2.8978271
1493774815397	-1.8991852	-1.9872131	2.8424988
1493774815397	-1.6961823	-2.5269928	1.5250854
1493774815397	-1.0467224	-6.2229004	-2.0781555
1493774815397	-1.8171997	-15.048035	-13.416733
1493774815397	-0.42503357	-19.474823	-19.722397
1493774815397	0.9438324	-19.474823	-12.200638
1493774815397	-0.23321533	-10.321091	-3.750412
1493774815397	-1.4495544	-1.346817	-2.027008
1493774815398	-6.090744	-5.4544525	-5.395111
1493774815398	-7.501465	-13.746948	0.13868713
1493774815398	-1.6287231	-14.9735565	0.438797
1493774815398	1.9985046	-10.377228	5.425949
1493774815398	-1.7645111	-5.5070343	4.696213
1493774815398	-2.0815277	-6.1145935	4.834503
1493774815398	0.46006775	-10.018356	5.119385
1493774815398	1.6887054	-11.673645	3.5106964
1493774815398	2.3422394	-12.28598	2.5785065
1493774815398	1.6224365	-11.385635	1.9145966
1493774815398	-0.6444702	-10.4783325	0.70510864
1493774815398	-1.5173035	-10.075912	1.4832153
1493774815398	-1.7493439	-10.063263	0.40512085
1493774815398	-2.1042633	-9.753967	0.7698517
1493774815398	-1.890152	-9.340637	0.28385925
1493774815398	-1.0714569	-8.870819	0.07888794
1493774815398	0.026519775	-8.374817	0.4803009
1493774815398	0.61624146	-8.23233	1.4527893
1493774815398	1.6015167	-9.087418	1.5102997
1493774815398	1.8029785	-9.454086	1.2581329
1493774815398	1.2065735	-9.233154	0.23577881
1493774815398	1.0239868	-9.423401	-0.59739685
1493774815398	1.3197632	-9.595764	-1.2691956
1493774815398	1.7217865	-10.098801	-1.2965393
1493774815398	0.8886261	-10.858902	-0.97239685
1493774815398	-0.3254242	-11.2547	-1.5429382
1493774815398	0.8967743	-11.519943	-0.45463562
1493774815399	0.49095154	-12.028107	-0.9501953
1493774815399	-0.41970825	-13.478668	-2.733261
1493774815399	1.0258179	-14.5681	-3.0438843
1493774815399	2.5631409	-14.165344	-1.7983246
1493774815399	1.5039978	-14.408218	-2.8937073
1493774815399	-1.548584	-13.472549	-3.3305054
1493774815399	-3.990265	-11.763901	0.5793152
1493774815399	-4.2777863	-11.549133	4.9596405
1493774815399	-4.502716	-13.389862	5.5223846
1493774815399	-4.5834656	-14.881439	1.4608307
1493774815399	-4.745529	-14.281631	-1.8752136
1493774815399	-0.5851593	-12.648621	-1.8809967
1493774815399	3.3677979	-12.026978	0.66355896
1493774815399	1.9712524	-10.654724	1.2900696
1493774815399	-0.30941772	-8.503296	2.152832
1493774815399	-1.5061646	-6.685272	2.8517609
1493774815399	-2.1622925	-5.626892	2.9934692
1493774815399	-2.6552734	-4.607498	2.7500458
1493774815399	-2.7319794	-3.9230194	2.2485046
1493774815399	-2.5848846	-3.4317322	2.3544464
1493774815399	-2.6898193	-2.3982697	2.965744
1493774815399	-2.3388062	-1.3941498	2.9581604
1493774815399	-1.8571625	-1.5188599	2.1670685
1493774815399	-1.2285004	-4.152542	-0.48651123
1493774815399	-0.47036743	-12.485535	-12.657318
1493774815400	-1.3261261	-18.29132	-18.3889
1493774815400	-0.97006226	-19.474823	-14.452774
1493774815400	-0.12385559	-11.717667	-6.3852234
1493774815400	-1.4347687	-2.864914	-2.6362457
1493774815400	-3.854065	-0.6151886	-2.3323212
1493774815400	-7.4161987	-7.664795	-1.4234314
1493774815400	-4.8741913	-13.826309	1.8116913
1493774815400	0.64224243	-16.724884	-2.9085999
1493774815400	2.388733	-15.149719	-0.71698
1493774815400	-2.1093903	-5.4388885	7.2485504
1493774815400	-6.3921967	-3.6067505	4.2456055
1493774815400	-1.0411835	-6.8176117	4.360031
1493774815400	3.2739716	-10.581451	5.1575623
1493774815400	4.070114	-13.336502	3.2726288
1493774815400	2.4008179	-13.483902	2.3706512
1493774815400	-0.023284912	-11.200348	0.30004883
1493774815400	-1.4131775	-9.91423	0.8934021
1493774815400	-1.7640533	-9.437866	0.7950134
1493774815400	-1.8179626	-9.045197	0.81895447
1493774815400	-1.6570282	-8.812607	0.8358002
1493774815400	-1.0701447	-8.783661	0.42608643
1493774815400	-0.3620453	-8.588882	1.1520386
1493774815400	0.17404175	-9.025574	1.5770416
1493774815400	1.3383484	-8.64711	1.1047974
1493774815400	2.3640747	-9.231567	0.92497253
1493774815400	2.1880798	-9.707199	0.06803894
1493774815400	1.8883362	-9.7443695	-0.3592682
1493774815400	2.0421906	-10.201736	-1.0674591
1493774815400	2.5620575	-10.456696	-1.2519989
1493774815400	1.9038696	-11.606003	-1.3995056
1493774815400	0.20576477	-12.3013	-1.8738251
1493774815400	0.20150757	-12.149368	-1.3988647
1493774815400	0.16955566	-11.880325	-0.9622345
1493774815400	-1.3065491	-12.564255	-2.8327637
1493774815400	-0.092819214	-14.048691	-3.9681854
1493774815400	3.4691925	-14.727814	-2.1811981
1493774815400	3.18013	-14.233704	-3.0559082
1493774815400	0.66378784	-13.249786	-2.285431
1493774815401	-2.8275757	-12.056564	0.55158997
1493774815401	-4.041168	-11.863007	4.9081726
1493774815401	-3.495407	-13.15007	4.735138
1493774815401	-2.8819427	-14.464493	1.3645325
1493774815401	-2.16362	-14.681641	-1.7346497
1493774815401	1.3488464	-13.797836	-0.9691162
1493774815401	2.7827606	-12.892441	1.2973633
1493774815401	0.6098633	-10.579422	1.4224548
1493774815401	-0.86605835	-7.78183	1.8289948
1493774815401	-1.4226837	-5.789749	2.8682556
1493774815401	-2.341095	-4.758545	2.8936615
1493774815401	-2.8734741	-4.0772552	2.7848053
1493774815401	-2.9628448	-3.7922974	2.7069244
1493774815401	-2.964264	-3.58432	2.5757751
1493774815401	-2.9546814	-2.6350555	2.808014
1493774815401	-2.1651459	-1.7646484	2.5800323
1493774815401	-1.431839	-2.06958	1.7433472
1493774815401	-0.42074585	-5.4631195	-1.306778
1493774815401	-1.3437958	-13.719482	-12.890991
1493774815401	-0.75331116	-18.690918	-19.048874
1493774815401	1.5172119	-19.474823	-12.682068
1493774815401	-0.19076538	-10.892014	-4.663498
1493774815401	-1.8708801	-2.5577393	-2.2546387
1493774815401	-3.201828	-1.035492	-3.896698
1493774815401	-6.8353424	-8.187302	0.5419769
1493774815401	-3.5793915	-13.112549	2.9693146
1493774815401	0.93959045	-17.684464	-5.612488
1493774815401	-1.2647552	-13.453003	2.0219727
1493774815401	-4.8959503	-5.534958	5.6047974
1493774815401	-2.9759827	-4.8704376	5.038925
1493774815401	2.74057	-8.287796	3.9591827
1493774815401	4.7516327	-11.390457	3.6964264
1493774815401	4.583969	-13.579483	2.9737854
1493774815401	2.6716766	-13.04303	1.6830292
1493774815401	-0.8982849	-10.493942	0.024536133
1493774815401	-2.0393524	-9.204971	1.0638275
1493774815401	-2.0982666	-9.057785	0.32684326
1493774815401	-2.6821747	-8.756775	0.5688324
1493774815401	-1.7719421	-8.740326	0.14492798
1493774815401	-1.065094	-9.303711	-0.5942688
1493774815401	-0.025756836	-9.088654	0.2181549
1493774815402	0.6640625	-8.821732	1.0946655
1493774815402	1.189621	-8.9075775	1.6629639
1493774815402	1.6749115	-9.37236	1.3082275
1493774815402	1.4828186	-10.034729	-0.4035797
1493774815402	1.3956299	-10.369232	-1.6008759
1493774815402	1.6000977	-10.500626	-1.6560974
1493774815402	0.9816284	-11.42157	-0.9283905
1493774815402	-0.95970154	-11.991348	-0.6119232
1493774815402	-0.20381165	-11.776688	-0.7252197
1493774815402	1.0118561	-11.407547	-0.6378479
1493774815402	0.3549347	-12.209015	-1.885437
1493774815402	0.57684326	-13.486206	-2.2292938
1493774815402	2.0132751	-14.119461	-1.6438599
1493774815402	1.9803772	-13.97554	-2.2250366
1493774815402	0.21255493	-12.829361	-2.1834717
1493774815402	-2.8175201	-11.659683	-0.06614685
1493774815402	-4.6912384	-11.002457	2.0507965
1493774815402	-6.0262756	-12.712753	3.67688
1493774815402	-5.839554	-14.992905	3.5931244
1493774815420	-3.6974182	-14.560822	2.2857513
1493774815439	-0.38130188	-12.667709	0.07304382
1493774815460	3.0419312	-11.366272	-0.86535645
1493774815479	2.7183533	-10.282745	-1.0486603
1493774815500	0.16548157	-9.220856	0.33210754
1493774815519	-1.133316	-7.983963	2.113861
1493774815536	-2.1235046	-6.951828	2.8356476
1493774815559	-2.4344482	-6.399414	2.975357
1493774815578	-2.7782745	-5.925766	2.7050323
1493774815599	-3.3466034	-5.4602966	2.3756409
1493774815618	-3.7882385	-4.8038025	2.2037506
1493774815634	-3.4340973	-3.538391	2.5355988
1493774815658	-2.2733612	-2.6040344	2.511917
1493774815677	-1.650238	-2.3355408	1.7402802
1493774815697	-0.6995392	-4.558441	-1.2734985
1493774815717	-0.5121155	-10.7039795	-7.61145
1493774815734	-0.93785095	-18.007996	-17.138275
1493774815757	1.7539215	-19.474823	-17.09642
1493774815776	2.1296387	-14.811661	-7.863083
1493774815796	1.1259003	-5.8025513	-1.8220062
1493774815815	-0.46025085	-0.53660583	-2.3615723
1493774815834	-5.279373	-6.3192596	-3.6912842
1493774815855	-4.51355	-14.781723	2.307663
1493774815875	1.7261047	-17.893906	2.1313019
1493774815895	-2.3574677	-13.416595	-5.652832
1493774815914	-5.7366486	-3.889206	3.1667328
1493774815935	-5.1196747	-2.5248413	7.432419
1493774815954	0.18060303	-8.008469	4.1221466
1493774815973	2.701355	-11.967331	4.228485
1493774815993	2.7279663	-13.124039	3.5958405
1493774816014	2.3921661	-12.486191	1.3272095
1493774816054	1.0327911	-11.08165	0.66275024
1493774816073	-0.71525574	-9.768433	0.70355225
1493774816093	-1.8978424	-9.177612	1.8457184
1493774816113	-1.4050751	-9.420441	0.7126007
1493774816132	-1.9072418	-8.976883	0.9016266
1493774816153	-0.8828583	-8.8133545	0.385437
1493774816172	0.3022766	-8.971313	-0.35575867
1493774816194	0.752655	-8.701431	0.28001404
1493774816212	1.2178802	-8.731094	1.2111206
1493774816231	2.0185394	-9.377335	1.6620331
1493774816251	1.8603363	-10.333008	0.6702881
1493774816271	1.8751984	-10.522003	-1.1288757
1493774816291	1.8619843	-10.240921	-2.0136871
1493774816311	0.36705017	-10.786041	-0.95233154
1493774816330	-1.2849884	-11.154694	-0.38232422
1493774816350	-0.55914307	-11.432541	-0.40452576
1493774816370	0.7542877	-11.986176	-0.12458801
1493774816389	0.31724548	-12.28183	-0.48942566
1493774816410	-0.62615967	-12.792633	-1.749588
1493774816429	0.8990936	-13.420151	-2.5137634
1493774816446	3.6362152	-13.30304	-2.552719
1493774816468	3.1212616	-13.61441	-3.3382263
1493774816488	-0.0599823	-13.419205	-2.3560028
1493774816509	-3.8233032	-11.991425	-0.030166626
1493774816528	-5.7355347	-11.642914	3.3785248
1493774816545	-5.6994934	-12.4646	4.468506
1493774816568	-4.492386	-12.775314	1.7143402
1493774816586	-2.6265411	-12.479446	-1.2411194
1493774816608	1.3545532	-12.064713	-1.2050018
1493774816627	3.6214447	-11.202148	-0.3154297
1493774816644	1.369812	-9.98317	0.6221161
1493774816667	-0.7466583	-8.710419	2.0032654
1493774816686	-1.8431091	-7.301605	2.5912933
1493774816706	-2.3401794	-6.4125366	2.0835876
1493774816726	-2.2763062	-5.71579	1.4161072
1493774816745	-2.3674011	-5.1868286	1.0714417
1493774816766	-2.7882233	-4.7105103	1.2332764
1493774816785	-3.1868591	-3.815155	2.0659027
1493774816805	-2.6736298	-2.6848907	2.5428467
1493774816825	-1.7980957	-2.417282	2.2410736
1493774816842	-1.7761688	-3.0774841	1.0166168
1493774816865	-0.55870056	-7.2009125	-3.2855225
1493774816884	0.0715332	-15.371979	-14.326218
1493774816904	2.050537	-19.051208	-19.197296
1493774816924	1.3952179	-19.474823	-11.923737
1493774816944	0.65753174	-9.558899	-4.4654846
1493774816964	-0.37644958	-2.009842	-2.2266083
1493774816983	-5.9351654	-6.6723175	-2.0669403
1493774817003	-8.762909	-16.199905	0.16137695
1493774817023	0.62083435	-15.908646	1.1142883
1493774817041	-1.3034973	-8.925293	0.97229004
1493774817063	-5.0244446	-2.0476227	4.752365
1493774817083	-3.3884888	-3.1921997	5.231659
1493774817122	1.8982544	-11.1124115	5.387024
1493774817142	3.353424	-13.632156	4.258438
1493774817162	3.4629517	-13.458054	1.9290466
1493774817181	2.4111023	-11.250305	2.55159
1493774817202	0.29037476	-9.150269	0.6483612
1493774817221	-1.3094635	-9.388184	1.0675659
1493774817240	-1.528305	-9.559296	1.1244507
1493774817261	-1.4473724	-9.823074	0.47755432
1493774817279	-1.5678253	-9.44342	0.3544464
1493774817300	-2.0483246	-8.864975	0.47647095
1493774817321	-1.388794	-8.685562	0.7693176
1493774817339	0.37243652	-8.680969	0.9007416
1493774817359	1.6182251	-9.265213	1.3637543
1493774817379	1.7452393	-9.772614	1.4442291
1493774817398	1.2462921	-9.949905	0.44381714
1493774817419	1.0535126	-10.098755	-0.7753601
1493774817434	1.3313446	-10.154816	-1.8333282
1493774817457	1.5085449	-10.418533	-1.8970947
1493774817477	0.72554016	-10.932236	-1.418045
1493774817497	-0.16519165	-11.237427	-1.3469696
1493774817517	0.7689972	-11.400406	-1.2608795
1493774817537	1.3774872	-11.577499	-1.213501
1493774817553	0.39183044	-12.334	-2.6612244
1493774817576	1.0141144	-13.636002	-3.25148
1493774817595	2.4904175	-14.578659	-2.9471436
1493774817616	2.4141235	-14.218658	-3.058792
1493774817635	0.58317566	-13.149979	-2.150299
1493774817654	-2.5041046	-12.497223	0.35180664
1493774817674	-4.819992	-13.168747	4.1111755
1493774817694	-5.9297943	-14.093765	4.8242035
1493774817715	-5.2658997	-14.201874	2.6220245
1493774817733	-2.143509	-13.79129	-0.57095337
1493774817754	2.2681885	-12.631882	-2.288208
1493774817777	2.7328033	-10.892395	-1.535965
1493774817790	0.9896698	-9.267578	0.70539856
1493774817808	-0.6252899	-7.573654	2.705185
1493774817833	-1.7853546	-6.096115	3.316513
1493774817851	-2.1826477	-5.3297577	2.7197266
1493774817873	-2.4419098	-4.9965363	1.75737
1493774817892	-2.6952515	-4.7135925	1.3840942
1493774817912	-3.2292633	-4.3261566	1.4649353
1493774817932	-3.3082123	-3.6269531	2.5725098
1493774817950	-2.399887	-2.7316284	3.1003876
1493774817972	-1.6916962	-2.4456482	2.5407104
1493774817991	-0.9571991	-4.306656	0.15235901
1493774818011	-0.04650879	-10.388275	-6.9071198
1493774818027	-1.5897675	-18.488724	-17.51474
1493774818054	0.94815063	-19.474823	-16.858246
1493774818072	0.41334534	-15.846832	-7.577347
1493774818090	-0.6656189	-8.124588	-2.0947723
1493774818111	-1.0939178	-2.9120636	-3.1980286
1493774818131	-5.894165	-8.152542	-5.958267
1493774818148	-4.813858	-13.665985	1.5956116
1493774818170	2.633377	-13.659805	5.374237
1493774818189	0.2297821	-10.666763	-0.8829346
1493774818229	-3.5645447	-4.3631287	4.1855927
1493774818247	-5.9704437	-5.4237823	3.7356262
1493774818269	0.44752502	-10.384277	4.6663513
1493774818286	3.6764832	-11.659561	3.560196
1493774818308	3.8611755	-11.550919	1.8967743
1493774818328	2.96875	-11.000015	1.8458405
1493774818347	0.7361908	-10.603088	1.519043
1493774818368	-0.98568726	-9.648483	0.4988098
1493774818387	-1.267807	-9.6249695	1.183258
1493774818407	-1.4904785	-9.732986	0.5784302
1493774818427	-1.8813629	-9.167877	0.6739044
1493774818446	-1.5587616	-8.800018	0.04978943
1493774818467	-0.19676208	-8.782867	0.8202362
1493774818486	1.0215302	-9.109863	1.5566101
1493774818506	1.8846741	-9.773682	0.99742126
1493774818524	1.6364441	-9.841461	0.5296173
1493774818545	1.1119232	-9.778976	-0.22607422
1493774818565	1.1026154	-9.908905	-0.6458893
1493774818581	1.3560028	-10.081116	-1.1657562
1493774818601	1.5030518	-10.521561	-1.4137115
1493774818623	0.4754486	-11.163086	-1.751648
1493774823313	-0.46765137	-11.441483	-1.9312439
1493774823313	0.5341644	-11.468124	-1.1172028
1493774823314	0.701416	-12.188278	-1.2691193
1493774823314	0.77145386	-13.967377	-2.0231323
1493774823314	1.4342957	-14.93161	-1.938797
1493774823314	1.5200958	-14.74028	-2.5335083
1493774823314	-0.023773193	-13.736618	-2.444275
1493774823314	-2.703888	-12.016342	-0.93995667
1493774823315	-4.0115356	-11.365662	3.2835846
1493774823315	-4.8226776	-12.4457245	5.523346
1493774823315	-4.9956207	-13.656235	3.0174255
1493774823315	-4.690872	-13.782288	-1.140152
1493774823315	-0.18104553	-12.666275	-1.9169769
1493774823315	3.036316	-11.971695	-0.26763916
1493774823316	2.70076	-10.836624	0.65771484
1493774823316	0.030410767	-8.836136	1.467102
1493774823316	-1.5797272	-6.728195	2.6240387
1493774823316	-2.3545227	-5.8682556	2.7382813
1493774823316	-2.6444244	-5.4331512	2.4009552
1493774823316	-2.5346832	-5.141861	1.6865082
1493774823316	-2.0845642	-4.7000885	1.2033691
1493774823317	-2.104126	-4.060959	1.8210297
1493774823317	-2.2626648	-2.8987732	2.8060608
1493774823317	-1.4957275	-2.120163	2.588791
1493774823317	-1.5019379	-2.2739258	1.678833
1493774823317	-0.7793884	-5.584732	-1.8208466
1493774823317	-1.2020416	-13.47496	-12.289398
1493774823317	0.0039978027	-19.051636	-17.981552
1493774823318	0.5756836	-19.474823	-13.332916
1493774823318	0.17308044	-11.937378	-5.503784
1493774823318	-0.9998932	-3.2765045	-3.210083
1493774823318	-6.1059265	-4.0052185	-3.8446655
1493774823318	-9.852127	-14.435959	-1.9107056
1493774823318	-0.47625732	-15.358673	3.098999
1493774823319	4.3768616	-13.644119	-2.342163
1493774823319	1.1878967	-5.9423676	4.7239227
1493774823319	-7.405716	-0.8971863	1.3685913
1493774823319	-3.0523376	-5.0231323	5.570923
1493774823319	2.5012817	-11.749603	5.3360443
1493774823319	2.8840027	-14.778427	3.3282776
1493774823319	1.9611969	-13.6718445	2.2125854
1493774823320	0.0075531006	-10.808212	1.4420624
1493774823320	-0.73043823	-9.345825	0.9569092
1493774823320	-0.3687439	-9.555435	1.1277008
1493774823320	-0.54600525	-9.849579	0.7707672
1493774823320	-1.3165588	-9.562439	0.6104584
1493774823320	-1.507782	-9.557144	0.43148804
1493774823320	-1.102005	-9.244064	-0.318573
1493774823321	-0.21508789	-8.677475	0.020858765
1493774823321	0.60531616	-8.625244	0.1279602
1493774823321	1.1854553	-8.894394	-0.12081909
1493774823321	2.0366821	-9.305069	-0.39231873
1493774823321	2.5258942	-9.540817	1.1078033
1493774823321	1.7396545	-9.774475	1.0307312
1493774823322	0.69062805	-10.151779	-0.53556824
1493774823322	-0.13356018	-10.719513	-1.6507721
1493774823322	-1.0621643	-11.257675	-2.174652
1493774823322	-0.12890625	-11.880875	-1.3070526
1493774823322	1.2076416	-12.489273	-0.6678009
1493774823322	0.8466797	-13.055588	-2.2776031
1493774823323	1.3293915	-13.505127	-2.4853973
1493774823333	2.7139282	-14.400635	-1.9580231
1493774823333	2.657135	-14.876694	-3.2414093
1493774823334	-0.4707489	-13.5312805	-3.1085205
1493774823334	-2.9693604	-11.471176	-0.89149475
1493774823334	-4.1410065	-11.222519	3.4174194
1493774823334	-4.382553	-12.8815	4.6990356
1493774823334	-3.670227	-14.068863	2.1745453
1493774823335	-3.6132355	-13.641129	-2.0377655
1493774823335	0.54467773	-12.669983	-2.1455078
1493774823335	3.0089264	-11.562241	-0.22177124
1493774823335	0.44647217	-10.330582	0.9276428
1493774823336	-0.70210266	-9.17421	2.0167847
1493774823336	-2.1370392	-7.488556	2.654541
1493774823336	-2.698822	-6.3702087	2.3733063
1493774823336	-2.725113	-5.7300873	2.2080078
1493774823337	-2.3973083	-5.462631	1.5414429
1493774823337	-2.126114	-4.8782806	1.4076691
1493774823337	-2.3990479	-3.4580994	2.0289612
1493774823337	-2.1736755	-2.158081	3.048355
1493774823338	-1.4845734	-1.806366	2.8187714
1493774823338	-1.1420135	-2.4419403	1.3985443
1493774823338	0.025039673	-7.259079	-3.4830475
1493774823338	-2.8863678	-18.219131	-19.058609
1493774823338	1.4251556	-19.455292	-19.722397
1493774823338	2.489914	-18.747452	-7.234253
1493774823338	-0.08425903	-6.4881744	-2.553009
1493774823339	-0.9047699	-1.2097778	-4.575943
1493774823339	-6.91481	-10.583618	-5.081436
1493774823339	-4.910797	-17.276215	1.9932556
1493774823339	-0.1592102	-15.279266	1.281189
1493774823339	-1.2717438	-7.9887695	4.1039886
1493774823339	-3.7385406	-3.277771	6.1459503
1493774823340	-2.0462189	-6.107315	6.4191895
1493774823340	0.4092865	-10.949356	5.682007
1493774823340	1.6174164	-12.451096	2.6262665
1493774823340	3.136734	-13.411346	2.3243408
1493774823340	1.7966461	-12.390259	1.9326172
1493774823340	0.16581726	-10.376114	0.34127808
1493774823341	-0.9458771	-9.279694	0.4571991
1493774823341	-1.0708923	-9.266907	0.6481018
1493774823341	-0.978714	-9.587677	0.41555786
1493774823341	-1.087143	-9.529816	0.24575806
1493774823341	-0.6986847	-9.286377	0.031143188
1493774823341	-0.60092163	-8.963104	-0.031936646
1493774823342	0.1913147	-8.80336	-0.26663208
1493774823342	1.1470642	-8.74408	0.4580536
1493774823342	1.5887451	-8.953415	0.85331726
1493774823342	1.3961182	-9.122208	0.98217773
1493774823342	1.1489563	-9.261719	0.3166504
1493774823342	1.3328247	-9.383408	-1.0542755
1493774823342	1.7301941	-9.82048	-1.8496552
1493774823343	1.091629	-10.639252	-1.758667
1493774823343	0.15927124	-11.490997	-1.2996063
1493774823343	0.049331665	-12.111359	-0.8295746
1493774823343	-0.26115417	-12.095413	-1.1132202
1493774823343	-1.3111115	-12.725113	-3.42276
1493774823343	0.56196594	-14.042603	-4.263504
1493774823344	3.100769	-14.709427	-3.4636383
1493774823344	3.697174	-14.978928	-3.3028564
1493774823344	1.2709656	-13.876343	-2.6328125
1493774823344	-2.7648163	-12.188675	-0.007507324
1493774823344	-4.284195	-12.272202	4.517502
1493774823344	-3.3425598	-13.560623	4.77153
1493774823344	-2.6093597	-14.815155	1.8154907
1493774823345	-3.250412	-14.185333	-2.128479
1493774823345	0.29267883	-12.806381	-0.99035645
1493774823345	3.1068115	-11.551239	0.25704956
1493774823345	1.3556976	-10.34613	1.0607758
1493774823345	-0.21006775	-8.82814	1.8233643
1493774823345	-1.2875366	-6.754257	1.9508209
1493774823345	-1.9282684	-5.44429	2.6989288
1493774823346	-2.3252869	-4.816696	2.4232178
1493774823346	-1.9073334	-4.3978424	2.209549
1493774823346	-2.2670288	-4.046036	2.436798
1493774823346	-3.0735931	-3.2238922	2.9548035
1493774823346	-3.094223	-1.9518738	3.0848389
1493774823346	-2.0491333	-2.1789246	2.6143951
1493774823347	-0.6716156	-4.5344086	0.41880798
1493774823347	-1.2065582	-10.752838	-5.021576
1493774823347	-5.9327545	-19.474823	-19.222443
1493774823347	-0.60054016	-19.474823	-16.690964
1493774823347	1.5018921	-15.395309	-6.1795807
1493774823347	1.0183868	-7.830261	-2.1210632
1493774823348	0.03933716	-3.4381104	-5.0590057
1493774823348	-3.6828766	-6.2509003	-6.570221
1493774823348	-4.3327637	-14.302673	1.3850555
1493774823348	0.47772217	-15.633179	6.177231
1493774823348	-2.1608734	-13.932251	-5.7916718
1493774823348	-5.243393	-6.534958	3.745758
1493774823348	-5.1637115	-2.782135	7.7625732
1493774823349	1.2748566	-6.8637238	6.260849
1493774823349	4.4278107	-10.672028	3.5761108
1493774823349	4.0124207	-13.249802	2.3457031
1493774823349	2.714203	-13.063919	1.7569122
1493774823349	0.95573425	-11.337418	-0.22827148
1493774823349	-1.1554718	-9.1466675	0.29029846
1493774823349	-1.821991	-8.838654	1.1557312
1493774823350	-1.3609467	-9.157959	0.6776123
1493774823350	-0.88290405	-9.21843	0.25
1493774823351	-0.77767944	-9.177567	0.034561157
1493774823352	-0.701828	-9.120728	0.025039673
1493774823352	-0.023101807	-9.15036	0.5341644
1493774823352	1.1562042	-9.281845	0.76519775
1493774823352	1.5155029	-9.358215	0.5440674
1493774823352	1.2281189	-9.320435	0.058761597
1493774823352	1.1195679	-9.443832	-0.5133362
1493774823353	1.5006866	-9.774124	-1.0589294
1493774823353	1.5363464	-10.155365	-1.0993042
1493774823353	0.010787964	-10.502838	-1.4782104
1493774823353	-0.045135498	-10.929916	-1.2803497
1493774823353	1.6794434	-11.908829	-0.5432434
1493774823353	1.6173248	-13.028244	-1.345047
1493774823354	0.7438812	-14.193573	-3.561432
1493774823354	1.7111969	-14.282059	-3.5595703
1493774823354	2.6892853	-14.338913	-2.8244019
1493774823354	0.61299133	-14.119858	-2.30365
1493774823354	-3.2975006	-13.047562	-0.5679321
1493774823354	-4.7178955	-12.350632	3.73732
1493774823355	-4.975174	-13.384552	5.226303
1493774823355	-5.0776825	-14.59967	2.4891663
1493774823355	-5.5210876	-14.71463	-1.036789
1493774823355	-1.3181152	-13.169449	-1.8806915
1493774823355	2.920807	-11.427353	-0.5863495
1493774823355	1.6942749	-10.112137	0.31344604
1493774823356	-3.3569336E-4	-8.535019	1.7039032
1493774823356	-1.3636475	-6.6334686	2.7649536
1493774823356	-1.8490295	-5.50029	3.323349
1493774823356	-2.6831665	-4.8514404	2.1968384
1493774823356	-2.6114807	-4.373062	1.7607422
1493774823356	-2.6396942	-4.0364227	1.5862885
1493774823356	-2.9652557	-3.713974	2.547104
1493774823357	-2.7324219	-2.588562	3.5796204
1493774823357	-1.3892059	-2.4108734	2.984848
1493774823357	-1.8367004	-2.5246124	1.991806
1493774823357	-0.80166626	-6.459152	-2.550354
1493774823357	-1.2969666	-15.711441	-16.738419
1493774823357	0.7577057	-19.474823	-18.74591
1493774823357	0.41368103	-18.590134	-13.187744
1493774823358	-0.037734985	-8.376251	-4.8522186
1493774823358	-2.4711456	-2.136734	-2.6230469
1493774823358	-7.555588	-10.636124	-3.7361755
1493774823358	-5.3460236	-15.6649475	-0.6137848
1493774823358	2.6548615	-11.266327	4.5242615
1493774823358	-2.0633545	-4.0542297	4.7940216
1493774823359	-3.9722595	-2.8104248	2.8920898
1493774823359	-0.3111725	-8.344971	6.6126556
1493774823359	1.095993	-13.390961	4.8728027
1493774823359	2.1654816	-14.030167	1.9491119
1493774823359	2.9766846	-12.238388	1.801117
1493774823359	1.8204803	-10.264008	1.5291138
1493774823359	0.77407837	-9.62561	0.98609924
1493774823360	-0.30363464	-9.404755	0.6644745
1493774823360	-0.6931915	-9.347107	0.36502075
1493774823360	-1.1372528	-9.330399	0.15112305
1493774823360	-1.4994812	-9.046555	0.5697479
1493774823360	-1.023819	-8.802444	0.11973572
1493774823360	-0.07191467	-8.653076	-0.27340698
1493774823361	0.7864075	-8.517578	0.028427124
1493774823361	1.5761261	-9.021851	0.7488556
1493774823361	1.6124115	-9.704971	1.497055
1493774823361	1.0499268	-10.019043	0.830719
1493774823361	1.1752014	-9.876831	-0.79512024
1493774823361	1.2105408	-10.167847	-1.1743469
1493774823361	0.04827881	-11.079941	-1.035614
1493774823362	-0.88539124	-11.724899	-1.2669678
1493774823362	0.09738159	-12.130768	-1.0888672
1493774823362	1.3118744	-12.131989	-1.0203094
1493774823362	0.9198303	-13.094055	-3.0469055
1493774823362	3.0814972	-13.942322	-2.6714478
1493774823362	4.1202393	-14.640686	-1.9512177
1493774823364	3.0022736	-14.738129	-2.658661
1493774823364	-1.1558533	-13.606903	-2.0250092
1493774823365	-3.7942352	-11.707352	0.21009827
1493774823365	-4.6621704	-11.788864	5.5654755
1493774823365	-4.31279	-13.678253	5.7053833
1493774823370	-4.4613647	-15.5802	1.6341858
1493774823394	-3.1678314	-14.460098	-3.0892334
1493774823414	2.9001465	-13.419525	-2.073288
1493774823435	3.0355682	-11.44606	-0.44889832
1493774823454	1.3866577	-9.594269	1.1391602
1493774823473	0.070877075	-8.62236	1.7184143
1493774823494	-1.2573853	-6.4282074	2.5917816
1493774823513	-2.3359222	-5.030014	3.0324097
1493774823533	-2.522705	-4.1329346	2.5447388
1493774823553	-2.412857	-4.202835	2.0524597
1493774823571	-2.7440796	-3.8746033	1.981842
1493774823597	-3.1387177	-3.155365	2.8999023
1493774823649	-2.3352814	-2.194397	3.6636047
1493774823649	-1.310318	-2.2755585	3.0882416
1493774823668	-1.5541687	-3.4600677	0.9239502
1493774823688	-0.43634033	-9.085037	-5.229431
1493774823707	-2.934372	-19.206345	-19.722397
1493774823727	1.9495544	-19.474823	-18.375885
1493774823748	0.8513336	-18.00528	-7.742264
1493774823768	-0.9738159	-7.3695374	-2.19133
