accelerometer_timestamp	accelerometer_x_data	accelerometer_y_data	accelerometer_z_data
1493855946516	-1.2716064	5.435501	10.375153
1493855946535	-1.5711517	5.2246857	8.758835
1493855946555	-1.9054718	3.0114594	6.939636
1493855946575	-1.8651428	2.7298431	7.3645935
1493855946595	-0.64160156	3.4724884	8.166443
1493855946615	0.64437866	2.723114	9.709183
1493855946636	0.25595093	3.2927094	13.791748
1493855946655	-0.17965698	4.4134064	10.810043
1493855946675	-2.0864716	3.0736694	11.322586
1493855946695	-1.9575958	1.4307098	10.491806
1493855946714	0.41053772	2.3741913	10.067429
1493855946734	2.462326	3.955536	10.936798
1493855946754	2.1845245	4.0156555	10.5915985
1493855946774	1.0565033	2.7240143	8.91069
1493855946794	-0.21188354	1.976532	8.652817
1493855946814	-1.7143097	2.2439575	8.815567
1493855946834	-3.566986	2.818161	8.756744
1493855946854	-2.6477356	2.3125	8.674789
1493855946874	-0.6741638	2.324356	8.349228
1493855946893	-1.1940155	2.6131287	7.410202
1493855946913	-1.7641296	2.93042	8.83313
1493855946933	-0.8437042	3.3016052	9.120743
1493855946953	-1.878067	2.4157104	8.7535095
1493855946973	-2.701416	1.7740784	10.582809
1493855946993	-2.8548431	1.6885834	10.91185
1493855947013	-2.6510162	2.1268005	9.831512
1493855947033	-2.3938293	2.3291473	9.717407
1493855947053	-1.9051819	2.4285278	9.408737
1493855947072	-1.1939087	3.0746613	8.437622
1493855947092	-1.2331238	3.3032532	7.8526
1493855947112	-2.0595245	2.53833	8.574478
1493855947133	-1.787323	1.8444366	8.241409
1493855947153	-0.13093567	1.9263916	7.3295593
1493855947173	2.549759	3.1167603	6.1551056
1493855947194	3.0845032	1.677124	4.911316
1493855947212	2.5374298	-2.3727264	5.695282
1493855947232	1.3036499	-4.7535706	4.1066895
1493855947252	1.2582245	-4.93985	0.5180664
1493855947271	3.1559448	-6.876831	-1.0068207
1493855947311	5.199005	-8.576477	-0.88261414
1493855947331	9.449341	-3.239746	0.13851929
1493855947351	12.193909	-7.3210144	3.0915985
1493855947371	7.409134	-9.69812	5.76886
1493855947390	6.8507385	-11.942505	0.5070801
1493855947410	8.339783	-14.006989	-3.26622
1493855947430	12.669907	-15.424454	-0.49697876
1493855947450	17.448776	-15.148956	2.996582
1493855947470	19.42694	-13.002228	11.180954
1493855947490	19.461044	-13.439835	10.102264
1493855947510	19.461044	-9.789017	5.3744354
1493855947530	19.461044	-4.623459	7.2765045
1493855947550	19.461044	-1.1119995	5.8602448
1493855947570	19.461044	0.48364258	3.620102
1493855947590	19.35823	0.90802	2.017807
1493855947610	18.18805	0.5519409	-1.2018585
1493855947629	14.368881	-0.8320923	-4.1372223
1493855947649	8.045319	-3.4190369	-6.45401
1493855947669	-3.5583649	-8.89917	-10.10495
1493855947689	-2.639038	-5.868347	-0.42404175
1493855947709	3.4466858	-4.336838	2.4626007
1493855947729	2.7899323	-8.527496	2.5993042
1493855947750	2.6266937	-5.601822	0.21923828
1493855947770	4.6076508	-6.6158447	2.4400635
1493855947788	6.923065	-9.75029	0.5812073
1493855947808	10.1675415	-11.292038	2.6768188
1493855947828	8.205643	-16.367996	6.576828
1493855947848	10.154938	-16.506424	6.4824524
1493855947868	10.592056	-9.594528	2.9579163
1493855947888	12.650726	-6.3317566	1.4708252
1493855947908	17.222183	-2.792221	3.3200989
1493855947927	10.806137	-7.3910065	5.584091
1493855947947	-3.2928925	-13.363586	2.2139282
1493855947968	-1.6362	-5.4864655	1.2050934
1493855947987	1.4826813	-3.1922455	0.45532227
1493855948007	3.2461548	-2.3283386	1.6933289
1493855948027	3.3435059	-1.3418579	1.5469971
1493855948047	2.7406006	-0.95010376	0.877121
1493855948067	3.2807465	1.6184235	0.5554962
1493855948087	2.7863007	0.10508728	1.2969818
1493855948107	4.5232086	-5.1294403	2.0054169
1493855948127	7.9985504	-9.3675995	2.8605804
1493855948147	12.761948	-13.541809	4.7350464
1493855948170	17.545288	-14.434174	3.5746918
1493855948186	16.308609	-13.459106	1.5866394
1493855948206	11.434692	-11.621613	0.971756
1493855948226	10.369904	-7.7985535	0.80558777
1493855948246	5.668991	-1.516922	0.8806915
1493855948266	6.616394	-0.34013367	0.45869446
1493855948285	7.3827515	-5.565384	0.857605
1493855948305	5.568466	-8.433212	1.7164612
1493855948325	3.6895905	-10.490875	0.6407318
1493855948345	4.7654114	-10.223984	-0.6674347
1493855948365	6.350525	-6.467285	2.5487823
1493855948385	7.6279297	-4.19928	3.5811768
1493855948405	6.618271	-6.367264	1.258606
1493855948425	6.29599	-2.254593	0.016662598
1493855948445	4.9542084	-0.24334717	0.47323608
1493855948465	7.439453	-7.394409	0.8251953
1493855948485	9.011002	-13.36496	0.26060486
1493855948504	4.950012	-17.14444	6.352295
1493855948524	5.2559814	-11.032501	3.0835266
1493855948544	5.998642	-10.002945	0.914917
1493855948564	5.5745544	-8.431503	0.24861145
1493855948584	4.8311615	-7.4207306	-2.9093018
1493855948604	5.8088837	-9.683929	2.5629578
1493855948624	4.589905	-11.646622	1.4767761
1493855948644	4.36615	-8.909103	0.5472717
1493855948664	7.547653	-5.257889	-0.50279236
1493855948684	7.752304	-6.5220947	1.2780304
1493855948703	8.066437	-6.2798004	0.025650024
1493855948723	10.505692	1.3802032	4.0330048
1493855948743	6.1219025	-3.2804108	-0.71842957
1493855948763	2.2178955	-4.703064	-1.0621796
1493855948783	4.8849792	-12.818283	0.016799927
1493855948803	7.391342	-15.099747	2.2601624
1493855948823	4.8715973	-13.262192	-4.6966553
1493855948843	3.1659393	-8.064407	-1.2596893
1493855948863	0.6712494	-8.1427765	-3.599472
1493855948882	-2.9960632	-9.639618	-6.900421
1493855948902	2.8038025	-6.2566223	-1.506012
1493855948942	4.6126404	-8.644226	3.5460815
1493855948962	-8.446762	-19.342667	5.4812927
1493855948982	9.618774	-14.874573	-1.0154724
1493855949002	-1.433548	-13.397354	3.639862
1493855949022	-4.6093445	-13.198959	-2.516571
1493855949042	-1.2962341	-13.160812	1.234848
1493855949062	1.4324341	-9.574432	2.4295502
1493855949081	1.8950043	-6.6567535	0.96899414
1493855949101	-0.7300415	-7.2007904	2.0574646
1493855949121	-2.2443085	-7.0526886	0.48146057
1493855949141	-1.3683167	-5.98085	-1.2193451
1493855949161	-0.20314026	-5.3931274	0.028427124
1493855949181	-1.7183533	-6.164612	1.6753845
1493855949201	-2.4598694	-5.2723694	2.0509338
1493855949220	-2.2206116	-4.0518646	2.914627
1493855949240	-1.2429199	-3.7347717	2.4500275
1493855949260	-0.6398468	-4.0415955	1.1378326
1493855949280	0.52841187	-4.933075	-1.6765289
1493855949300	2.4968872	-7.2457275	-6.217682
1493855949320	3.3367004	-13.138214	-13.4782715
1493855949340	4.137268	-19.474823	-19.109024
1493855949360	4.8911743	-18.633957	-14.036957
1493855949380	0.5622406	-13.907761	-4.7008057
1493855949399	-1.1101227	-5.1721954	-3.1308594
1493855949419	-2.9992218	-0.24324036	0.29870605
1493855949439	-5.1698303	-5.2972565	3.5336761
1493855949459	-2.765564	-14.541183	1.251831
1493855949479	1.3958435	-18.579437	-2.9290314
1493855949499	2.2395325	-13.450195	1.1338043
1493855949519	-3.1031647	-4.996994	11.3033905
1493855949539	-6.8415527	-4.4797516	6.585556
1493855949559	-3.7731934	-8.886475	3.5760193
1493855949578	2.2167206	-12.841965	4.9254913
1493855949598	4.923355	-13.604446	2.9467468
1493855949618	3.907486	-12.019653	1.2187958
1493855949639	0.8534546	-9.619492	1.2364044
1493855949659	-2.53125	-8.911301	1.4284058
1493855976293	-2.9512482	-9.188507	0.4186554
1493855976293	-1.4331665	-9.142075	-0.23789978
1493855976293	-0.4249878	-8.311966	0.3187256
1493855976293	0.6755829	-7.4096985	1.2652893
1493855976293	1.2317352	-7.7521057	1.3585052
1493855976293	1.205307	-8.714096	1.4923401
1493855976293	0.7049866	-9.145447	1.8337555
1493855976293	-0.11579895	-9.29541	1.1327667
1493855976293	-0.24569702	-9.853851	-0.28219604
1493855976293	0.8253937	-10.6011505	-1.1168976
1493855976293	2.2839966	-11.648605	-1.3422852
1493855976294	2.2743073	-12.40213	-1.3877106
1493855976294	1.3765564	-12.238098	-2.6533966
1493855976294	1.9763489	-12.062622	-2.5601196
1493855976294	3.6344757	-12.376175	-2.185501
1493855976294	5.732071	-14.293884	-2.914856
1493855976294	6.7082367	-15.543381	-2.1928864
1493855976294	3.2857513	-15.844727	-2.8854065
1493855976294	-1.3193512	-14.2309265	-1.731842
1493855976294	-3.0044708	-12.252686	2.9955597
1493855976294	-3.140396	-12.533432	5.5147095
1493855976294	-2.28331	-14.213562	4.8746643
1493855976294	-2.0793304	-15.756805	1.5664825
1493855976294	-0.9632263	-14.932312	-2.3894043
1493855976294	1.7584991	-11.566544	-0.35429382
1493855976294	3.538803	-9.403473	2.2674713
1493855976294	2.8275452	-8.557388	2.4172668
1493855976294	0.9819031	-7.432129	1.4048004
1493855976294	-1.2048187	-5.858307	2.4298859
1493855976294	-2.2758636	-4.042755	3.425415
1493855976294	-2.6567535	-3.5518036	3.261917
1493855976294	-2.7545013	-4.139221	2.9493713
1493855976294	-3.0315094	-4.166733	3.173233
1493855976294	-2.9260864	-2.7853088	3.7161102
1493855976294	-3.1588898	-2.1950226	3.6328735
1493855976294	-2.0409088	-3.9683075	2.0615387
1493855976294	-0.35243225	-8.124374	-2.29068
1493855976294	-0.5479889	-16.984894	-17.9861
1493855976294	7.548935	-19.338257	-19.722397
1493855976294	7.907257	-19.474823	-3.2359772
1493855976294	0.5015259	-7.5787506	-2.3668976
1493855976295	-5.1943054	-6.798416	0.6048126
1493855976295	-5.5985107	-13.737152	-0.66137695
1493855976295	1.970459	-14.866119	1.6154938
1493855976295	1.6171417	-8.449936	3.4378967
1493855976295	-3.7887726	-1.6435242	6.924225
1493855976295	-5.687134	-2.571045	9.604492
1493855976295	-0.58813477	-11.500458	4.792282
1493855976295	1.7630005	-15.439789	4.428314
1493855976295	3.7154388	-13.515411	0.09249878
1493855976295	2.2609558	-9.801422	1.3912964
1493855976295	0.033477783	-9.161957	1.6952515
1493855976295	-1.0646362	-9.023087	2.0218048
1493855976295	-1.8224945	-9.937241	1.1058197
1493855976295	-0.88946533	-9.896164	-0.0060577393
1493855976295	-0.12931824	-8.827728	0.17370605
1493855976295	0.09864807	-7.9782104	0.8835602
1493855976295	0.6696472	-7.986328	0.8383484
1493855976295	1.5517426	-8.460709	0.51908875
1493855976295	2.1845856	-8.8004	0.67289734
1493855976295	1.9190063	-8.8884735	1.5561066
1493855976295	1.0348816	-9.255417	1.0758667
1493855976295	0.9478607	-9.5637665	-0.4785614
1493855976295	2.340683	-9.85228	-1.0412292
1493855976295	3.0003815	-10.802643	-1.3450317
1493855976295	1.8326416	-11.378204	-1.3468018
1493855976295	0.84373474	-11.714905	-1.9972687
1493855976295	2.1055908	-11.6427765	-2.2240143
1493855976295	3.9053497	-11.881378	-3.6949615
1493855976295	5.6199646	-14.561951	-3.8024445
1493855976295	5.6763306	-16.775711	-1.9339752
1493855976295	1.9105682	-15.397827	-3.2181396
1493855976295	-1.9941254	-13.35527	-2.0877686
1493855976295	-3.5267487	-12.4748535	4.140381
1493855976295	-2.2404327	-13.654617	6.9416504
1493855976295	-0.7569885	-15.590927	3.8131256
1493855976295	-1.1696167	-16.105927	-0.7726593
1493855976295	-0.9201813	-13.45517	-0.91542053
1493855976295	0.70391846	-10.306931	1.4151001
1493855976295	1.1371613	-9.177689	1.6427612
1493855976295	-0.017822266	-8.645401	1.7708282
1493855976295	-1.3553772	-8.055832	2.1265259
1493855976295	-2.467453	-7.2770386	2.5277405
1493855976296	-2.650055	-6.2871704	2.6877747
1493855976296	-2.4035492	-5.7662354	2.436203
1493855976296	-2.504654	-5.425232	2.2521667
1493855976296	-3.0455475	-3.9919739	2.5574188
1493855976296	-3.336197	-2.0689087	2.9671936
1493855976296	-2.571289	-1.6450653	2.335556
1493855976296	-0.87583923	-3.8164063	-0.6215973
1493855976296	0.34857178	-8.583862	-8.753342
1493855976296	5.8373413	-16.070313	-17.13002
1493855976296	9.019043	-19.474823	-13.493713
1493855976296	4.6529694	-13.954544	-4.418579
1493855976296	0.1564331	-5.8030396	-2.8614502
1493855976296	-6.058029	-10.4292145	-4.3332825
1493855976296	-4.3839874	-16.449417	1.3550262
1493855976296	-1.0090027	-11.521774	7.4798126
1493855976296	-2.4371643	-5.946045	3.5633698
1493855976296	-3.9055328	-6.336685	7.08519
1493855976296	-3.8016815	-9.680954	6.9596252
1493855976296	-0.969635	-11.725708	4.912842
1493855976296	2.003006	-12.4830475	3.7984314
1493855976296	3.7444916	-11.423035	2.4023438
1493855976296	2.5426636	-10.85228	0.59277344
1493855976296	0.2952423	-9.721191	1.71698
1493855976296	-1.4731903	-9.229538	1.351654
1493855976296	-0.58995056	-8.963425	0.7936554
1493855976296	-2.4695892	-9.478607	0.4096985
1493855976296	-0.889801	-9.464905	-0.46861267
1493855976296	0.72605896	-8.825241	0.11836243
1493855976296	1.7284088	-8.468842	0.081588745
1493855976296	1.910202	-8.875397	-0.12854004
1493855976296	2.0922241	-9.5138855	0.5014801
1493855976296	2.2362518	-9.771759	0.43943787
1493855976296	2.150772	-9.658096	-0.35394287
1493855976296	2.5187836	-9.300568	-1.883316
1493855976296	3.617096	-10.320587	-1.7487335
1493855976297	2.3037872	-12.053955	0.6643524
1493855976297	-0.43397522	-12.221436	-2.9670105
1493855976297	0.65042114	-11.989838	-2.5872345
1493855976297	3.4853973	-12.335022	-2.6768494
1493855976297	6.8638763	-14.606522	-3.7783813
1493855976297	7.4676666	-14.202728	-1.8205261
1493855976297	3.739502	-14.749893	-2.809723
1493855976297	-1.2792206	-14.602768	-2.4430542
1493855976297	-2.6481018	-12.9288025	4.2551727
1493855976297	-4.1815186	-13.176727	6.566986
1493855976297	-3.7913818	-14.617538	3.684845
1493855976297	-3.6348724	-15.945419	0.13742065
1493855976297	-2.9827118	-14.251831	-2.8242188
1493855976297	0.6042938	-10.297989	0.087142944
1493855976297	4.056183	-8.8051605	1.2814026
1493855976297	3.4906616	-8.572281	1.5851746
1493855976297	1.0325012	-7.7036743	1.3023529
1493855976297	-1.9476166	-6.805313	2.0809479
1493855976297	-3.120697	-4.9847107	2.7284698
1493855976297	-3.5284882	-4.7991333	2.6141357
1493855976297	-3.4178925	-5.4466248	2.8277283
1493855976297	-2.8728027	-4.6334076	2.9187927
1493855976297	-2.6923676	-2.2308197	3.3820496
1493855976297	-2.0794373	-1.2284851	2.8120728
1493855976297	-0.6121979	-2.8252869	0.40516663
1493855976297	0.4285431	-7.706238	-6.505142
1493855976297	2.6632996	-14.851517	-17.694183
1493855976297	8.365906	-19.474823	-16.031143
1493855976297	6.5485992	-16.515137	-5.996399
1493855976297	0.72268677	-7.329117	-1.6878052
1493855976297	-4.128372	-5.3194427	-2.588791
1493855976297	-6.4799194	-14.176636	0.22898865
1493855976297	-0.7071991	-14.251358	5.914566
1493855976297	-1.7138519	-7.700943	2.8844452
1493855976297	-4.2918243	-4.0223846	8.637436
1493855976297	-4.3770294	-7.6247864	9.916183
1493855976297	-1.2421875	-13.613449	4.7826385
1493855976297	3.4076843	-13.904251	3.963501
1493855976297	4.974533	-11.159393	1.5146179
1493855976297	2.460617	-9.769531	0.87594604
1493855976297	-0.28822327	-9.133804	1.271759
1493855976298	-2.233307	-9.270203	1.3160553
1493855976298	-2.6264496	-9.906738	0.44328308
1493855976298	-1.6262512	-10.012421	-0.19400024
1493855976298	-0.2164917	-8.984573	-0.00869751
1493855976298	0.7792969	-7.9545746	0.4033661
1493855976298	1.5831146	-8.127396	0.20378113
1493855976298	2.0899506	-8.922531	0.37280273
1493855976298	2.3734741	-9.220428	0.5337677
1493855976298	2.3351746	-9.253281	0.4054718
1493855976298	2.022873	-9.563339	-0.51272583
1493855976298	2.0854034	-9.780289	-1.4210968
1493855976298	2.5511475	-10.347366	-1.4828644
1493855976298	1.898407	-11.207291	-1.0891571
1493855976298	0.60487366	-11.647491	-2.419571
1493855976298	1.0471802	-11.778458	-2.0709229
1493855976298	3.2481995	-12.282135	-2.291504
1493855976298	6.227768	-14.235611	-2.2690887
1493855976298	6.640915	-15.788605	-1.9419098
1493855976298	1.632309	-15.8164215	-3.7835388
1493855976298	-2.6739655	-14.855194	-0.70880127
1493855976298	-3.793106	-12.99173	3.1835785
1493855976298	-4.1647644	-13.629929	5.6147614
1493855976298	-3.2464905	-15.457108	4.4927826
1493855976298	-2.678131	-16.013153	-0.17701721
1493855976298	-1.4268799	-13.250336	-2.1893158
1493855976298	1.8476257	-10.435455	0.12850952
1493855976298	2.749588	-9.802704	1.8597565
1493855976298	2.0484161	-8.680679	2.61174
1493855976298	-0.17059326	-7.6769257	1.4679413
1493855976299	-1.8582611	-5.794647	2.3181152
1493855976299	-2.4683228	-3.965973	3.2365417
1493855976299	-2.9225464	-3.6556854	3.2477417
1493855976299	-2.9482422	-4.097183	2.865631
1493855976299	-3.2716522	-3.0995026	3.3795624
1493855976299	-4.0178375	-1.317337	4.246277
1493855976299	-4.205612	-1.3166351	3.9249878
1493855976299	-1.0365143	-3.9283905	1.1935883
1493855976299	0.5520935	-9.605103	-3.9422455
1493855976299	4.244507	-19.474823	-19.722397
1493855976299	8.887695	-19.409851	-19.361649
1493855976299	2.9565277	-15.577728	-0.20835876
1493855976299	0.06556702	-4.705765	-2.0299377
1493855976299	-8.233536	-11.391251	-4.1244507
1493855976299	-3.904129	-13.971558	2.2010803
1493855976300	0.7070465	-10.077316	8.253952
1493855976300	-1.2627869	-4.276016	5.413574
1493855976300	-6.632431	-1.5245361	7.048889
1493855976300	-5.612335	-7.6031494	11.133057
1493855976300	0.1512146	-16.357117	2.787796
1493855976300	5.0329437	-16.540695	3.5773315
1493855976300	6.6611176	-10.618042	-0.10231018
1493855976300	2.35141	-8.5195465	1.2854614
1493855976300	-0.3500824	-8.501541	1.9311371
1493855976300	-2.6337128	-9.210739	1.829361
1493855976300	-2.331833	-9.871063	-0.05055237
1493855976300	-1.4312134	-9.830521	-0.22802734
1493855976300	-0.4524536	-9.016083	-0.34483337
1493855976300	0.0074005127	-7.9830475	-0.0072784424
1493855976300	1.0422821	-8.112137	-0.10847473
1493855976300	2.0166626	-8.765778	0.71795654
1493855976300	1.9767609	-9.273056	1.29982
1493855976301	1.5411835	-9.623093	0.9352875
1493855976301	1.2960968	-10.021759	-0.40686035
1493855976301	1.7067261	-10.560654	-2.1864014
1493855976301	2.4736176	-11.395767	-2.693573
1493855976301	2.3108978	-12.000397	-2.3511353
1493855976301	1.8846283	-11.978729	-2.5003967
1493855976301	2.7221375	-12.122467	-2.3866882
1493855976301	5.1679535	-13.364349	-2.520996
1493855976301	6.974365	-15.352158	-2.6322327
1493855976301	4.2806244	-15.462784	-2.321289
1493855976301	-0.890213	-14.611145	-1.5215302
1493855976301	-4.0221405	-13.296692	2.2967377
1493855976301	-4.806122	-12.5961	5.5267334
1493855976302	-3.5072937	-13.726593	5.231964
1493855976302	-1.5194855	-15.134918	1.3572083
1493855976302	-0.72994995	-14.559601	-1.8358612
1493855976302	1.280014	-11.75209	-0.2578888
1493855976302	2.8503265	-9.963501	1.9913483
1493855976302	2.10997	-9.249573	2.0560608
1493855976302	0.34519958	-8.348633	1.3317108
1493855976302	-1.5899658	-7.1938477	2.1868591
1493855976302	-2.4769135	-5.5362854	3.2028809
1493855976302	-2.7966309	-4.6071167	3.418457
1493855976302	-2.844818	-4.8548126	3.1387024
1493855976302	-2.8439484	-4.221161	3.118225
1493855976302	-3.1189728	-2.6638641	3.4261932
1493855976302	-3.348816	-1.9432678	3.191452
1493855976302	-2.2199554	-3.5145874	1.3827972
1493855976302	-1.7487183	-7.8598175	-4.4196777
1493855976303	1.8188171	-16.394257	-15.714951
1493855976303	7.3225555	-19.474823	-16.415329
1493855976303	4.4299927	-15.603134	-6.4841614
1493855976303	0.20352173	-6.6239777	-3.1455078
1493855976303	-7.337219	-9.533417	-2.3851624
1493855976303	-6.248123	-16.859528	-2.714096
1493855976303	1.8795319	-14.295959	4.0481567
1493855976303	1.1287994	-6.090866	5.7764587
1493855976303	-5.286606	-2.9331665	7.9413147
1493855976303	-5.60791	-6.0956116	7.5316467
1493855976303	-1.0968628	-12.675919	5.3462677
1493855976303	3.5156708	-14.823486	3.70195
1493855976303	5.699875	-11.855499	1.2271576
1493855976303	2.320633	-10.230179	0.79603577
1493855976303	-0.5851135	-9.179993	1.4413452
1493855976303	-2.736267	-9.162689	1.791565
1493855976303	-3.0114594	-9.991562	0.44210815
1493855976303	-1.6889648	-9.669159	0.30400085
1493855976304	-0.11102295	-8.82045	-0.8961792
1493855976304	0.5415344	-7.73114	0.5790405
1493855976304	1.167511	-7.5365753	0.6791687
1493855976304	1.567337	-7.893509	1.1736603
1493855976304	1.8527985	-8.896149	1.0814819
1493855976304	1.5611725	-9.699722	1.81604
1493855976304	1.3820953	-10.035141	0.107284546
1493855976304	1.6882324	-10.192978	-2.6859283
1493855976304	2.7211761	-11.189377	-2.4640656
1493855976304	1.8871765	-11.935272	-0.82865906
1493855976304	0.47962952	-12.20871	-1.7285767
1493855976304	1.0239716	-12.158844	-1.6417389
1493855976304	2.5736847	-12.44397	-2.8688965
1493855976304	5.7932587	-14.439438	-3.8856964
1493855976304	6.9174347	-15.349213	-1.3343964
1493855976304	2.7768555	-14.212921	-3.147049
1493855976305	-1.1841431	-13.390244	-0.63523865
1493855976305	-2.8069916	-12.283447	3.7709656
1493855976305	-3.5044403	-12.884201	5.710327
1493855976305	-2.7684174	-15.142715	4.08165
1493855976305	-2.3959503	-16.4505	0.99879456
1493855976305	-0.9035797	-14.216614	-1.5084534
1493855976305	1.6360168	-11.212311	1.0717316
1493855976305	3.4169464	-10.260834	1.4257965
1493855976305	2.6555939	-9.255539	1.1968689
1493855976305	0.14686584	-8.221909	1.6462097
1493855976305	-1.96344	-6.4564514	2.5862274
1493855976305	-2.6999512	-4.6811676	3.1567993
1493855976305	-3.227478	-4.309021	2.9918213
1493855976305	-3.403183	-4.5059967	2.93219
1493855976305	-3.5421753	-3.453415	3.5042877
1493855976305	-3.9000854	-1.6469269	4.172104
1493855976306	-3.718277	-1.8976593	3.7750397
1493855976306	-1.983429	-4.673584	1.1914063
1493855976306	0.12023926	-9.628983	-6.824234
1493855976306	3.0379791	-16.1064	-16.725372
1493855976306	7.2346954	-19.474823	-13.545944
1493855976306	6.553299	-14.303116	-4.065445
1493855976306	0.5510254	-5.5155487	-0.7844391
1493855976306	-3.90831	-8.834595	2.1170197
1493855976306	-2.185379	-17.365723	1.0761108
1493855976306	-0.56048584	-14.931061	-0.069000244
1493855976306	-3.5185852	-5.434311	5.8333893
1493855976306	-6.506958	-2.1465912	10.39061
1493855976306	-5.1562347	-8.142288	6.305969
1493855976306	-0.36575317	-13.935806	5.2212677
1493855976306	3.927536	-13.582001	3.2655182
1493855976306	4.9593964	-11.241043	1.316925
1493855976306	1.8151703	-10.089661	0.7401123
1493855976307	-0.91482544	-9.513779	1.3189545
1493855976307	-1.6685638	-9.453308	1.2792053
1493855976307	-1.166687	-9.584518	1.1218414
1493855976307	-0.36001587	-9.145966	0.29716492
1493855976307	0.31687927	-8.739517	-0.2519226
1493855976307	1.0736389	-8.51358	-0.38648987
1493855976307	1.8018188	-8.291901	0.024856567
1493855976307	2.294983	-8.6089325	0.47036743
1493855976307	2.29982	-9.753769	0.85884094
1493855976307	2.044632	-10.422363	0.018814087
1493855976307	2.1071014	-10.422104	-1.9152985
1493855976307	2.8769073	-11.049301	-2.8809357
1493855976307	2.342102	-11.980682	-0.37249756
1493855976307	-0.01852417	-12.090881	-0.7868347
1493855976307	-0.29562378	-12.083694	-3.1173553
1493855976307	3.1789398	-12.401596	-3.4732666
1493855976307	7.3722687	-14.653564	-2.1412811
1493855976307	7.4549103	-15.776627	-1.3952484
1493855976308	2.0178223	-14.622711	-4.228134
1493855976308	-3.7148132	-13.789291	-0.9762268
1493855976308	-5.2387238	-12.241974	6.1580353
1493855976308	-5.10054	-12.514862	6.8971863
1493855976308	-2.6266022	-15.46022	1.7028809
1493855976308	-2.6690521	-17.301163	-1.6496124
1493855976308	-1.1233826	-13.763641	-0.25587463
1493855976308	2.6720428	-10.117462	1.720047
1493855976308	4.544525	-8.441925	1.6157684
1493855976308	2.9211884	-8.269684	0.6563568
1493855976308	-0.2419281	-7.0606384	1.7239227
1493855976308	-2.0664825	-4.6145325	3.3674316
1493855976308	-3.0636597	-2.8939667	3.7619934
1493855976308	-3.4679413	-3.1789246	3.3417053
1493855976308	-3.1875916	-4.0833435	3.6308289
1493855976309	-2.8252869	-3.1611023	3.8712006
1493855976309	-3.136551	-2.1464539	3.834671
1493855976309	-1.8802185	-3.3104553	2.441986
1493855976309	-0.35690308	-7.6024475	-3.4101868
1493855976309	0.43147278	-15.751617	-19.722397
1493855976309	6.6551514	-19.474823	-18.447067
1493855976309	5.417389	-18.338455	-3.2122955
1493855976309	0.9843292	-6.578766	-1.1119385
1493855976309	-3.7713776	-4.945404	-1.058136
1493855976309	-8.011765	-15.608704	-2.1273346
1493855976309	0.89816284	-15.224548	5.2437134
1493855976309	0.77835083	-9.446304	2.0401917
1493855976309	-4.1353455	-4.4126587	3.2597198
1493855976309	-6.5236664	-4.736786	10.4292145
1493855976309	-3.5196075	-9.977432	5.3666534
1493855976309	1.8056183	-13.989059	5.0637665
1493855976309	5.7543945	-13.41655	2.0889282
1493855976310	4.7474365	-10.713928	0.9523926
1493855976310	1.5132141	-9.81749	0.31311035
1493855976310	0.57995605	-8.85791	0.302063
1493855976310	-3.2309418	-7.6765594	2.590805
1493855976310	-3.4738617	-9.858978	-0.66389465
1493855976310	-1.1367645	-10.132324	0.38009644
1493855976310	0.21174622	-9.031906	0.5335388
1493855976310	0.6374054	-8.086975	0.3366394
1493855976310	0.95825195	-8.363235	0.25315857
1493855976310	0.9662628	-9.215775	0.9391937
1493855976310	0.7705231	-9.8517	0.31111145
1493855976310	1.6607513	-9.804764	-1.2215424
1493855976310	3.3001556	-10.369354	-1.5740051
1493855976310	3.2941895	-11.799332	-0.34272766
1493855976310	1.3251495	-12.11734	-0.77757263
1493855976310	0.6311188	-11.889969	-3.0318298
1493855976310	2.4802246	-12.158524	-3.1575623
1493855976311	5.109787	-12.426575	-2.9705963
1493855976311	7.2792664	-13.798996	-2.6936646
1493855976311	6.3322144	-14.997803	-1.9891968
1493855976311	1.7806091	-14.412537	-3.7729797
1493855976311	-3.1362152	-13.415146	-1.7295074
1493855976311	-5.33519	-12.555145	5.050308
1493855976311	-4.531769	-12.91893	6.7351227
1493855976311	-3.7871704	-15.473938	2.6321106
1493855976311	-3.951645	-16.791824	-0.9872589
1493855976311	-2.8418121	-14.419662	-1.6837769
1493855976311	1.8717957	-10.626373	0.77272034
1493855976311	5.218643	-9.100281	0.99624634
1493855976311	3.4801636	-8.71994	0.36808777
1493855976311	0.055999756	-7.601242	1.3813934
1493855976311	-2.0271149	-5.362076	2.9065247
1493855976311	-2.7952118	-3.6211243	3.1933594
1493855976311	-2.9312592	-3.7135315	2.8914337
1493855976311	-2.6788177	-3.971695	3.1156769
1493855976312	-3.2281494	-2.4904633	3.9421387
1493855976312	-3.7427979	-0.92178345	4.4483643
1493855976312	-2.9620514	-2.0336914	3.678894
1493855976312	-0.74069214	-5.7535095	0.23370361
1493855976312	0.66851807	-12.675308	-9.366226
1493855976312	5.1203003	-18.314072	-17.927277
1493855976312	6.8101044	-19.474823	-9.992615
1493855976312	1.6654968	-11.57312	-3.9651031
1493855976312	-3.5867157	-6.4213257	-1.3493652
1493855976312	-7.095764	-13.9322815	-1.4681702
1493855976312	-0.64553833	-16.416885	3.2836761
1493855976312	-0.048095703	-9.657928	2.750824
1493855976312	-3.6682281	-2.699646	4.102005
1493855976312	-5.7999268	-3.3887024	12.437973
1493855976312	-2.143036	-10.897568	4.6636047
1493855976312	1.6119385	-15.205704	5.3918304
1493855976313	6.057312	-12.913315	2.0976105
1493855976313	3.901001	-9.968323	1.0218506
1493855976313	-0.12638855	-9.263199	1.2223969
1493855976313	-1.3460083	-8.7161255	2.4460602
1493855976313	-2.732254	-9.594238	1.7945862
1493855976313	-2.866394	-10.25	0.8642273
1493855976313	-1.1456146	-9.152527	0.359787
1493855976313	0.4472351	-7.9847717	0.28164673
1493855976313	2.231247	-7.9756927	0.0806427
1493855976313	3.093216	-8.609985	-0.3784027
1493855976313	3.3191986	-9.5668335	-0.04484558
1493855976314	3.2174835	-9.814667	0.034683228
1493855976314	2.842575	-9.510498	-0.49365234
1493855976314	1.8913727	-9.72818	-1.4448547
1493855976314	1.1494293	-10.803497	-1.8569489
1493855976314	-0.40412903	-11.619186	-0.21766663
1493855976314	-1.2660065	-11.587967	-1.8700867
1493855976314	0.40882874	-11.9991	-2.5065765
1493855976314	3.3688507	-12.086517	-2.729248
1493855976314	5.981949	-12.781311	-3.7309113
1493855976314	7.3542023	-15.453506	-2.031601
1493855976314	3.097107	-15.371841	-3.2914276
1493855976314	-2.862671	-14.170914	-0.69499207
1493855976314	-6.2569275	-13.955139	5.392456
1493855976314	-5.572052	-14.126724	6.0153656
1493855976314	-4.343918	-15.518555	1.0829163
1493855976314	-5.015976	-16.464142	-0.2713318
1493855976315	-2.585846	-14.058487	0.13327026
1493855976315	3.0722656	-9.735733	0.94403076
1493855976315	5.382599	-8.4370575	1.0779266
1493855976315	3.2438812	-7.8268585	0.2151947
1493855976315	0.3547821	-6.7877502	-0.04862976
1493855976315	-1.8857269	-4.7512054	3.580124
1493855976315	-3.1893616	-2.5693054	4.0043488
1493855976315	-3.8056793	-2.627304	3.665512
1493855976315	-3.7555542	-3.2910767	3.4438171
1493855976315	-3.5105438	-2.7852478	3.4082947
1493855976315	-2.9954376	-2.293167	3.2176056
1493855976315	-1.6691742	-4.207596	1.0029144
1493855976315	-0.49900818	-8.820572	-6.2015076
1493855976315	2.6430817	-15.57872	-16.112213
1493855976315	7.6974945	-19.474823	-16.294434
1493855976315	6.441742	-15.985397	-7.7841797
1493855976315	0.5726471	-8.048416	-2.4458923
1493855976315	-3.3688507	-3.5848389	-0.55662537
1493855976316	-5.190216	-8.995453	1.7537994
1493855976316	-4.1061554	-15.577484	5.3901215
1493855976316	-0.18888855	-14.14682	-0.19345093
1493855976316	-1.391037	-9.075546	-0.23976135
1493855976316	-5.8700714	-5.810257	10.133133
1493855976316	-5.4519043	-7.0620117	7.731903
1493855976316	-1.6455688	-10.724014	4.410202
1493855976316	4.022766	-12.1819	5.030258
1493855976316	6.230957	-12.715088	2.3343048
1493855976316	3.5028076	-12.1644745	-0.1103363
1493855976316	-0.010986328	-9.969788	0.4797058
1493855976316	-2.4158325	-8.282394	1.3613434
1493855976316	-2.9222107	-8.192032	1.1295624
1493855976316	-1.6045532	-8.540253	0.761734
1493855976316	0.11885071	-8.740082	0.18144226
1493855976316	1.3273621	-8.535522	-0.26811218
1493855976317	1.5355988	-8.603287	-0.835083
1493855976317	1.910965	-9.04866	0.17337036
1493855976317	2.3408203	-9.781418	1.6853943
1493855976317	1.963974	-9.917343	0.37956238
1493855976317	1.7741394	-9.448639	-1.5426941
1493855976317	0.66378784	-10.542633	-1.0296326
1493855976317	-1.0196381	-11.8459015	-1.0298462
1493855976317	0.7561188	-12.400894	-0.8071747
1493855976317	4.22789	-12.129089	-1.5345154
1493855976317	5.53981	-11.904205	-4.047226
1493855976317	6.4316864	-13.929321	-3.8563385
1493855976317	6.6985474	-16.415436	-4.303604
1493855976317	1.3869781	-15.350388	-5.1062317
1493855976317	-2.7171326	-13.588196	2.8244934
1493855976317	-3.6585999	-13.257507	7.2998505
1493855976317	-3.9589233	-14.689484	3.2066345
1493855976317	-5.0348206	-16.935074	0.16513062
1493855976318	-5.323456	-17.327194	0.25875854
1493855976318	-1.8899994	-12.810806	0.8496399
1493855976318	4.3939667	-8.578751	-1.2747498
1493855976318	4.4103394	-8.332138	-0.48487854
1493855976318	2.8987427	-7.556366	1.3596497
1493855976318	-0.5850067	-6.5942993	1.688797
1493855976318	-2.4629974	-4.4253235	3.3049774
1493855976318	-2.4286804	-2.6027985	2.9063568
1493855976318	-3.0965576	-3.232193	2.984665
1493855976318	-3.392929	-2.8181763	3.7485657
1493855976318	-4.3163605	-1.4634552	4.900238
1493855976318	-4.45755	-1.1665955	4.1983795
1493855976319	-2.9494324	-3.4401855	2.2995605
1493855976319	-0.21150208	-9.370682	-5.4133606
1493855976319	3.0454407	-18.224304	-19.722397
1493855976319	4.914215	-19.474823	-17.41397
1493855976319	4.9786377	-17.742035	-3.28479
1493855976319	0.2322998	-7.0973053	-4.3085938
1493855976319	-2.1072998	-4.1700745	-0.7243805
1493855976319	-3.1420746	-11.757187	3.6820526
1493855976319	1.2966766	-14.284973	7.395569
1493855976319	-2.426239	-11.253754	-4.223877
1493855976319	-4.2046967	-4.9564667	7.5205994
1493855976319	-5.761795	-5.4881287	10.531769
1493855976319	-3.0969238	-10.940552	3.0025482
1493855976319	1.6351624	-13.031677	4.7714996
1493855976319	5.3644867	-11.377457	2.3035278
1493855976319	3.6517334	-10.455429	0.51008606
1493855976319	0.34838867	-9.869751	0.72276306
1493855976319	-2.0356293	-9.338898	1.4863586
1493855976319	-2.753189	-9.336487	0.8653412
1493855976319	-1.6193085	-9.347595	0.63165283
1493855976319	-0.21549988	-9.141296	0.45819092
1493855976319	0.9167633	-8.823166	0.35029602
1493855976319	1.5525665	-8.497482	0.24499512
1493855976319	1.8092194	-8.496735	0.28735352
1493855976319	2.0237274	-8.871216	0.5220032
1493855976319	2.0380707	-9.039612	0.3335266
1493855976319	2.035324	-9.1323395	-0.8095703
1493855976319	2.2502594	-9.937759	-1.2840271
1493855976319	1.2637329	-10.975143	-1.0133209
1493855976319	-0.11470032	-11.317032	-1.38237
1493855976319	0.5576019	-11.570557	-1.5322723
1493855976319	2.5097046	-11.677826	-2.281021
1493855976319	3.5112762	-11.825577	-4.3616486
1493855976319	5.1197357	-13.606934	-4.1449127
1493855976319	6.47316	-16.088226	-4.747116
1493855976320	3.1270294	-15.787872	-4.0231323
1493855976320	-1.299118	-13.815231	1.5349426
1493855976320	-2.6532745	-13.541443	5.3495026
1493855976320	-2.1699677	-14.562241	4.1049347
1493855976320	-3.3048706	-16.583038	1.5170746
1493855976320	-4.4270477	-17.661499	0.5375061
1493855976320	-1.7493896	-13.917603	0.8656616
1493855976320	2.6886292	-9.962143	1.2671204
1493855976320	3.8064117	-8.683426	0.4225769
1493855976320	2.1130524	-8.050659	0.9845581
1493855976320	-0.4256897	-6.677887	1.8687286
1493855976320	-2.2980042	-4.362549	3.5532837
1493855976320	-2.7340393	-2.6091614	3.4647217
1493855976320	-3.1020966	-2.812088	3.2300568
1493855976320	-3.1281128	-2.8625488	3.471466
1493855976320	-3.8596191	-1.6841278	4.264908
1493855976320	-4.407913	-1.9689941	3.907196
1493855976320	-2.6555634	-4.2213745	1.6410828
1493855976320	-1.3871307	-9.379761	-4.296631
1493855976320	-0.96720886	-17.859344	-17.182037
1493855976320	7.1476593	-19.474823	-19.722397
1493855976320	6.5887146	-16.831512	-5.124222
1493855976320	0.59199524	-7.7822113	-0.95809937
1493855976320	-1.0266418	-2.0209503	-0.31732178
1493855976320	-3.3672028	-11.281815	-3.052826
1493855976320	-0.15301514	-18.656738	0.8707733
1493855976320	0.3809204	-15.693695	3.7764282
1493855976320	-2.4603882	-5.9589233	0.7395477
1493855976320	-8.223877	-2.0295868	9.231018
1493855976320	-4.8801575	-5.9116516	9.704849
1493855976320	-0.87887573	-13.862442	2.9893036
1493855976320	3.4070892	-14.75148	3.6180115
1493855976320	6.6097565	-11.958313	2.1735687
1493855976320	3.0190277	-10.072433	0.0043640137
1493855976320	-0.8766937	-8.535324	0.80233765
1493855976320	-1.7320557	-8.362198	1.9012909
1493855976320	-2.1318207	-9.14595	0.8069763
1493855976320	-1.1994019	-9.098679	1.424408
1493855976320	-0.3879242	-9.218826	0.07609558
1493855976320	0.43258667	-8.843277	-0.43728638
1493855976320	1.8909302	-8.536301	-0.080596924
1493855976320	3.0038452	-8.619965	-0.16781616
1493855976320	3.0998688	-9.430771	0.23512268
1493855976321	2.3339233	-10.25914	0.45890808
1493855976321	2.1138153	-10.444473	-1.2232513
1493855976321	1.8073578	-10.835815	-1.9504547
1493855976321	-0.30184937	-11.561325	-2.2217407
1493855976321	-0.45851135	-12.032791	-2.173584
1493855976321	1.9459991	-12.340866	-0.8170471
1493855976321	3.7682953	-13.342438	-2.8720245
1493855976321	6.227356	-14.939072	-3.543167
1493855976321	6.866501	-14.976517	-2.3135529
1493855976321	1.9178314	-14.810715	-2.9900208
1493855976321	-3.0627594	-14.131271	-0.6279144
1493855976321	-5.2135773	-13.025375	4.847183
1493855976321	-5.1196747	-13.64653	6.166855
1493855976321	-4.6240387	-15.085983	2.566101
1493855976321	-4.724167	-15.613693	-0.7340088
1493855976321	-2.8391876	-13.394363	-1.153183
1493855976321	1.8688965	-9.911926	0.55184937
1493855976321	4.032486	-8.803925	1.2953491
1493855976321	2.277771	-8.247314	0.9081116
1493855976321	-0.055755615	-7.0576477	1.2805328
1493855976321	-2.1368256	-5.559601	2.3347015
1493855976321	-2.8555908	-3.9851227	3.091278
1493855976321	-3.3556213	-3.7382813	3.0589447
1493855976321	-3.3324127	-3.9719238	2.942566
1493855976321	-2.9729614	-3.026535	3.3181763
1493855976321	-2.6394348	-1.7350616	3.4704437
1493855976321	-1.9335175	-2.1084137	2.9928284
1493855976321	-0.7483368	-5.5710297	-0.18218994
1493855976321	0.29948425	-13.086761	-11.641693
1493855976321	2.788086	-18.681274	-19.722397
1493855976321	4.1314545	-19.474823	-11.813156
1493855976321	1.7163086	-12.423843	-4.9031067
1493855976321	-3.0957947	-7.497284	-3.448761
1493855976321	-5.2517853	-12.079254	-1.8981781
1493855976321	-1.0625458	-13.412277	6.2521057
1493855976321	0.007507324	-9.580109	2.91214
1493855976321	-3.4162598	-5.5910645	3.017044
1493855976321	-5.3040466	-4.3874207	8.625076
1493855976321	-2.7651367	-8.701279	6.66745
1493855976321	1.1493073	-13.258438	4.8290405
1493855976321	4.9270477	-12.911163	2.81102
1493855976321	4.155655	-11.050308	0.947525
1493855976322	1.0613251	-10.054321	1.1672821
1493855976322	-1.1370697	-9.257355	1.4225006
1493855976322	-2.2490387	-9.352112	1.3997498
1493855976322	-1.9336853	-9.686813	0.96943665
1493855976322	-0.9116516	-9.49469	0.48251343
1493855976322	0.17477417	-9.082825	-0.002670288
1493855976322	1.0240479	-8.48204	0.4499054
1493855976322	1.77565	-7.811508	0.8255768
1493855976322	1.8600159	-7.4983215	0.3581848
1493855976322	1.6762695	-8.231003	1.2141113
1493855976322	1.683548	-9.126984	0.28486633
1493855976322	1.9772644	-9.866684	-0.32592773
1493855976322	0.87675476	-10.990067	-0.48669434
1493855976322	-0.92907715	-11.446915	-1.2913818
1493855976322	-0.74520874	-12.465286	-0.81811523
1493855976322	1.350357	-12.785889	-1.3023376
1493855976322	2.9003143	-12.450012	-2.1237488
1493855976322	4.8190613	-13.801849	-3.2889557
1493855976322	7.9213867	-14.722107	-0.80384827
1493855976322	3.8058777	-15.076004	-2.1365967
1493855976322	-1.8736725	-15.311676	-4.4830627
1493855976322	-5.721405	-13.324921	-0.63087463
1493855976322	-5.000305	-11.731567	6.5092926
1493855976322	-4.4327545	-12.521515	5.380005
1493855976322	-3.9241943	-15.313171	1.4408722
1493855976322	-2.907547	-15.343353	-0.96333313
1493855976322	1.4381866	-11.41861	-0.255661
1493855976322	5.3112946	-9.2738495	0.9441223
1493855976322	3.123352	-8.734589	1.57724
1493855976322	0.740448	-7.902649	1.0
1493855976322	-1.1088715	-7.0559998	1.7170715
1493855976322	-2.4038696	-5.8693542	2.71344
1493855976322	-2.6670532	-4.5154724	3.388855
1493855976322	-2.8011017	-4.245392	3.381363
1493855976322	-3.2809448	-4.0759125	3.50766
1493855976322	-3.1701965	-2.5016022	3.530777
1493855976322	-2.6222687	-1.8296814	3.1763306
1493855976322	-1.6135559	-3.3491364	1.0332489
1493855976322	-0.4118042	-7.990738	-5.9374847
1493855976322	2.3241882	-15.337097	-17.777328
1493855976322	6.7595367	-19.474823	-17.045456
1493855976322	3.7309418	-16.976547	-7.1941986
1493855976323	-0.29852295	-7.873932	-3.51326
1493855976323	-3.410202	-5.6885223	-1.550354
1493855976323	-4.966385	-12.849045	0.8978882
1493855976323	-1.2387543	-15.8962555	1.8844452
1493855976323	-1.548996	-10.694153	-0.53556824
1493855976323	-5.135071	-4.631439	2.079834
1493855976323	-5.3780212	-4.037567	10.508423
1493855976323	-2.203476	-9.484741	5.0302124
1493855976323	2.0947876	-14.003815	3.7020416
1493855976323	4.9529266	-12.939606	3.6711426
1493855976323	5.12442	-10.486435	2.1979523
1493855976323	1.8352203	-9.671814	1.1368256
1493855976323	-0.722229	-9.270874	1.2119141
1493855976323	-2.339264	-9.313751	1.4480438
1493855976323	-3.1038513	-9.58696	0.8843384
1493855976323	-2.136673	-9.3298645	0.07897949
1493855976323	-0.90826416	-8.532608	0.1687622
1493855976323	0.41230774	-7.919098	0.38746643
1493855976323	1.5166626	-8.09935	0.64533997
1493855976323	1.95401	-8.746536	0.97628784
1493855976323	1.9606476	-9.294083	0.9832001
1493855976323	2.234604	-9.387772	0.206604
1493855976323	2.9561157	-9.556976	-0.8648071
1493855976323	2.8644714	-10.465805	-1.1771545
1493855976323	0.7316742	-11.307541	-1.3022461
1493855976323	-0.86743164	-11.724976	-1.7705078
1493855976323	0.16989136	-12.392868	-1.7048187
1493855976323	2.2835999	-12.728012	-2.1099548
1493855976323	4.8577423	-13.956955	-3.418106
1493855976323	7.401886	-15.217819	-1.9387817
1493855976323	4.08696	-15.263535	-3.890503
1493855976323	-2.336441	-14.435059	-3.728592
1493855976323	-5.2715454	-12.906418	2.0780792
1493855976323	-4.488556	-12.278992	5.438843
1493855976323	-2.860733	-13.907455	4.505249
1493855976323	-3.3124237	-16.260223	1.3419952
1493855976323	-3.0871582	-15.538834	-1.1804962
1493855976323	0.56085205	-11.74765	-0.5984192
1493855976323	3.8287964	-9.714401	1.195755
1493855976323	2.7462463	-8.848953	1.0938416
1493855976323	0.44311523	-7.797455	1.1151581
1493855976323	-1.7669678	-6.2925415	2.5631104
1493855976323	-2.470047	-4.3238373	3.0515442
1493855976323	-3.0233612	-3.5684204	2.982071
1493855976324	-3.4649658	-4.2766113	2.5770721
1493855976324	-3.5379639	-3.8522186	2.6702576
1493855976324	-3.502304	-2.4362335	3.2570953
1493855976324	-3.301941	-1.7223969	3.1808624
1493855976324	-2.1452332	-3.5831146	1.7706451
1493855976324	-0.30734253	-8.777725	-3.7328796
1493855976324	1.0881958	-17.692154	-18.651398
1493855976324	8.758514	-19.41098	-19.722397
1493855976324	6.934311	-17.597061	-5.0430603
1493855976324	1.5763092	-6.3929596	-1.7246094
1493855976324	-6.9218597	-8.206924	1.1610718
1493855976324	-5.836426	-16.415329	3.8528748
1493855976324	-1.6164398	-15.338684	2.4252167
1493855976324	-2.0902252	-6.717514	-0.32128906
1493855976324	-3.8981934	-0.55570984	8.226715
1493855976324	-3.993744	-3.8934479	14.051559
1493855976324	0.49006653	-14.003357	1.6181946
1493855976324	2.1873474	-16.535324	2.9857483
1493855976324	4.899826	-11.273193	1.4563446
1493855976324	2.471756	-7.741287	1.7905884
1493855976324	-0.8323059	-8.204651	1.1108551
1493855976324	-2.2960205	-9.184647	1.458664
1493855976324	-2.4102173	-9.624115	1.8347473
1493855976324	-1.8070984	-9.529861	0.9993439
1493855976324	-1.5521088	-9.067627	0.46714783
1493855976324	-0.48434448	-8.379395	0.6828003
1493855976324	0.90992737	-8.303345	0.670105
1493855976324	2.0068512	-8.945953	0.71128845
1493855976324	2.1965332	-10.070114	0.64157104
1493855976324	2.4423065	-10.61203	-0.33847046
1493855976324	3.0907593	-10.551804	-1.4060822
1493855976324	3.0554047	-10.692154	-0.9165039
1493855976324	0.64793396	-11.500549	-0.571167
1493855976325	-1.4174652	-12.078278	-1.8243713
1493855976325	-0.02558899	-12.339722	-2.1586761
1493855976325	2.9020844	-12.81012	-2.5001373
1493855976325	5.5554657	-13.717514	-3.0275116
1493855976325	7.063751	-14.130402	-2.457779
1493855976325	4.8626556	-14.2425995	-3.0640411
1493855976325	-0.6535034	-14.481964	-3.2981415
1493855976325	-4.1474304	-13.290344	1.8783417
1493855976325	-5.028778	-12.650955	5.774414
1493855976325	-4.966278	-14.164627	5.0996704
1493855976325	-4.8875885	-15.724274	1.6882019
1493855976325	-4.264923	-14.836273	-1.0501099
1493855976325	0.015625	-11.182526	-0.5923462
1493855976325	3.9354248	-8.779434	1.236969
1493855976325	3.4171295	-8.066147	0.91238403
1493855976325	1.1620331	-7.162216	0.13702393
1493855976325	-0.8998718	-5.850464	1.3596802
1493855976325	-2.2424927	-4.476227	2.8086548
1493855976325	-3.0054016	-3.721756	3.15477
1493855976325	-3.5288239	-3.9410858	3.4991913
1493855976325	-3.5249023	-3.8626251	3.3857422
1493855976325	-3.3455658	-2.8592682	3.2777252
1493855976325	-2.9414978	-2.492691	2.8468018
1493855976325	-1.7798462	-4.5974274	0.77671814
1493855976325	0.6177521	-9.61792	-4.9315643
1493855976325	5.2065277	-16.659836	-15.264038
1493855976325	5.722641	-19.474823	-19.722397
1493855976325	2.2478943	-16.534698	-9.387238
1493855976325	-0.881485	-9.062729	-3.2985535
1493855976325	-3.2995758	-4.048706	-0.25985718
1493855976325	-4.735321	-9.557129	1.3660431
1493855976325	-1.9220123	-16.061478	4.3790436
1493855976325	0.33976746	-13.308182	-2.12146
1493855976325	0.07298279	-5.7055664	3.4992523
1493855976325	-3.9132538	-2.889328	9.7295685
1493855976325	-3.6999054	-8.91246	4.980133
1493855976325	0.007980347	-13.757095	2.9725952
1493855976325	3.5254364	-12.323639	2.698532
1493855976325	2.8944092	-9.692703	2.6952667
1493855976325	-0.013870239	-9.194595	1.4678192
1493855976325	-1.3758392	-9.314194	0.9984131
1493855976325	-1.0715485	-9.666122	1.6278381
1493855976325	-0.6102905	-9.5959015	1.4455261
1493855976326	-0.07191467	-8.897263	1.0141907
1493855976326	0.008361816	-8.948349	0.9406891
1493855976326	0.3421936	-9.055084	0.9025879
1493855976326	1.0592041	-8.819946	0.6160431
1493855976326	1.8486786	-9.010239	0.7435303
1493855976326	1.8891602	-9.634674	1.2031097
1493855976326	1.4405518	-9.966995	0.63446045
1493855976326	1.9307556	-10.118698	-1.1785736
1493855976326	2.8192444	-10.390076	-0.905426
1493855976326	2.0252533	-11.683212	0.14476013
1493855976326	0.64663696	-11.290024	-1.7239227
1493855976326	0.90940857	-11.089371	-2.182541
1493855976326	2.7134552	-11.486145	-1.0069427
1493855976326	3.2726746	-12.260422	-2.371994
1493855976326	4.616165	-14.273361	-2.803299
1493855976326	5.089447	-15.584503	-1.8720703
1493855976326	1.1933899	-15.227798	-3.8114014
1493855976326	-3.8873138	-13.855194	-3.4994507
1493855976326	-6.153351	-12.362625	3.413086
1493855976326	-6.384796	-12.5961	6.963394
1493855976326	-4.7415314	-13.772049	3.6577759
1493855976326	-4.8467255	-15.038498	-0.42259216
1493855976326	-2.8216095	-13.327103	-1.7068634
1493855976326	1.967514	-9.744583	1.1106415
1493855976326	4.687607	-8.500763	2.754715
1493855976326	2.204132	-8.546982	1.8399811
1493855976326	-0.056991577	-7.336029	0.58406067
1493855976326	-1.9636841	-5.9053955	1.8803406
1493855976326	-2.5937042	-4.57399	1.9641724
1493855976326	-2.6215057	-4.2578735	1.7631683
1493855976326	-2.4031982	-4.532257	2.5084229
1493855976326	-2.7537842	-4.102005	2.8978424
1493855976326	-2.8126526	-3.0113525	3.2697906
1493855976326	-2.3828125	-2.717575	3.0590515
1493855976326	-1.5447235	-4.8897247	0.56643677
1493855976326	-0.17892456	-10.120087	-6.7523193
1493855976326	2.3360443	-16.426239	-16.650711
1493855976326	7.2178345	-19.474823	-16.31926
1493855976326	6.5698547	-16.133148	-8.499451
1493855976326	1.279602	-7.4133453	-2.5727386
1493855976326	-3.9803314	-5.5500946	2.9863586
1493855976327	-7.510727	-13.24588	2.880188
1493855976327	-2.6104126	-15.797607	-1.4862518
1493855976327	1.1811829	-10.013962	-0.77201843
1493855976327	-1.6430359	-3.0415955	6.8190002
1493855976327	-6.0298767	-2.6692505	8.927444
1493855976327	-4.2098236	-10.708069	5.956604
1493855976327	1.0003967	-16.011444	3.0738373
1493855976327	4.20932	-14.007248	2.7057953
1493855976327	4.823181	-10.705032	2.036377
1493855976327	2.5833435	-10.05072	1.9410248
1493855976327	-0.256485	-9.949493	2.0907898
1493855976327	-2.1008148	-9.657166	2.447174
1493855976327	-1.879715	-9.394455	1.9953003
1493855976327	-0.9299011	-8.419052	1.8303833
1493855976327	-0.17430115	-7.55455	1.7833557
1493855976327	0.51589966	-7.4947357	1.1375732
1493855976327	0.618515	-7.866287	0.5096283
1493855976327	1.2159882	-8.388733	0.63619995
1493855976327	2.4437408	-9.128799	0.8580475
1493855976327	2.8689117	-9.640213	0.6250305
1493855976327	2.2243805	-10.433594	-0.958786
1493855976327	2.2504883	-11.2795105	-1.3230438
1493855976327	2.133667	-11.961578	-0.33796692
1493855976327	1.8983765	-12.38266	-1.4824677
1493855976327	2.5941772	-12.569885	-2.1386719
1493855976327	3.5650024	-12.55188	-2.831543
1493855976327	4.966812	-13.199158	-4.726837
1493855976327	5.9657593	-14.595917	-2.869995
1493855976327	3.2925568	-15.294525	-4.100006
1493855976327	-3.503189	-14.854767	-5.6124268
1493855976327	-8.802399	-12.668549	1.7000732
1493855976327	-7.990677	-11.568466	7.7206726
1493855976327	-4.472275	-12.646286	5.511215
1493855976327	-2.979721	-15.237076	-0.24461365
1493855976327	-3.4568024	-16.066833	-2.4106598
1493855976327	-0.9547577	-12.227997	0.12452698
1493855976327	1.588501	-9.235153	1.5206146
1493855976327	1.9297333	-8.364578	1.0995178
1493855976327	-0.28797913	-8.39093	0.5745697
1493855976327	-1.7517395	-7.239792	1.104538
1493855976327	-2.4728699	-5.7371826	1.8833618
1493855976327	-2.568512	-3.973175	1.4983673
1493855976327	-2.8502655	-4.2114716	1.5320435
1493855976328	-2.2319489	-3.7393494	2.41362
1493855976328	-1.3895111	-2.8069916	3.0708618
1493855976328	-0.9168701	-2.0352173	3.1978912
1493855976328	0.31974792	-3.5277557	2.2402802
1493855976328	1.4588013	-7.7730713	-1.5583649
1493855976328	2.6279755	-13.90213	-13.362274
1493855976328	6.0290527	-19.43898	-18.98471
1493855976328	3.2128906	-18.237442	-7.1186066
1493855976328	-0.16703796	-9.769394	-7.0762177
1493855976328	-3.6641235	-5.2735596	-1.0298767
1493855976328	-7.656906	-9.594879	5.4846954
1493855976328	-5.6110535	-16.065369	2.0332031
1493855976328	-0.7941437	-12.8567505	-1.6495514
1493855976328	-0.5167694	-8.290482	0.33518982
1493855976328	-2.6282043	-2.9963074	10.725159
1493855976328	-3.9102783	-6.167465	4.681671
1493855976328	0.58613586	-13.433762	2.9519348
1493855976328	3.4463959	-15.219681	4.233734
1493855976328	5.0267944	-11.605484	2.7883453
1493855976328	3.3103333	-9.507111	1.0836334
1493855976328	1.0957489	-9.657455	1.0295105
1493855976328	-0.5848694	-9.519012	2.0932617
1493855976328	-2.298233	-9.1753845	2.2326202
1493855976328	-2.7655487	-8.902969	1.4076385
1493855976328	-2.3616638	-8.9939575	0.68922424
1493855976328	-1.0887299	-8.677185	1.3947449
1493855976328	0.8204346	-8.170853	1.5536652
1493855976328	2.1004028	-8.320145	1.3061218
1493855976328	2.7605133	-9.157471	1.2485046
1493855976328	2.8466492	-9.904861	1.0372467
1493855976328	2.8357086	-10.130005	-0.15196228
1493855976328	2.9127655	-10.732529	-1.5757904
1493855976328	2.8724518	-11.479691	-1.5009918
1493855976328	2.070465	-11.939178	-0.31443787
1493855976328	0.9286041	-12.347107	-1.694519
1493855976328	1.3820953	-12.555313	-3.0277252
1493855976328	2.7926788	-12.516541	-2.9697113
1493855976328	3.5967102	-12.760513	-3.8851166
1493855976328	4.633209	-13.822739	-3.6697998
1493855976328	4.603714	-14.856155	-2.4817657
1493855976329	1.0728912	-14.57988	-1.6425018
1493855976329	-4.2434387	-13.3324585	2.6164246
1493855976329	-6.9323273	-12.821899	6.6020203
1493855976329	-5.1245575	-13.648743	5.056137
1493855976329	-2.6898499	-15.479919	1.0894165
1493855976329	-1.9139557	-15.261368	-0.9694824
1493855976329	-0.15296936	-12.271713	0.2719574
1493855976329	2.2898254	-9.800751	1.8425293
1493855976329	3.0890198	-8.8311615	1.3733215
1493855976329	1.3003082	-8.389145	0.65997314
1493855976329	-1.0657501	-7.4204407	1.4064941
1493855976329	-2.7015991	-5.7434235	2.5950012
1493855976329	-3.32193	-4.498993	2.8999634
1493855976329	-3.2362213	-4.2057343	3.1079712
1493855976329	-2.9906921	-3.621109	3.4262085
1493855976329	-2.764206	-2.2782745	3.7868652
1493855976329	-2.1689453	-1.3661804	3.5157013
1493855976329	-1.2425079	-2.5753174	2.0746918
1493855976329	0.24771118	-6.4056854	-2.486023
1493855976329	1.0985413	-13.961868	-15.9461975
1493855976329	9.319183	-18.68953	-19.722397
1493855976329	7.410782	-19.474823	-7.2547607
1493855976329	1.5820465	-9.807587	-2.2341614
1493855976329	-3.6907654	-5.0620575	-1.0601807
1493855976329	-9.394867	-15.095886	-3.0732574
1493855976329	-3.0906982	-16.873383	4.4729614
1493855976329	-1.8029785	-10.169968	1.0478973
1493855976329	-2.2420807	-3.8993225	5.841568
1493855976329	-4.9954376	-4.7225037	10.30278
1493855976329	-0.6416168	-10.156845	4.9947357
1493855976329	2.477127	-14.152145	4.06073
1493855976329	6.1376343	-12.443832	2.4208221
1493855976329	4.9370117	-10.505844	1.1456757
1493855976329	0.94903564	-9.456879	0.2007904
1493855976329	-2.103241	-8.759079	1.3552551
1493855976329	-2.14003	-8.699768	1.6625061
1493855976329	-2.4219055	-8.9101715	1.3783264
1493855976329	-1.471344	-8.601288	1.6003723
1493855976329	-0.6922302	-8.995087	0.9097595
1493855976329	0.2394104	-8.893646	1.2192993
1493855976329	1.3406677	-8.715637	0.9598694
1493855976329	2.2271729	-8.876663	0.9452057
1493855976329	2.3826447	-9.687759	0.6960449
1493855976330	2.3827057	-10.091568	-0.45573425
1493855976330	2.869278	-10.402969	-2.0900116
1493855976330	3.9924774	-11.391373	-1.5653381
1493855976330	2.714447	-12.333282	-0.06840515
1493855976330	0.20602417	-12.168213	-2.2122803
1493855976330	0.5358887	-12.254517	-2.9952698
1493855976330	2.62117	-12.331512	-2.1620789
1493855976330	4.14711	-13.02887	-3.4029236
1493855976330	6.0137177	-14.779953	-2.567566
1493855976330	4.878479	-15.181519	-1.906601
1493855976330	-0.48103333	-14.884476	-2.9839325
1493855976330	-5.439392	-13.397369	1.2791138
1493855976330	-6.265732	-12.659241	6.974655
1493855976330	-5.0402374	-13.80188	5.163147
1493855976330	-3.3372803	-15.92218	0.39323425
1493855976330	-2.9979858	-15.299515	-1.2893066
1493855976330	0.107406616	-11.18956	1.9718628
1493855976330	3.6501312	-8.857101	2.3343658
1493855976330	3.4289703	-8.010269	0.8679962
1493855976330	1.0453491	-7.2634583	0.27037048
1493855976330	-1.4015503	-6.448517	1.84021
1493855976330	-2.6458282	-4.9570923	3.2471619
1493855976330	-2.8940582	-3.9585419	3.0362396
1493855976330	-3.0919342	-3.8694763	3.404892
1493855976330	-3.4427185	-3.040039	3.6148834
1493855976330	-3.4759521	-1.7385406	3.4420013
1493855976330	-2.792328	-1.9020844	2.5245514
1493855976330	-1.2541199	-4.624542	-0.77864075
1493855976330	0.80088806	-10.820297	-11.076569
1493855976330	3.493866	-17.290375	-19.722397
1493855976330	4.5518036	-19.474823	-12.077286
1493855976330	2.3176727	-14.173508	-3.852539
1493855976330	-1.410553	-7.1997986	-2.8702545
1493855976330	-4.307068	-10.525558	-2.2041473
1493855976330	-0.67349243	-15.562592	0.6721802
1493855976330	1.2575073	-11.429947	3.9132385
1493855976330	-3.775406	-4.279587	2.2654877
1493855976330	-6.4306946	-2.1482697	7.668747
1493855976330	-4.409195	-7.9256897	7.4409637
1493855976330	-0.057876587	-14.2304535	3.6387787
1493855976330	4.175598	-14.824707	2.8050842
1493855976331	5.9944916	-11.6562195	2.2184296
1493855976331	3.652954	-9.372482	1.7617188
1493855976331	-0.040252686	-8.937637	1.4564972
1493855976331	-2.447647	-9.18042	2.0254974
1493855976331	-3.2541962	-9.67778	1.6669464
1493855976331	-2.7098694	-9.750015	1.1891632
1493855976331	-1.7704315	-8.931885	0.3380127
1493855976331	-0.67155457	-7.6464386	0.6958313
1493855976331	0.844162	-7.587631	0.7449188
1493855976331	1.8358917	-8.5039215	0.42384338
1493855976331	2.1193542	-9.45903	0.8851471
1493855976331	2.1455383	-9.975327	1.0660706
1493855976331	2.4174805	-9.65657	0.33718872
1493855976331	3.0104218	-9.925293	-1.1443176
1493855976331	3.0039978	-11.0290985	-1.9820404
1493855976331	1.4825897	-12.249863	-2.2440643
1493855976331	-0.09629822	-12.306046	-2.8259735
1493855976331	0.14982605	-11.73024	-2.3785248
1493855976331	1.5219574	-11.754364	-1.9127655
1493855976331	3.1656952	-13.070587	-3.8103943
1493855976331	6.2865753	-14.377869	-2.891159
1493855976331	5.727936	-14.919815	-0.73753357
1493855976331	0.04185486	-14.46875	-2.5381317
1493855976331	-4.896057	-14.229477	2.063614
1493855976331	-5.550949	-13.209473	5.855728
1493855976331	-4.391403	-14.91156	5.526703
1493855976331	-3.7276764	-16.51538	2.5118408
1493855976331	-4.415695	-15.74025	-0.97294617
1493855976331	-2.3349762	-11.450317	0.60928345
1493855976331	2.498169	-9.379196	2.2750397
1493855976331	3.4555206	-9.283386	2.3957825
1493855976331	1.0265045	-8.364334	0.20724487
1493855976331	-0.9361572	-6.8783417	0.871048
1493855976331	-2.215973	-4.934723	3.1612854
1493855976331	-2.8740997	-3.6795654	2.9933624
1493855976331	-3.5233612	-3.4751587	2.9590302
1493855976331	-3.4526825	-3.020401	3.211792
1493855976331	-2.978714	-1.8913879	3.4954681
1493855976331	-2.4062195	-1.1916962	3.3731384
1493855976331	-1.0609589	-2.6692657	1.8594513
1493855976331	0.12640381	-6.7206116	-2.3318787
1493855976331	0.018432617	-14.304626	-13.641357
1493855976331	4.684677	-19.474823	-17.359116
1493855976332	7.868225	-17.672287	-6.10907
1493855976332	3.0123138	-8.935516	-3.6201782
1493855976332	-2.9247742	-6.4031067	-1.0773926
1493855976332	-5.0297394	-14.330887	-0.040664673
1493855976332	2.7298584	-15.630692	2.4726563
1493855976332	-1.1134796	-6.7937775	2.4293365
1493855976332	-8.247345	-0.9139862	1.7032776
1493855976332	-6.8824463	-4.014862	12.809402
1493855976332	-1.6509857	-13.432892	4.497513
1493855976332	2.97229	-16.492569	3.2638092
1493855976332	5.3095856	-13.536835	1.2135315
1493855976332	4.212097	-9.439346	1.8236542
1493855976332	0.38667297	-8.956375	1.4850159
1493855976332	-2.1638489	-9.023376	1.7014465
1493855976332	-2.9651031	-9.82283	1.2871704
1493855976332	-2.3505554	-10.055862	0.67463684
1493855976332	-1.1407928	-9.204697	0.17042542
1493855976332	-0.2956543	-8.06749	-0.17126465
1493855976332	0.41368103	-7.4610596	0.47853088
1493855976332	1.2774353	-7.792679	0.5365448
1493855976332	1.8619385	-8.817825	0.95150757
1493855976332	2.086914	-9.828247	1.4837646
1493855976332	1.9592438	-10.070023	0.7363739
1493855976332	1.8451233	-10.093704	-1.6037598
1493855976332	1.886734	-10.798584	-2.7659912
1493855976332	1.1777344	-11.396866	-1.9852295
1493855976332	0.50431824	-11.520615	-1.4731903
1493855976332	1.101593	-11.887283	-1.5920868
1493855976332	2.2991028	-12.321426	-3.153946
1493855976332	4.388397	-13.672577	-4.7746124
1493855976332	6.610092	-15.053314	-2.430832
1493855976332	4.3903656	-14.974518	-1.8513794
1493855976332	-1.0110016	-14.254211	-0.51213074
1493855976332	-4.798004	-13.768921	2.7482452
1493855976332	-5.8081665	-14.482178	5.2839813
1493855976332	-5.279602	-16.180466	5.0232086
1493855976332	-4.761307	-16.852509	1.5596008
1493855976332	-2.6440277	-13.851822	-0.966156
1493855976332	1.7082062	-10.067551	-0.17530823
1493855976332	4.3536835	-8.832153	0.7414551
1493855976332	2.8153992	-8.33667	0.7843628
1493855976333	0.15260315	-7.475418	0.64460754
1493855976333	-2.2589874	-6.099365	2.56073
1493855976333	-3.0185852	-4.147644	3.3016205
1493855976333	-3.7515106	-3.685669	3.3390503
1493855976333	-3.8780365	-4.1305237	3.1833649
1493855976333	-3.767395	-3.102234	3.3806
1493855976333	-3.314392	-1.6620026	3.6710205
1493855976333	-2.1519318	-1.9047852	2.6003113
1493855976333	-0.4002533	-4.2227783	1.0664215
1493855976333	0.9863434	-9.17543	-5.117752
1493855976333	2.2624207	-18.202911	-17.90747
1493855976333	9.488602	-19.474823	-19.722397
1493855976333	5.849411	-16.470398	-6.345337
1493855976333	0.854126	-6.3924103	-2.1538544
1493855976333	-3.5234528	-4.102127	1.965744
1493855976333	-6.9671173	-16.64238	-2.01268
1493855976333	2.274109	-18.149902	4.6246643
1493855976333	-1.5084991	-6.764282	1.242218
1493855976333	-10.32132	0.2791748	-5.049774
1493855976333	-7.3202515	-1.7645111	18.308823
1493855976333	-0.7791748	-15.053055	6.9171753
1493855976333	2.2122345	-19.399277	2.250946
1493855976333	7.2296295	-13.215195	-0.8412628
1493855976333	5.21463	-9.122421	2.8918457
1493855976333	2.874466	-8.269806	0.33995056
1493855976333	-1.0448456	-8.5381775	1.3303528
1493855976333	-3.0468445	-9.497269	1.5492401
1493855976333	-2.8614655	-9.733765	1.308136
1493855976333	-1.8282776	-9.391296	0.33758545
1493855976333	-1.0757141	-8.6597595	-0.48165894
1493855976333	0.20373535	-8.182571	0.29756165
1493855976333	1.4718475	-8.257736	0.7228699
1493855976333	2.215149	-8.389236	0.825058
1493855976333	2.6522675	-8.853607	1.117981
1493855976333	3.009964	-9.530457	0.86531067
1493855976333	2.7928772	-10.288818	-0.67489624
1493855976333	1.8440704	-11.212204	-2.3937073
1493855976333	0.6261444	-11.714355	-2.2115326
1493855976333	0.38433838	-12.059738	-0.7112274
1493855976333	0.7858734	-12.262756	-0.55503845
1493855976333	1.8763275	-12.610992	-3.465042
1493855976333	4.7564545	-13.2608185	-4.8148193
1493855976334	7.218872	-13.9075165	-2.2085114
1493855976334	4.083191	-14.18779	-2.4034119
1493855976334	-1.5170746	-13.78418	-3.2646942
1493855976334	-5.6623993	-13.364426	1.1520538
1493855976334	-5.4897614	-13.375046	5.5398407
1493855976334	-5.37735	-15.498032	5.8027954
1493855976334	-5.6867676	-17.005875	2.4164276
1493855976334	-4.388733	-15.302017	-2.0231476
1493855976334	-0.08760071	-11.276413	-1.5746918
1493855976334	3.7061005	-9.254562	0.057022095
1493855976334	3.4750214	-8.615387	0.40072632
1493855976334	1.2117004	-7.7186737	1.0759125
1493855976334	-1.1278229	-6.593506	1.6234436
1493855976334	-2.223999	-5.146393	2.658966
1493855976334	-2.979065	-4.156906	3.3377228
1493855976334	-3.766693	-4.144272	3.2135315
1493855976334	-3.8411407	-3.6385803	3.271515
1493855976334	-3.6319885	-2.3193817	3.6555328
1493855976334	-3.2889404	-1.7752991	3.5323029
1493855976334	-2.1104279	-3.2436676	2.2128906
1493855976334	-0.16264343	-7.3543243	-2.2350922
1493855976334	1.1296539	-14.992355	-13.476059
1493855976334	4.611557	-19.248108	-19.722397
1493855976334	5.601761	-18.922958	-11.38623
1493855976334	2.5057983	-11.1306	-4.017227
1493855976334	-1.16185	-3.9777832	0.28800964
1493855976334	-5.0080566	-9.412445	1.4621735
1493855976334	-0.15310669	-17.271988	2.0569458
1493855976334	1.552536	-14.513412	-0.37528992
1493855976334	-4.111374	-4.1347656	4.3754425
1493855976334	-8.995529	-0.1829071	10.052185
1493855976334	-5.476944	-8.405075	6.832382
1493855976334	0.15463257	-16.0392	5.375885
1493855976334	4.8699646	-15.769287	1.6130829
1493855976334	5.54068	-11.1072235	0.84809875
1493855976335	2.63385	-9.064194	1.4640961
1493855976335	-0.09291077	-8.730057	1.08638
1493855976335	-1.7357788	-9.501511	1.2924652
1493855976335	-1.6330719	-9.91629	0.4398346
1493855976335	-0.32002258	-9.616959	-0.08326721
1493855976335	0.39006042	-8.690903	-0.24362183
1493855976335	0.81256104	-7.931198	0.11256409
1493855976335	1.1603088	-7.881531	0.15966797
1493855976335	1.3858032	-8.245651	1.2392273
1493855976335	1.124649	-8.912888	1.7198944
1493855976335	0.80000305	-9.136887	0.79185486
1493855976335	0.97979736	-9.395203	-0.30493164
1493855976335	1.6216888	-10.681717	-2.300827
1493855976335	2.0334167	-11.596008	-1.5626984
1493855976335	0.85401917	-11.614578	0.08036804
1493855976335	0.40307617	-11.809311	-1.6774902
1493855976335	2.0337067	-12.037415	-2.90802
1493855976335	4.186722	-12.252563	-4.4907074
1493855976335	7.5811462	-14.137405	-4.2655945
1493855976335	7.4555206	-15.292236	-1.6699677
1493855976335	1.5179443	-15.666672	-4.189499
1493855976335	-4.2123566	-13.306046	-1.7011871
1493855976335	-6.6409454	-12.587372	6.213455
1493855976335	-6.0492706	-13.087524	6.6830444
1493855976335	-2.724945	-14.270264	1.7460327
1493855976335	-4.166733	-16.658875	-1.8031006
1493855976335	-2.6141663	-14.249619	-0.8865967
1493855976335	2.0822296	-10.25148	1.177185
1493855976335	3.7572632	-8.767456	2.1340027
1493855976335	2.2387848	-8.295563	1.3291168
1493855976335	-0.04472351	-7.6013947	1.6905975
1493855976335	-2.004776	-6.762802	2.4004822
1493855976335	-2.792984	-5.128784	3.1825714
1493855976335	-2.7896118	-4.4004517	2.97406
1493855976335	-3.029541	-4.558548	3.2404022
1493855976335	-3.4700775	-3.2327423	3.5781097
1493855976335	-3.627655	-2.017929	3.6396637
1493855976335	-2.9824371	-2.5563354	2.3588257
1493855976335	-1.6688385	-5.4710236	-1.5011444
1493855976335	-0.49806213	-12.036865	-11.037796
1493855976335	2.9431915	-18.77832	-19.722397
1493855976336	6.533615	-18.139465	-15.0271
1493855976336	2.2321472	-12.156662	-4.016464
1493855976336	-0.71258545	-4.776474	-2.8036346
1493855976336	-4.576645	-6.9084625	-2.3204346
1493855976336	-4.177994	-16.57698	0.8921509
1493855976336	2.4432526	-16.783157	5.239502
1493855976336	-0.29629517	-8.5578	3.4467926
1493855976336	-5.4907227	-2.0318298	5.875107
1493855976336	-6.067627	-5.211838	8.292419
1493855976336	-1.7447205	-13.298248	4.862625
1493855976336	2.918869	-15.722031	3.1925812
1493855976336	4.8863373	-12.922073	1.6500854
1493855976336	3.184784	-9.7482605	1.5248718
1493855976336	-0.03111267	-8.732681	0.6992035
1493855976336	-1.5614319	-8.724335	0.63230896
1493855976336	-1.6743927	-9.321625	1.1006165
1493855976336	-1.305893	-9.608658	0.71144104
1493855976336	-0.840744	-9.218079	-0.10134888
1493855976336	-0.3978424	-8.403687	-0.24481201
1493855976336	0.45785522	-7.8868256	-0.08615112
1493855976336	1.2580719	-8.048859	-0.009963989
1493855976336	1.5252838	-8.980423	0.40844727
1493855976336	1.4688263	-9.962799	1.3208771
1493855976336	1.4465485	-10.253983	0.30221558
1493855976336	1.9913788	-10.370239	-1.4330139
1493855976336	1.8606262	-10.96347	-0.85647583
1493855976336	0.05683899	-11.4153595	-0.9279022
1493855976336	-0.97247314	-11.585083	-1.5860138
1493855976336	0.76083374	-11.898697	-2.188614
1493855976336	4.1217194	-12.842804	-3.7913666
1493855976336	7.9796906	-14.304993	-1.146225
1493855976336	7.8035126	-15.301819	-1.5023346
1493855976336	1.8858948	-15.276489	-4.5816803
1493855976336	-4.809189	-14.464233	-2.721466
1493855976336	-6.172714	-12.538681	4.408844
1493855976336	-4.940567	-11.813141	6.6183014
1493855976336	-3.838089	-13.704544	2.6786804
1493855976336	-4.641449	-15.540375	-1.019989
1493855976336	-2.7027893	-13.370331	-1.0486908
1493855976336	1.3696136	-10.169785	0.7209778
1493855976336	4.19281	-8.689865	2.2424316
1493855976336	1.7606201	-8.655991	1.2507477
1493855976337	0.14657593	-7.974945	1.5374146
1493855976337	-2.343872	-6.863327	2.149231
1493855976337	-3.6090698	-5.14003	2.640442
1493855976337	-3.851181	-3.9647217	2.4675446
1493855976337	-3.7284546	-3.851715	2.3569489
1493855976337	-3.1967163	-2.8471527	2.6582642
1493855976337	-3.004181	-1.2894135	3.0390778
1493855976337	-1.8121338	-2.043869	2.01326
1493855976337	0.021636963	-5.409485	-1.0258636
1493855976337	1.2356873	-11.5863495	-8.214767
1493855976337	5.354721	-19.474823	-19.64975
1493855976337	6.0309143	-19.319916	-12.793396
1493855976337	0.9714966	-12.806519	-6.022293
1493855976337	-2.1794891	-3.7237701	-2.2414246
1493855976337	-5.4663544	-4.4750824	1.5295868
1493855976337	-4.003235	-14.800507	-1.3862915
1493855976337	2.42424	-17.118607	5.0332947
1493855976337	-2.7073364	-8.014328	-0.0035095215
1493855976337	-6.440613	-1.9815826	9.230011
1493855976337	-6.386841	-4.6539917	9.367538
1493855976337	-0.85957336	-13.683334	3.9033508
1493855976337	3.3422394	-15.069809	4.019806
1493855976337	6.0038147	-11.644028	1.4394531
1493855976337	3.2960052	-9.983459	1.3084106
1493855976337	0.5284424	-9.126602	1.026947
1493855976337	-1.6465759	-8.791412	1.7005768
1493855976337	-2.279007	-9.604996	1.6639557
1493855976337	-1.495163	-10.012909	1.070755
1493855976337	-0.41189575	-9.600052	0.7970276
1493855976337	0.21582031	-8.7999115	0.31472778
1493855976337	0.7240906	-8.177582	0.15437317
1493855976337	1.0193481	-8.156677	0.73908997
1493855976337	1.2634277	-8.733978	1.0017395
1493855976337	1.534668	-9.45459	1.0874634
1493855976337	1.6699219	-9.836609	0.28334045
1493855976337	1.6058044	-10.222855	-1.7258606
1493855976337	1.5211945	-10.9535675	-2.2410583
1493855976337	0.9494324	-11.308716	-1.3197327
1493855976337	1.106842	-11.387604	-1.7691956
1493855976337	2.8784943	-11.846329	-2.3043365
1493855976337	5.478943	-13.074097	-3.4123535
1493855976337	7.469269	-15.058685	-2.552246
1493855976337	5.2072754	-16.347046	-1.249588
1493855976338	-1.9339447	-16.178848	-3.4445038
1493855976338	-7.817047	-14.456406	0.09542847
1493855976338	-8.446579	-12.516846	5.631729
1493855976338	-5.8511353	-12.909088	4.8375244
1493855976338	-5.0591125	-15.169098	1.095871
1493855976338	-5.043045	-14.929092	-0.9792633
1493855976338	-2.0822449	-11.491653	-0.38594055
1493855976338	2.2231598	-8.859039	0.9520874
1493855976338	3.5823364	-8.529907	0.95739746
1493855976338	1.8096619	-8.367798	0.7470398
1493855976338	-0.3622284	-7.585556	1.1815948
1493855976338	-2.3640747	-6.3043365	2.3338165
1493855976338	-3.583313	-4.8162537	2.8983612
1493855976338	-3.4894714	-3.9545135	2.6910553
1493855976338	-2.9886932	-3.7907104	2.794403
1493855976338	-2.0852509	-3.0289154	2.8096313
1493855976338	-1.4429779	-1.9041748	3.0260315
1493855976338	-0.8750305	-2.570343	2.3362427
1493855976338	0.093048096	-6.0748444	-0.8498993
1493855976338	2.9187164	-12.731186	-11.758514
1493855976338	7.4586487	-18.22377	-18.61258
1493855976338	5.0191956	-19.139282	-7.9025574
1493855976338	1.1924286	-11.03302	-3.7103271
1493855976338	-2.2555237	-6.165863	-5.0734863
1493855976338	-6.24321	-12.908356	-2.4278717
1493855976338	-4.8557434	-15.861404	8.808502
1493855976338	-5.214859	-9.121704	2.3135223
1493855976338	-4.333664	-3.703949	3.6209106
1493855976338	-3.40448	-4.542618	11.047379
1493855976338	-0.31840515	-11.603867	5.561615
1493855976338	2.490097	-15.514435	2.9329224
1493855976338	4.1858673	-12.802414	2.0400238
1493855976338	2.8971252	-9.579651	2.716156
1493855976338	0.04951477	-8.834579	1.5133972
1493855976338	-1.9189453	-9.3745575	1.5445099
1493855976338	-1.5482788	-9.928055	1.4225311
1493855976338	-0.87402344	-9.751953	1.6458435
1493855976338	-0.13873291	-9.062546	1.0721741
1493855976338	-0.41012573	-8.67627	0.7060547
1493855976338	0.21125793	-8.503845	1.7013245
1493855976339	1.8205109	-8.833542	1.3586884
1493855976339	2.840393	-8.93721	1.0577087
1493855976339	2.893219	-9.407303	1.0527649
1493855976339	1.6848145	-9.669785	0.5783539
1493855976339	0.8796692	-10.101501	-1.7553253
1493855976339	1.5470734	-10.570526	-2.5009003
1493855976339	1.9824219	-11.600052	-0.89933777
1493855976339	1.4824371	-12.107712	-0.069610596
1493855976339	1.0935364	-12.216415	-1.6617432
1493855976339	2.198944	-12.30481	-2.9031982
1493855976339	3.965744	-12.252472	-2.952942
1493855976339	5.298935	-13.326675	-3.4301605
1493855976339	4.3273926	-14.33934	-1.6387634
1493855976339	0.08692932	-14.857407	-4.3520966
1493855976339	-4.6196747	-13.633789	-3.7759094
1493855976339	-7.383148	-12.404053	3.6904602
1493855976339	-6.4039764	-12.736465	7.981064
1493855976339	-4.156845	-14.105408	3.9310913
1493855976339	-2.2893066	-14.85495	-1.278717
1493855976339	-1.7204285	-13.533234	-2.3606262
1493855976339	1.02005	-10.858032	0.41853333
1493855976339	2.6302185	-9.473282	1.9673462
1493855976339	1.0891418	-9.027969	1.6594238
1493855976339	-0.7666321	-8.119919	0.7905884
1493855976339	-2.0086823	-6.747162	2.2396545
1493855976339	-3.216095	-5.2491302	3.111618
1493855976339	-3.11792	-4.24942	2.39682
1493855976339	-2.5879517	-4.2106476	1.9176636
1493855976352	-2.0774078	-3.7026672	2.1231537
1493855976371	-1.6045837	-2.170929	2.8321838
1493855976391	-1.2130127	-1.6929474	2.9741058
1493855976411	-0.43045044	-3.8106232	1.3255768
1493855976431	0.9584198	-8.65834	-4.426758
1493855976451	3.413498	-15.434525	-14.059631
1493855976471	5.0852203	-19.474823	-16.288956
1493855976491	2.9843597	-15.744797	-10.139435
1493855976511	-0.27293396	-7.7900543	-5.120819
1493855976531	-3.0010834	-3.418686	0.6522217
1493855976550	-5.0101776	-9.053879	2.9328156
1493855976570	-3.0151215	-16.044281	2.0736694
1493855976590	-0.44796753	-15.120071	-2.6993103
1493855976610	-0.9985962	-8.006866	4.041153
1493855976630	-4.4078827	-3.79628	9.403503
1493855976650	-4.1354675	-8.2845	5.363434
1493855976670	-0.30508423	-13.379379	4.15889
1493855976690	3.5550385	-13.1203	3.6510315
1493855976710	4.761688	-11.018494	2.230896
1493855976730	2.71167	-10.318924	1.0705566
1493855976749	-0.05899048	-9.7747345	0.8157501
1493855976769	-1.7262268	-9.213715	0.8698883
1493855976789	-1.8739471	-9.039612	1.1910553
1493855976809	-1.0495148	-8.84343	1.0199127
1493855976829	-0.43333435	-8.859985	0.4658203
1493855976849	-0.26109314	-8.745361	0.7915802
1493855976869	0.24284363	-8.392517	0.54319763
1493855976889	1.1616974	-8.580902	0.582428
1493855976909	1.9976654	-9.246628	1.5997162
1493855976928	2.0524902	-9.518311	1.9400177
1493855976952	1.463974	-9.561386	0.548584
1493855976971	1.134018	-10.555954	-2.1954956
1493855976990	1.8065643	-11.921631	-2.5354767
1493855977010	1.7559204	-12.29155	-1.2460022
1493855977030	0.6008301	-12.125366	-1.0759888
1493855977052	0.06324768	-12.058151	-2.2366943
1493855977067	1.1001282	-12.067352	-2.652481
1493855977087	3.0374908	-13.233124	-3.7228699
1493855977107	6.443466	-15.514893	-2.284958
1493855977128	6.9648743	-15.05127	-0.58517456
1493855977151	2.7216797	-14.5728	-3.995987
1493855977170	-3.170868	-12.407791	-0.53492737
1493855977187	-4.217758	-10.531586	5.8855743
1493855977210	-2.5997162	-11.959915	7.7094116
1493855977230	1.366333	-14.332428	3.314499
1493855977247	0.3584442	-16.738525	-2.7013092
1493855977289	-0.7344818	-14.353256	-0.95918274
1493855977310	0.38150024	-10.143799	2.6338806
1493855977327	1.3167877	-8.806	2.0337982
1493855977349	1.9987183	-7.688278	2.715454
1493855977370	0.50439453	-6.8671875	1.6663818
1493855977387	-1.4242554	-5.475586	2.227539
1493855977411	-1.5543823	-4.719635	1.9596252
1493855977431	-1.3389435	-4.828781	1.7883453
1493855977450	-1.6394043	-5.2735443	3.0291138
1493855977467	-3.2381744	-4.2029114	4.0021515
1493855977491	-4.1642303	-3.503708	3.8367615
1493855977510	-3.199768	-4.01033	2.6188354
1493855977531	-1.3048859	-6.472458	-1.850296
1493855977550	-1.1655273	-10.4935	-7.825638
1493855977571	-0.3829956	-16.580536	-17.895645
1493855977590	7.7768555	-18.86055	-16.537796
1493855977608	6.915619	-14.595428	-3.1804047
1493855977629	2.8146973	-6.4636383	-1.6114502
1493855977650	0.5664215	-7.098419	0.6460724
1493855977667	-0.699234	-17.977112	-3.8351593
1493855977689	4.112564	-16.84195	3.0773315
1493855977707	-5.1610107	-6.6202087	4.4693146
1493855977731	-13.868332	1.2945557	3.2073212
1493855977749	-12.1154175	-2.3995972	14.273666
1493855977767	-2.6820526	-14.13678	6.195343
1493855977790	3.5988464	-17.899918	1.7935638
1493855977808	7.804611	-14.822372	0.09422302
1493855977829	6.862335	-10.210388	1.7233734
1493855977846	1.4187012	-8.855942	1.1981812
1493855977868	-2.7754364	-8.789001	0.5993347
1493855977888	-3.585022	-9.416992	0.48597717
1493855977906	-1.8561859	-9.474579	0.047424316
1493855977928	-0.38848877	-8.733856	-0.36312866
1493855977948	0.21972656	-7.9933167	-0.36888123
1493855977965	0.41326904	-7.9551544	0.15367126
1493855977987	0.86351013	-8.268311	0.443573
1493855978007	1.463211	-8.610489	0.9844055
1493855978025	1.668335	-9.0095215	1.4835663
1493855978047	1.3396454	-9.45079	0.5253906
1493855978067	1.5492706	-10.244095	-1.5344543
1493855978084	1.4658813	-11.30397	-2.8045044
1493855978107	0.1822815	-12.093933	-2.936386
1493855978127	-0.784729	-12.465454	-2.3899078
1493855978150	-0.03413391	-12.5095825	-2.4555054
1493855978162	3.6732025	-13.339691	-3.6579437
1493855978182	7.305481	-15.282211	-3.2389526
1493855978201	7.092407	-16.224777	-2.4455109
1493855978226	1.6327667	-15.166824	-1.7677612
1493855978245	-3.9022675	-13.588196	1.568222
1493855978260	-5.4880066	-13.2314	5.431732
1493855978285	-3.8736267	-13.903244	4.406418
1493855978302	-3.4065552	-15.053543	1.3711548
1493855978325	-3.3704224	-14.449173	-0.78334045
1493855978345	-0.55708313	-11.266418	0.0132751465
1493855978360	3.7661743	-8.7716675	1.9315643
1493855978384	3.5734863	-8.469757	1.5272217
1493855978405	2.1328583	-7.484894	1.3191528
1493855978423	-0.21754456	-6.613434	1.988266
1493855978442	-1.9002533	-5.2265015	3.0582123
1493855978465	-2.2473145	-4.3846283	2.90596
1493855978484	-2.401535	-4.9144135	3.3637238
1493855978502	-3.2627106	-4.5204163	3.7664795
1493855978524	-3.998108	-3.3075256	4.333023
1493855978544	-4.462921	-2.811905	4.1125183
1493855978561	-3.1693115	-4.36438	1.6268616
1493855978580	-1.9021301	-8.549362	-3.979889
1493855978600	-2.7608032	-16.620651	-18.042526
1493855978622	8.011505	-19.287384	-19.722397
1493855978643	7.21286	-19.474823	-5.367691
1493855978658	1.293808	-8.032761	-2.3960724
1493855978683	-0.73139954	-0.81736755	-0.9786072
1493855978702	-5.7961884	-10.426071	-2.646576
1493855978720	2.400406	-18.569809	5.303131
1493855978742	0.4810791	-13.351578	5.078949
1493855978762	-4.999542	-4.7504425	-1.7465973
1493855978802	-10.018539	-2.4397125	9.762695
1493855978802	-6.57193	-9.056091	7.6679688
1493855978823	-1.1428528	-14.054718	3.3785095
1493855978862	2.660843	-13.848373	3.3839722
1493855978881	6.890442	-11.076553	3.0859833
1493855978901	4.089554	-10.541168	1.6132965
1493855978916	-0.44067383	-10.005646	0.33776855
1493855978941	-2.910736	-9.410873	1.2684479
1493855978961	-3.3327942	-9.405258	0.6927643
1493855978976	-2.4107513	-9.310684	0.38861084
1493855979001	-0.74357605	-9.132019	-0.979126
1493855979021	0.15466309	-8.438934	-0.32884216
1493855979036	1.1399231	-8.284607	0.29371643
1493855979060	1.1665192	-8.346741	0.9883423
1493855979080	0.76423645	-8.639084	1.471756
1493855979095	0.47000122	-9.414749	1.203064
1493855979120	0.96795654	-9.540985	-0.44587708
1493855979120	1.8957977	-9.683289	-2.1269684
1493855979156	2.6508484	-10.980392	-1.7424622
1493855979176	1.1274872	-11.691818	-0.9425354
1493855979196	0.4083252	-12.237518	-1.7597198
1493855979218	1.6696167	-12.505753	-2.1710663
1493855979240	3.8717346	-13.13237	-3.0758972
1493855979260	6.1545563	-14.516312	-2.9579926
1493855979278	5.9303284	-15.289459	-1.3846741
1493855979298	1.4893494	-15.051147	-3.6056519
1493855979317	-3.4608307	-14.289246	-3.1673584
1493855979338	-5.2151337	-12.651657	4.0447235
1493855979358	-4.3539734	-11.835327	7.213562
1493855979377	-3.6652985	-13.483231	4.793976
1493855979396	-3.7322388	-15.923035	-0.3765564
1493855979420	-2.9506683	-14.740814	-2.349823
1493855979436	0.6139984	-10.914337	-0.05970764
1493855979458	4.6495667	-8.751373	1.1947784
1493855979478	4.3588257	-8.505035	0.9143982
1493855979496	1.3992462	-7.861664	1.2967834
1493855979518	-1.5772705	-6.640793	2.702362
1493855979538	-2.93161	-5.12796	3.3685455
1493855979555	-3.0757751	-4.27034	3.1017761
1493855979581	-2.9723358	-4.5309753	2.888214
1493855979597	-3.1656342	-4.0710907	2.992157
1493855979617	-3.2745667	-2.5827484	3.4220123
1493855979639	-2.7337952	-2.2439575	3.0420227
1493855979652	-1.4868927	-4.283951	0.8481903
1493855979672	-1.2489471	-9.528641	-5.056656
1493856026203	-0.7242737	-16.717026	-15.34993
1493856026204	6.2227325	-19.474823	-17.522278
1493856026204	6.242279	-14.640701	-8.988495
1493856026204	1.875824	-5.8822327	-2.044693
1493856026204	-3.3541107	-6.4435577	0.6785736
1493856026204	-4.311554	-15.707504	-3.1977692
1493856026204	0.6996918	-18.020126	0.57910156
1493856026204	-1.8090973	-10.006882	0.59329224
1493856026204	-7.802826	-2.3298492	7.7252655
1493856026204	-8.799576	-2.2177734	13.048676
1493856026204	-3.6918793	-10.478302	7.085602
1493856026204	0.53611755	-15.959457	4.491684
1493856026204	7.0746307	-14.421555	1.7880707
1493856026204	5.7799377	-11.807083	0.64442444
1493856026204	1.5811768	-9.66478	1.4678497
1493856026204	-1.9959564	-8.39624	1.989502
1493856026204	-3.5932312	-9.104843	0.8508148
1493856026204	-2.8345642	-9.868576	0.2401123
1493856026204	-1.3645935	-9.367142	-0.36923218
1493856026204	-0.43780518	-8.501648	0.087509155
1493856026204	0.2392273	-8.174408	0.57696533
1493856026204	1.2527466	-8.142166	0.67626953
1493856026204	2.1580505	-8.372147	1.3638153
1493856026204	1.894165	-9.009384	0.999527
1493856026204	1.2158966	-9.759186	0.18954468
1493856026204	1.6720581	-10.236938	-1.5882568
1493856026204	3.1572723	-10.961212	-3.2628784
1493856026204	3.8184662	-11.795685	-1.128891
1493856026204	0.61735535	-12.330612	-0.6513672
1493856026204	-0.8610687	-12.110123	-3.5006104
1493856026204	1.2866058	-12.266708	-2.2658997
1493856026204	4.137329	-13.733139	-3.9620209
1493856026204	6.904068	-15.792328	-1.9381561
1493856026204	5.4918823	-15.627243	-0.47010803
1493856026204	-1.7849884	-15.251663	-4.7949066
1493856026204	-6.45726	-13.453445	1.7342072
1493856026204	-6.0544586	-11.84697	6.2256165
1493856026204	-4.4735413	-13.646133	4.3835754
1493856026205	-3.882248	-16.754135	1.8474426
1493856026205	-3.7513428	-15.766434	-2.0439606
1493856026205	-0.69721985	-11.487106	0.29786682
1493856026205	3.3815613	-9.097	1.9571991
1493856026205	3.2714386	-8.779694	1.9813538
1493856026205	0.9811554	-7.952484	0.17570496
1493856026205	-1.0802917	-6.561432	0.8709717
1493856026205	-2.40596	-4.71402	2.897049
1493856026205	-2.90477	-3.5625153	3.086502
1493856026205	-3.4264374	-3.708969	3.3267517
1493856026205	-3.400711	-3.7410889	3.6145782
1493856026205	-2.7152863	-2.5803528	3.638977
1493856026205	-2.1530914	-1.6612091	3.3520966
1493856026205	-0.9625397	-3.3565826	1.5493774
1493856026205	-0.0023956299	-8.040512	-3.9633942
1493856026205	0.7257843	-14.629211	-13.420883
1493856026205	4.0069275	-19.474823	-17.212677
1493856026205	6.458313	-17.026962	-9.945068
1493856026205	2.28862	-8.950394	-4.8263245
1493856026205	-2.6369934	-4.228607	-0.31018066
1493856026205	-5.7006836	-10.888672	4.087372
1493856026205	-3.9192505	-17.699997	1.4616241
1493856026205	-2.9750671	-12.913788	-1.4144135
1493856026205	-3.9276123	-3.9484558	6.095566
1493856026205	-4.419861	-3.001587	10.482483
1493856026205	-2.243164	-10.343872	4.859024
1493856026205	2.157135	-15.185043	3.3730774
1493856026205	4.5796356	-12.855804	2.9018402
1493856026205	3.3068695	-10.238617	2.5192719
1493856026205	-0.19946289	-9.476913	1.9208984
1493856026205	-2.1582031	-9.056519	1.7526703
1493856026205	-2.925476	-9.331909	1.9083252
1493856026205	-2.2716675	-9.851883	1.3694916
1493856026205	-0.6569824	-9.453857	0.81822205
1493856026205	0.17759705	-8.511246	0.5031738
1493856026205	0.9824219	-7.718338	0.03387451
1493856026205	1.5866699	-7.668976	0.12684631
1493856026205	1.833786	-8.353378	0.8315277
1493856026205	1.8630829	-9.23851	1.3908691
1493856026205	1.6031647	-9.873505	0.049591064
1493856026205	2.2296143	-10.360504	-2.3783875
1493856026206	2.5229645	-11.438705	-2.093933
1493856026206	1.3412781	-12.195679	-1.2500763
1493856026206	0.4513092	-12.423111	-1.7006531
1493856026206	2.1480103	-12.348389	-1.8216553
1493856026206	4.123413	-12.407806	-2.8934631
1493856026206	5.1242065	-13.110352	-4.5188446
1493856026206	6.5091095	-15.586533	-2.590805
1493856026206	3.6206207	-16.313278	-2.9160614
1493856026206	-1.4026184	-15.075165	-2.7429504
1493856026206	-5.4651184	-13.913071	2.221756
1493856026206	-7.494156	-13.569565	6.899338
1493856026206	-6.6765747	-15.00737	6.1179657
1493856026206	-4.874008	-17.04744	1.0499268
1493856026206	-2.7927551	-15.332581	-2.662201
1493856026206	1.2286224	-11.08963	-0.4562683
1493856026206	4.8399353	-8.90213	1.6406708
1493856026206	3.7503815	-8.918976	1.8071136
1493856026206	1.4741516	-7.685318	1.4004364
1493856026206	-1.3053589	-6.705368	1.4045105
1493856026206	-2.1157837	-4.6089935	2.7109528
1493856026206	-3.0185394	-3.250122	3.2745972
1493856026206	-3.5129395	-3.4438171	3.3746796
1493856026206	-3.25914	-3.0717926	3.3397217
1493856026206	-3.774826	-1.9810944	3.7824402
1493856026206	-3.3656006	-0.48330688	4.0130615
1493856026206	-1.4956512	-1.8959503	3.3842468
1493856026206	-0.14079285	-5.7194977	-0.7204895
1493856026206	-0.30374146	-13.974258	-15.3949585
1493856026206	1.2852631	-19.474823	-19.189453
1493856026206	6.5060577	-19.076965	-5.7597504
1493856026206	2.248886	-11.870483	-4.2359314
1493856026206	-4.1987915	-11.966064	-2.716339
1493856026206	-1.513916	-10.491547	5.989258
1493856026206	1.2578735	-9.671967	5.328491
1493856026206	-5.065399	-7.330368	-0.131073
1493856026206	-6.160431	-3.1625671	7.1676636
1493856026206	-3.211258	-3.943573	11.064377
1493856026206	-0.22543335	-12.492844	3.6437378
1493856026206	3.1609955	-14.364532	3.7262268
1493856026207	4.5242767	-11.05072	-0.6582489
1493856026207	1.9940338	-8.568115	1.1997223
1493856026207	-0.8413696	-8.391617	1.8878479
1493856026207	-1.9842834	-9.325378	1.5754242
1493856026207	-2.4082336	-9.945328	0.67123413
1493856026207	-1.8956146	-9.705612	0.3342743
1493856026207	-1.102066	-8.822128	0.74812317
1493856026207	0.12686157	-8.566437	0.7442932
1493856026207	1.427002	-8.800278	0.33554077
1493856026207	2.4022827	-9.109802	0.8834076
1493856026207	2.3288116	-9.394226	1.0274658
1493856026226	1.6394653	-9.70549	0.38941956
1493856026226	1.5809937	-10.096664	-0.8786011
1493856026226	2.4789734	-10.611099	-1.4069519
1493856026226	2.4358215	-11.395264	-1.022049
1493856026227	0.31758118	-11.539368	-1.9938965
1493856026227	-0.46595764	-11.472015	-3.1806946
1493856026227	1.9097137	-11.605316	-2.5126953
1493856026227	4.754608	-12.339111	-3.1665955
1493856026227	6.567047	-14.4339905	-2.9407806
1493856026227	5.0289307	-15.998016	-2.6204376
1493856026227	-0.25138855	-15.300827	-2.5099792
1493856026227	-4.5359955	-13.679321	2.3733673
1493856026227	-5.415024	-13.250275	5.889267
1493856026227	-3.627533	-14.347092	4.1512146
1493856026227	-3.1426392	-16.21379	0.56684875
1493856026227	-3.1952362	-15.564682	-1.2768555
1493856026227	-0.66026306	-11.778656	0.12394714
1493856026228	2.7410583	-9.0329895	1.4105682
1493856026228	2.9646149	-8.318573	1.0695801
1493856026228	0.9575958	-7.743759	1.0348053
1493856026228	-1.2967377	-6.763199	1.8368835
1493856026228	-2.5918121	-5.5351563	3.0371246
1493856026228	-2.8211212	-4.3644867	3.3817444
1493856026229	-3.123001	-4.41127	3.2567902
1493856026229	-3.3115845	-4.235718	3.164688
1493856026229	-3.7187195	-2.6112213	3.7709656
1493856026229	-3.8423462	-1.7763824	3.5427551
1493856026229	-2.124771	-3.2197723	2.0230103
1493856026229	-0.8186035	-7.6069183	-2.551422
1493856026229	0.35246277	-16.026031	-15.4086
1493856026229	4.968506	-19.26323	-19.722397
1493856026229	4.5714264	-18.078766	-7.6567993
1493856026229	0.9821472	-9.057449	-3.3396912
1493856026229	-1.9930267	-4.810089	-2.0601044
1493856026229	-4.9858856	-14.231079	-5.5828247
1493856026229	1.4906921	-17.117905	6.8772125
1493856026229	-1.5223846	-8.11174	5.393509
1493856026229	-6.3977356	-2.0738068	6.1285553
1493856026229	-6.767975	-3.9269257	8.629395
1493856026229	-3.2434082	-12.209503	6.215271
1493856026229	0.86405945	-15.445679	4.963318
1493856026229	5.4691467	-12.988632	2.9735413
1493856026230	4.615509	-10.778702	1.6398621
1493856026230	1.0100555	-9.535431	0.9532318
1493856026230	-1.5586548	-8.516525	1.8270721
1493856026230	-2.6719513	-9.056183	1.690445
1493856026230	-2.411026	-9.468201	0.49317932
1493856026230	-0.840271	-9.417908	0.14234924
1493856026230	-0.056732178	-8.968185	0.25746155
1493856026230	0.6182709	-8.126907	0.5554962
1493856026230	1.2560577	-8.175552	-0.24137878
1493856026230	1.5566254	-9.016602	0.6634979
1493856026230	1.3210297	-9.670502	2.0759888
1493856026230	1.0900879	-10.108734	0.8271637
1493856026230	1.8977661	-10.5208435	-2.2576904
1493856026230	2.9202576	-11.408493	-3.496704
1493856026230	2.7717743	-12.05423	-1.8248901
1493856026230	1.2765045	-12.121185	-2.094162
1493856026230	1.7722168	-11.924072	-2.3362274
1493856026230	3.6619873	-12.09845	-2.908783
1493856026230	5.8569794	-13.44574	-3.8681335
1493856026230	7.583435	-15.119476	-1.2470856
1493856026230	2.8453217	-15.2569275	-2.2441711
1493856026230	-3.2051086	-14.763672	-3.4331055
1493856026230	-7.5061035	-13.447632	2.8630219
1493856026230	-6.7060547	-12.8168335	8.389557
1493856026230	-4.022934	-14.486938	3.852127
1493856026230	-2.754364	-17.092545	-1.5825043
1493856026230	-2.3014374	-14.75798	-1.4588013
1493856026230	1.1053009	-10.550064	2.4855652
1493856026230	3.9279938	-9.283707	2.6539764
1493856026230	2.9404297	-8.798599	1.675003
1493856026230	0.22814941	-7.923828	0.87124634
1493856026230	-1.7498627	-6.215042	2.3053436
1493856026230	-2.7043762	-4.2602997	3.9648895
1493856026236	-3.180832	-3.1752014	3.8029022
1493856026236	-3.4609985	-2.7936554	3.5986023
1493856026236	-3.59729	-1.8632813	3.70195
1493856026236	-3.4947052	-1.0180359	3.7001343
1493856026236	-2.2102356	-2.2437897	2.4916077
1493856026236	-0.69444275	-5.762665	-1.339447
1493856026236	1.08815	-13.367401	-11.445374
1493856026236	5.134094	-19.474823	-19.722397
1493856026236	5.5464783	-17.660873	-11.77742
1493856026236	1.1271515	-10.772949	-3.3878021
1493856026236	-3.0009918	-4.749069	-3.576538
1493856026236	-5.93013	-11.00383	-2.7363129
1493856026236	-2.5329132	-17.61621	1.8421631
1493856026236	1.2182617	-12.3129425	3.4152985
1493856026236	-2.416092	-4.7432556	5.0647736
1493856026236	-6.0179596	-4.0713654	7.7267
1493856026236	-3.4596863	-10.092606	6.021347
1493856026236	0.7697754	-14.580124	5.1884613
1493856026236	4.902252	-13.3979645	3.367279
1493856026236	5.059616	-11.005478	1.8217316
1493856026236	0.7511749	-9.785339	0.7848511
1493856026236	-2.1486206	-8.941498	1.0825348
1493856026236	-3.7339325	-9.223419	1.1196289
1493856026237	-3.5191345	-9.637024	0.38833618
1493856026237	-1.6996765	-9.275284	-0.12312317
1493856026237	-0.31498718	-8.240921	-0.14329529
1493856026237	0.4612732	-7.635681	0.42390442
1493856026237	0.48799133	-7.5718384	0.45510864
1493856026237	0.73794556	-8.366684	0.5529022
1493856026237	1.6715851	-9.822205	0.90986633
1493856026237	2.2113953	-10.532852	1.5284271
1493856026237	2.5042267	-10.363541	-1.0425415
1493856026237	3.4244385	-11.132568	-2.8506622
1493856026237	3.1210632	-12.126312	-2.5235138
1493856026237	1.2343292	-11.924301	-3.2049713
1493856026237	0.4901123	-11.963806	-4.1104126
1493856026237	2.773407	-11.844421	-3.3872833
1493856026237	6.045273	-12.729111	-3.3519897
1493856026237	7.971695	-15.256165	-1.9267273
1493856026237	3.249466	-17.029541	-2.5285187
1493856026237	-3.6446228	-15.461182	0.06930542
1493856026238	-6.455841	-14.2547455	3.9884033
1493856026238	-5.408661	-14.902603	4.463135
1493856026238	-3.5491638	-16.660843	2.9030762
1493856026238	-3.7880554	-17.233704	-5.340576E-4
1493856026238	-0.7295685	-12.530518	0.6616821
1493856026238	9.433701	-8.836655	11.210083
1493856026238	2.2084045	-10.171051	-3.334076
1493856026238	0.010864258	-8.497055	4.218445
1493856026238	-0.36676025	-7.0568542	1.2759857
1493856026238	-2.6664124	-5.011566	2.7592316
1493856026238	-2.977951	-3.3125458	3.5027466
1493856026238	-3.5613098	-3.5120697	3.5692444
1493856026238	-3.3950806	-3.612732	3.5065155
1493856026238	-3.5708008	-2.3967896	3.792984
1493856026238	-3.4106903	-1.4653015	3.4745636
1493856026238	-1.8364105	-2.7447662	1.8084106
1493856026238	0.17004395	-6.471939	-3.2310638
1493856026238	-0.36784363	-13.199799	-15.364319
1493856026238	5.0373993	-19.474823	-17.504395
1493856026238	7.369156	-18.002777	-4.260269
1493856026238	2.3994598	-8.752182	-3.6313934
1493856026238	-1.9802704	-3.0537872	-2.1861267
1493856026238	-5.938278	-10.271759	2.0646057
1493856026238	-2.4016266	-19.35878	1.9111176
1493856026238	-0.5163574	-15.893768	2.1506958
1493856026238	-2.9146729	-4.3563385	6.019272
1493856026238	-6.524719	-2.1258392	11.668976
1493856026238	-4.340851	-8.632828	8.356201
1493856026238	-0.052444458	-15.291061	3.9770203
1493856026238	3.1515656	-14.141754	4.2823334
1493856026238	3.2501678	-10.766907	1.8424072
1493856026238	-0.7012329	-9.430344	1.4415283
1493856026238	-2.1068268	-8.928131	1.5005646
1493856026238	-0.9589386	-9.150757	1.7841187
1493856026238	-0.13977051	-9.468536	0.9739685
1493856026238	0.65400696	-9.368866	0.9346161
1493856026238	1.0753326	-8.93898	0.044204712
1493856026238	1.4848633	-8.615753	-0.27697754
1493856026238	1.7587891	-8.536652	-0.04319763
1493856026238	1.7001495	-9.252548	0.19029236
1493856026238	1.3454132	-10.309891	0.5494995
1493856026239	1.4073029	-10.388046	-0.33035278
1493856026239	2.2669067	-10.290527	-2.6328735
1493856026239	2.5009155	-11.017303	-2.4414063
1493856026239	1.1687775	-11.238037	-1.188034
1493856026239	0.7247162	-11.100479	-1.6538086
1493856026239	2.5880585	-11.448776	-1.9173431
1493856026239	4.234009	-11.551788	-3.0449982
1493856026239	5.110565	-12.742432	-4.735306
1493856026239	5.386444	-15.431595	-3.0561981
1493856026239	1.5559692	-16.107742	-2.6161346
1493856026239	-4.318222	-14.55011	-0.6473541
1493856026239	-6.4193726	-13.939453	4.620575
1493856026239	-5.1059875	-14.57901	5.416153
1493856026239	-4.9756165	-16.021301	1.3350372
1493856026239	-5.797821	-16.688599	-1.0567474
1493856026239	-2.7079468	-13.587631	-0.03175354
1493856026239	2.6398468	-9.79686	1.6773376
1493856026239	3.4207764	-8.771286	1.5462036
1493856026239	1.141159	-7.9714203	1.0885925
1493856026239	-0.52827454	-6.9536743	1.19487
1493856026239	-2.108307	-5.9609375	2.5491486
1493856026239	-2.8339386	-4.4201813	3.146225
1493856026239	-2.6474	-3.3636017	3.2404327
1493856026239	-2.787033	-2.9876862	3.5357208
1493856026239	-2.9882202	-1.6756897	3.6803436
1493856026240	-2.501587	-0.98521423	3.6918488
1493856026240	-0.759079	-2.4569702	2.6289978
1493856026240	0.52989197	-6.4079285	-1.7021484
1493856026240	-0.45837402	-13.68483	-16.831299
1493856026240	4.9181824	-18.775085	-19.722397
1493856026240	6.9272614	-19.474823	-7.25264
1493856026240	1.4306946	-11.171661	-2.4582672
1493856026240	-1.3430786	-2.4647675	-2.1843414
1493856026240	-7.006836	-4.6953735	1.3561096
1493856026240	-6.94635	-16.179337	0.40872192
1493856026240	-3.8436737	-19.310516	-0.5254822
1493856026240	-0.55174255	-9.324463	1.370697
1493856026240	-2.2351532	-2.3060455	12.104095
1493856026240	-3.5813446	-4.246414	9.89624
1493856026240	-0.7747345	-14.62114	3.2757416
1493856026240	2.024582	-16.226288	4.621338
1493856026240	4.5446167	-11.735596	1.7413483
1493856026240	1.1947632	-10.094452	1.1868896
1493856026240	-1.7486725	-9.258865	0.907959
1493856026240	-2.3454285	-9.281616	1.3123474
1493856026240	-1.8849792	-9.383041	1.470047
1493856026240	-0.9560852	-8.92218	1.7375641
1493856026240	0.39892578	-8.296448	1.3649597
1493856026240	1.2309723	-8.107773	0.5769043
1493856026240	1.2174225	-8.178757	0.35813904
1493856026240	1.0046082	-8.594574	0.44779968
1493856026240	1.674942	-9.652451	0.90608215
1493856026240	2.6017303	-10.342377	1.2207794
1493856026240	2.926651	-9.926926	-1.0568237
1493856026240	3.4679108	-10.339767	-2.2335052
1493856026240	2.965622	-11.560959	-0.66871643
1493856026240	1.6635132	-11.819153	-0.58055115
1493856026240	1.0667725	-11.857956	-1.2988739
1493856026240	1.0590363	-11.671417	-1.2019501
1493856026240	0.69776917	-11.275558	-3.2096405
1493856026240	1.0209961	-11.935287	-5.6805267
1493856026240	3.3637848	-14.532196	-5.141754
1493856026240	3.0207672	-15.419296	-2.5955505
1493856026240	-0.5358887	-13.79393	-1.1459808
1493856026240	-4.039978	-13.016724	3.6251984
1493856026241	-5.868286	-14.370941	5.765335
1493856026241	-5.57428	-15.69574	3.4847107
1493856026241	-4.413849	-16.44281	0.05279541
1493856026241	-2.6275482	-14.4561615	-0.80015564
1493856026241	1.1313782	-10.470795	1.3879852
1493856026241	4.253937	-8.025879	1.4569244
1493856026241	3.2344513	-7.5019073	0.70233154
1493856026241	1.2370911	-6.734192	1.2285919
1493856026241	-0.8409271	-5.768341	1.9849701
1493856026241	-1.9064026	-4.3887787	2.8819275
1493856026241	-2.4402466	-3.8954163	3.351059
1493856026241	-3.126236	-4.546463	3.7930756
1493856026241	-3.6150665	-3.760788	4.4542084
1493856026241	-3.9308167	-2.1122437	4.6508636
1493856026241	-3.0121765	-2.4156036	3.5631866
1493856026241	-1.1517487	-5.6148376	0.6517792
1493856026241	-0.57606506	-12.202164	-8.52684
1493856026241	3.7646332	-17.909393	-17.432327
1493856026241	9.2608795	-19.36229	-10.084152
1493856026241	6.307144	-12.522446	-1.8320618
1493856026241	0.5941162	-4.1672363	0.6463623
1493856026241	-4.6707153	-6.832428	3.0158234
1493856026241	-5.6263885	-16.004227	0.9245148
1493856026241	-3.2658691	-18.611313	-7.897934
1493856026241	-3.9329376	-8.459656	5.098358
1493856026241	-7.5592194	-2.2493744	13.479904
1493856026241	-5.9083405	-8.681	9.09523
1493856026241	-0.98353577	-16.11	4.9032593
1493856026241	4.194336	-15.716843	3.1954498
1493856026241	4.1753235	-12.505356	2.8453522
1493856026241	1.0726929	-10.8354645	1.6321106
1493856026241	0.29197693	-9.367584	2.4700928
1493856026241	0.5256195	-8.634171	3.1033936
1493856026241	1.10112	-8.469864	3.181305
1493856026241	2.451889	-8.037628	2.9122925
1493856026241	2.8310242	-8.181366	1.8240509
1493856026241	1.6900024	-8.821548	1.1154175
1493856026241	0.81539917	-9.056107	-0.40605164
1493856026241	0.8703308	-8.898102	-1.2612762
1493856026241	2.4247742	-9.242493	-0.9158478
1493856026242	4.1886444	-10.257477	-0.12997437
1493856026242	5.236267	-10.76059	-1.0807343
1493856026242	4.8091125	-11.603363	-1.0623169
1493856026242	2.922287	-11.663879	-1.0687866
1493856026242	0.64375305	-11.64682	-2.413086
1493856026242	0.78092957	-11.416824	-2.102005
1493856026242	1.5997314	-11.59166	-3.0388184
1493856026242	3.3631744	-13.640915	-3.2260132
1493856026242	3.8713226	-15.797455	-2.9412231
1493856026242	-3.506256	-14.356766	-5.367325
1493856026242	-8.8415985	-12.777252	-0.27297974
1493856026242	-8.737869	-12.967407	6.568878
1493856026242	-4.976242	-14.259811	6.749527
1493856026242	-1.8177032	-15.154938	0.82369995
1493856026242	-2.6105804	-15.869492	-2.9312134
1493856026242	-2.5921783	-13.529068	-0.09022522
1493856026242	-0.71302795	-10.259033	1.1976624
1493856026242	1.9688416	-8.8363495	-0.21762085
1493856026242	0.96728516	-8.381775	0.16558838
1493856026242	-1.4770966	-7.1484985	0.8279419
1493856026242	-3.2318115	-5.3086243	1.7805939
1493856026242	-3.4089355	-3.9799042	1.2355347
1493856026242	-2.5434723	-4.027725	1.1720581
1493856026242	-1.1684113	-3.4388428	1.6203461
1493856026242	-0.4356537	-2.4803467	2.8304138
1493856026242	0.24743652	-1.424942	3.3653107
1493856026242	0.427536	-1.9973297	2.8976898
1493856026242	1.181366	-4.2342987	1.3161621
1493856026242	2.5455475	-9.2022705	-6.4358215
1493856026242	4.330368	-16.554321	-19.722397
1493856026242	4.751236	-19.474823	-16.561005
1493856026242	1.8588562	-17.045273	-7.9371643
1493856026242	-3.1121979	-9.010147	-3.9859314
1493856026242	-6.892227	-5.3893585	1.1393585
1493856026242	-6.437607	-10.392639	5.538437
1493856026242	-1.4411926	-12.047607	4.9921722
1493856026242	-1.5676117	-8.126236	1.1306
1493856026242	-2.2194824	-5.183777	6.242264
1493856026242	-1.3532867	-8.420914	7.015564
1493856026242	0.18157959	-14.122299	2.9175873
1493856026242	1.7302094	-13.766525	2.416504
1493856026243	2.2329102	-10.468094	1.7268524
1493856026243	1.2394714	-9.018906	1.6278229
1493856026243	0.54374695	-9.168961	1.4042511
1493856026243	0.47364807	-9.277695	1.1837158
1493856026243	-0.10771179	-9.501617	1.0268402
1493856026243	-0.6429596	-9.62764	0.793869
1493856026243	-0.06359863	-9.353607	0.6446228
1493856026243	0.40945435	-8.844986	0.67570496
1493856026243	0.39915466	-8.378387	0.8534088
1493856026243	0.56655884	-8.354401	0.8781891
1493856026243	1.6351318	-8.84996	0.96029663
1493856026243	2.6169128	-9.765106	0.8296509
1493856026243	2.934021	-10.245316	-1.0095062
1493856026243	3.4119263	-10.756729	-2.823059
1493856026243	3.095108	-11.533951	-1.3856201
1493856026243	0.94514465	-11.827744	-0.36779785
1493856026243	-0.4628601	-11.884659	-1.343277
1493856026243	0.714386	-11.93396	-2.2065735
1493856026243	2.7956696	-12.544922	-4.113327
1493856026243	5.689438	-14.928284	-3.1080627
1493856026243	5.3815002	-16.257156	-1.9260101
1493856026243	1.0549164	-15.1484375	-4.308716
1493856026243	-4.5829315	-13.712616	-1.5737
1493856026243	-6.341385	-12.727737	5.7756805
1493856026243	-4.400757	-13.250626	7.363632
1493856026243	-2.8176575	-15.307861	2.1234741
1493856026243	-2.3883057	-15.245102	-2.7943726
1493856026243	0.11555481	-11.771606	-0.1820221
1493856026243	3.9537659	-9.1020355	1.0413055
1493856026243	3.581192	-8.362167	1.4419708
1493856026243	1.8336334	-7.4327545	0.63323975
1493856026243	-1.0708618	-6.894226	1.3917084
1493856026243	-2.177414	-4.924423	2.8328552
1493856026243	-2.849533	-3.559784	3.0063782
1493856026243	-3.3875427	-4.2044373	2.8628998
1493856026243	-3.4593658	-4.135254	3.1227417
1493856026243	-3.3108978	-2.9134521	3.6299286
1493856026243	-2.7898407	-1.6857452	3.85289
1493856026243	-1.6201477	-3.070633	2.6590576
1493856026243	-0.3141327	-7.9264374	-2.3935547
1493856026243	0.44314575	-16.161255	-15.814407
1493856026244	8.857285	-19.465012	-19.710983
1493856026244	6.9489594	-19.32814	-4.8700256
1493856026244	1.5916901	-7.3137665	-2.846939
1493856026244	-1.3422546	0.27749634	3.2164612
1493856026244	-7.5533752	-12.426468	4.5233917
1493856026244	-1.5072632	-19.27063	2.5252533
1493856026244	-4.983917	-15.186188	-8.337448
1493856026244	-5.378006	-1.2728882	14.151657
1493856026244	-7.9167786	-1.2638702	13.931595
1493856026244	-2.3780518	-12.000244	5.753952
1493856026244	4.051407	-15.663864	5.8076324
1493856026244	8.869095	-13.214722	0.771225
1493856026244	4.714813	-10.595154	0.112213135
1493856026244	-0.046066284	-9.404694	-0.2938385
1493856026244	-1.7856903	-8.655487	0.99749756
1493856026244	-2.7099915	-8.714661	1.6156158
1493856026244	-1.1170807	-9.115845	0.8077698
1493856026244	0.03817749	-8.768616	0.82969666
1493856026244	0.03111267	-8.691193	0.90623474
1493856026244	0.45411682	-8.928757	-0.28593445
1493856026244	1.4236603	-8.8050995	0.3432312
1493856026244	1.8513794	-8.327225	1.182724
1493856026244	1.393219	-8.38327	0.6145325
1493856026244	0.8164215	-9.466858	-0.6941223
1493856026244	1.5880127	-10.661179	-1.716919
1493856026244	2.7045746	-11.521912	-1.6018982
1493856026244	2.0807343	-11.624039	-1.9077606
1493856026244	1.6349182	-11.649261	-2.09935
1493856026244	3.007782	-11.811783	-1.4522705
1493856026244	4.0905457	-12.0638275	-3.1207428
1493856026244	4.9424133	-14.1875	-4.43219
1493856026244	3.3524323	-16.050934	-3.7624054
1493856026244	-1.9920654	-15.224304	-4.022049
1493856026244	-5.749466	-13.392761	1.0269165
1493856026244	-6.752136	-13.560364	6.127823
1493856026244	-5.6486816	-15.350937	6.3237305
1493856026244	-4.3775787	-17.005814	2.6690063
1493856026244	-2.7275696	-15.714767	-1.4646149
1493856026244	0.49105835	-11.949371	-0.256485
1493856026244	3.3680267	-9.676956	1.7052612
1493856026244	2.1863098	-9.040436	1.7915192
1493856026245	-1.0604095	-8.2114105	1.6078644
1493856026245	-2.9076996	-6.470093	2.31958
1493856026245	-2.908722	-4.300232	2.77594
1493856026245	-2.233429	-3.2061615	2.3876495
1493856026245	-2.3418427	-3.2428284	2.4821777
1493856026245	-2.9802704	-2.5543823	2.8319702
1493856026245	-3.0516052	-1.3522644	3.008789
1493856026245	-2.2402344	-1.4801636	2.3776855
1493856026245	-0.5967407	-3.6584015	0.74642944
1493856026245	1.3234253	-8.608566	-4.620926
1493856026245	3.493515	-16.717102	-15.769165
1493856026245	5.6293945	-19.474823	-19.722397
1493856026245	2.4565735	-16.17218	-9.464066
1493856026245	-0.37825012	-6.90831	-4.9102325
1493856026245	-6.3844604	-5.080475	0.14248657
1493856026245	-5.0639343	-15.236801	1.8956299
1493856026245	2.0323334	-18.17073	2.9937592
1493856026245	-3.660141	-8.372437	-1.1821594
1493856026245	-6.592819	0.4559021	5.1751404
1493856026245	-5.090988	-2.1331024	12.910416
1493856026245	-0.67826843	-13.488235	4.9584656
1493856026245	2.1345215	-18.074493	2.908371
1493856026245	4.7838135	-13.1653595	2.5685425
1493856026245	3.4720306	-9.341614	3.0701752
1493856026245	0.1862793	-8.661316	1.2482147
1493856026245	-1.798645	-8.730072	1.0149536
1493856026245	-2.2299042	-9.752609	1.668747
1493856026245	-1.4545898	-10.279694	1.8325653
1493856026245	-0.06518555	-9.762863	1.0947418
1493856026245	0.33999634	-8.601776	0.04234314
1493856026245	0.5332947	-7.952591	-0.05239868
1493856026245	0.563324	-8.185837	-0.6213989
1493856026245	0.96243286	-8.382904	0.023208618
1493856026245	1.0125732	-9.215134	1.2411499
1493856026245	0.7660217	-10.186539	0.19773865
1493856026245	1.3318024	-10.57692	-3.041809
1493856026245	3.3839264	-11.07843	-3.9007874
1493856026245	3.3443756	-12.666672	2.1031952
1493856026245	-0.473938	-13.0030365	-1.3068237
1493856026245	-0.24304199	-12.706772	-4.8937073
1493856026245	4.0954285	-12.898575	-2.1724243
1493856026245	6.672806	-14.34845	-1.4425201
1493856026246	7.445221	-15.15007	-2.802185
1493856026246	2.1809998	-14.45874	-5.0082397
1493856026246	-3.0624084	-13.256424	-2.4047241
1493856026246	-3.440094	-11.891327	5.5598297
1493856026246	-3.1533508	-12.127914	6.783066
1493856026246	-3.0487518	-13.782364	1.4272614
1493856026246	-3.4800415	-15.315338	-1.185669
1493856026246	-2.549759	-14.279678	-0.66078186
1493856026246	0.6829529	-10.5542755	0.38713074
1493856026246	3.843872	-8.856033	0.57421875
1493856026246	2.0985718	-8.852722	0.6210785
1493856026246	0.009414673	-7.7493134	1.4532623
1493856026246	-3.067566	-6.826248	1.7223969
1493856026246	-2.578247	-4.937042	2.2193604
1493856026246	-2.9840546	-4.751709	2.3427582
1493856026246	-3.2400208	-4.91214	2.8052063
1493856026246	-3.4141693	-3.9109497	3.8153381
1493856026246	-3.3006287	-2.351471	4.2887573
1493856026246	-2.5962524	-1.89357	3.6824646
1493856026246	-1.0314941	-4.037674	0.90856934
1493856026246	0.16459656	-9.159439	-5.9604187
1493856026246	2.839386	-15.877182	-15.427994
1493856026246	8.00824	-19.474823	-14.722321
1493856026246	6.421707	-15.331696	-5.454727
1493856026246	0.5357361	-6.1574707	-1.6420898
1493856026246	-4.804245	-3.6013641	1.1199341
1493856026246	-7.86528	-12.06517	1.5173035
1493856026246	-4.102356	-18.346695	0.025360107
1493856026246	0.060272217	-13.643539	0.7990875
1493856026246	-2.9519348	-5.9319763	6.363739
1493856026246	-8.113937	-4.152817	9.527115
1493856026246	-6.519287	-9.136719	5.4066772
1493856026246	-1.7722778	-13.091171	4.4712524
1493856026246	3.9933167	-12.850357	4.287735
1493856026246	6.889099	-12.17276	2.3791351
1493856026246	4.8674164	-11.23996	0.7616272
1493856026246	1.3624878	-9.446396	1.4719696
1493856026246	-1.6941986	-8.47197	1.4464722
1493856026246	-2.6759796	-8.350204	1.083374
1493856026246	-1.9252014	-8.676117	0.22413635
1493856026246	-0.23916626	-8.848114	0.19047546
1493856026247	0.931839	-8.360901	-0.4755249
1493856026247	0.9962616	-7.865341	-1.4761658
1493856026247	1.1140747	-8.939301	-0.79359436
1493856026247	1.5233154	-10.4639435	0.717041
1493856026247	1.9330444	-10.756607	0.31445313
1493856026247	2.2376404	-10.272461	-1.1459808
1493856026247	2.1408844	-10.594238	-1.4371185
1493856026247	1.1223755	-11.394241	-0.15205383
1493856026247	0.3210144	-11.667847	-0.4701233
1493856026247	1.4499359	-11.341583	-1.5565796
1493856026247	3.6510925	-12.069138	-2.1747131
1493856026247	5.920517	-13.388824	-3.2927246
1493856026247	7.18219	-15.440048	-1.2589722
1493856026263	2.7190094	-15.544281	-3.4279327
1493856026263	-2.38208	-15.037369	-2.7839966
1493856026263	-5.4480286	-13.342056	2.8557587
1493856026263	-6.6105347	-12.60527	6.8722534
1493856026263	-5.493866	-14.563416	4.179428
1493856026263	-4.3490143	-16.923233	-0.6053772
1493856026263	-3.1835022	-15.200775	-1.8952942
1493856026263	1.6463623	-10.183655	0.270401
1493856026263	5.2296143	-8.465744	1.8415375
1493856026263	2.8605042	-8.436935	1.5168152
1493856026263	0.041793823	-7.8208466	0.5038452
1493856026263	-2.0339203	-6.431061	2.606247
1493856026263	-3.009262	-4.1642914	3.1329956
1493856026263	-3.2890167	-3.434906	2.5935364
1493856026263	-2.6838531	-3.9100342	2.5545502
1493856026264	-2.6431732	-3.2590332	2.6407013
1493856026264	-2.4189453	-1.7823029	3.363083
1493856026264	-2.1505737	-0.9699249	3.5938416
1493856026264	-0.939682	-2.9731293	1.881012
1493856026264	0.18000793	-8.369659	-4.681015
1493856026264	0.7078247	-16.685059	-16.198776
1493856026264	6.545578	-19.474823	-17.68959
1493856026264	5.81131	-17.620178	-5.697571
1493856026264	0.76190186	-6.760254	-1.369812
1493856026264	-4.7378845	-2.0691833	3.2561188
1493856026264	-7.8135986	-12.711426	4.1273346
1493856026264	-2.2728271	-15.897522	4.613037
1493856026264	-3.0385284	-10.525665	-4.692581
1493856026264	-2.530426	-4.2469025	9.786636
1493856026264	-5.256134	-6.582428	10.793091
1493856026264	-2.3455505	-12.337051	2.2652283
1493856026264	2.0634613	-13.249115	3.9933624
1493856026264	5.759552	-10.87291	3.0355225
1493856026264	4.540695	-9.887863	0.99324036
1493856026264	1.4802399	-9.935699	0.48373413
1493856026264	-1.023468	-9.607925	1.7541199
1493856026264	-2.6887207	-9.448334	1.3740692
1493856026264	-2.934494	-9.128021	0.64505005
1493856026264	-2.4304352	-8.771484	0.50476074
1493856026264	-1.0300903	-8.472824	0.75808716
1493856026264	0.6989746	-8.719482	0.5815277
1493856026264	1.9035187	-9.092575	0.48840332
1493856026264	2.436264	-9.435486	0.9841614
1493856026264	2.496582	-9.701096	0.76657104
1493856026264	2.439865	-10.046448	-0.8358154
1493856026264	3.006073	-10.400787	-2.1887817
1493856026264	3.1735382	-10.994766	-1.593338
1493856026264	1.875824	-11.013351	-1.6908875
1493856026264	0.8929138	-10.915375	-2.6025238
1493856026264	2.086197	-11.435623	-2.4629974
1493856026264	4.1189423	-12.235336	-3.3936462
1493856026265	6.159317	-14.533844	-3.9548035
1493856026265	5.507477	-16.334198	-1.7464447
1493856026265	0.40075684	-15.373566	-2.453415
1493856026265	-5.0611725	-14.376007	-1.6772919
1493856026265	-6.855377	-14.119766	4.170517
1493856026265	-6.0711823	-14.545486	6.6027985
1493856026265	-4.9838257	-16.033066	3.7331543
1493856026265	-4.101654	-16.221405	-0.9047699
1493856026265	-2.3261719	-13.173035	-2.0089722
1493856026265	2.1625519	-9.63829	0.10600281
1493856026265	3.9252472	-8.415039	1.8279877
1493856026265	1.9941101	-7.78981	1.3433685
1493856026265	-0.5627594	-6.7757874	1.0737152
1493856026265	-2.155014	-5.1578064	2.5519257
1493856026265	-2.908844	-3.6875916	3.0481873
1493856026265	-3.5359497	-3.6542816	3.0410614
1493856026265	-3.7203217	-3.7972412	3.123932
1493856026265	-3.1190186	-3.2308807	3.3061066
1493856026265	-2.9648438	-1.7370148	3.9292145
1493856026265	-2.675293	-1.7644653	3.3932495
1493856026265	-1.0331268	-3.6656647	1.8911438
1493856026265	1.0522614	-9.713669	-3.625946
1493856026265	3.8467255	-18.254333	-17.60524
1493856026265	7.7106934	-19.474823	-19.722397
1493856026265	3.1753998	-15.926361	-5.264847
1493856026265	0.1007843	-3.1771088	-3.4967346
1493856026266	-9.926544	-7.342804	-0.65745544
1493856026266	-6.773697	-17.38829	2.6451416
1493856026266	-2.4595947	-14.398895	-0.7686157
1493856026266	0.3128357	-2.895218	8.180344
1493856026266	-3.4811096	1.1643829	10.066437
1493856026266	-3.2556152	-7.970566	7.313919
1493856026266	0.6078949	-19.185608	2.2283173
1493856026266	3.6491852	-17.94989	2.7272797
1493856026266	4.3670807	-9.309357	1.8152771
1493856026266	0.55677795	-7.8572235	2.0469208
1493856026266	-0.7567749	-8.30452	2.1007233
1493856026266	-0.95558167	-9.227097	2.332077
1493856026266	-1.4144592	-9.4618225	1.0618286
1493856026266	-1.692215	-9.416199	1.3551483
1493856026266	-0.50115967	-9.321533	0.9135895
1493856026266	-0.18119812	-8.809021	0.10920715
1493856026266	-0.045166016	-8.4639435	-0.23306274
1493856026266	0.72991943	-8.356613	0.11357117
1493856026266	2.3800812	-9.284561	1.0092926
1493856026266	3.9594421	-10.563889	1.3545074
1493856026266	3.8516388	-10.630783	-0.74324036
1493856026266	3.7463226	-10.232117	-4.0937653
1493856026266	4.05632	-10.842209	-3.0641174
1493856026266	2.9334106	-11.216553	-0.032852173
1493856026266	2.1815186	-11.170929	-1.346817
1493856026266	2.3191223	-12.247253	-3.031189
1493856026266	3.3066711	-13.287628	-4.890564
1493856026266	4.5108795	-14.244278	-5.08374
1493856026266	2.7325897	-15.308365	-3.1402588
1493856026266	-1.8941345	-14.733887	-3.5763092
1493856026266	-5.91803	-14.119919	2.3295593
1493856026266	-6.802017	-14.10466	7.06514
1493856026266	-5.8584137	-14.477554	4.92247
1493856026266	-5.2066956	-15.344116	-0.5964508
1493856026266	-4.1703186	-14.771149	-1.7451782
1493856026266	-0.23628235	-11.838699	0.11212158
1493856026267	2.8853912	-9.104355	2.2038422
1493856026267	2.5367432	-8.273392	1.3982391
1493856026267	1.5328217	-7.6779633	0.45272827
1493856026267	-0.57536316	-6.87381	1.8439484
1493856026267	-2.17453	-5.487152	2.6846466
1493856026267	-2.9858246	-4.1258698	2.7694855
1493856026267	-3.4295197	-3.2623596	3.2115936
1493856026267	-3.3453674	-2.3460693	3.8921204
1493856026267	-2.8358154	-1.307373	4.1369324
1493856026267	-1.920227	-1.2346649	3.4901733
1493856026267	-0.52612305	-3.6208649	1.6459656
1493856026267	1.2973633	-8.707672	-3.4077759
1493856026267	3.5253754	-16.040955	-14.089294
1493856026267	3.6286316	-19.474823	-19.722397
1493856026267	0.5428314	-16.631348	-8.960556
1493856026267	-2.3996124	-9.00354	-2.7153778
1493856026267	-7.733383	-5.8994904	0.08154297
1493856026267	-8.826965	-10.873032	3.5162659
1493856026267	-2.971466	-13.441559	6.646454
1493856026267	-0.70196533	-10.492264	-6.885788
1493856026267	0.41557312	-4.9996033	0.86953735
1493856026267	1.0910339	-3.766098	11.885513
1493856026267	-0.5462036	-12.0638275	6.5045013
1493856026267	1.4407043	-16.86763	2.302658
1493856026267	2.7713318	-13.361694	1.8751831
1493856026267	1.2541809	-9.704849	2.519394
1493856026267	-0.90560913	-9.332977	1.482727
1493856026267	-1.4482422	-9.847015	1.2115326
1493856026267	-1.2865448	-10.449646	1.6629333
1493856026267	-0.882843	-10.611893	2.4893646
1493856026267	0.8303528	-8.963104	2.5556335
1493856026267	1.2286835	-7.689621	2.5963593
1493856026267	0.82751465	-7.4762115	0.65992737
1493856026267	0.47035217	-8.060257	-0.030166626
1493856026268	1.4455109	-8.614655	1.4160767
1493856026268	3.3218536	-8.728561	1.3183441
1493856026268	3.8865814	-9.354904	0.26489258
1493856026268	3.6817017	-9.705078	-0.8353119
1493856026268	3.451416	-10.896545	-0.108810425
1493856026268	2.4739227	-11.947388	0.3488922
1493856026268	1.1347046	-11.368423	-2.8061218
1493856026268	0.7397003	-12.042419	-2.6063843
1493856026268	1.8105469	-11.871155	-2.5471802
1493856026268	2.2371368	-12.141586	-4.048462
1493856026268	4.9165344	-15.270889	-2.7306976
1493856026268	4.052185	-15.830078	-2.015564
1493856026268	-1.3856354	-14.477783	-4.4377747
1493856026268	-6.3441925	-13.517334	-1.9229126
1493856026268	-7.8586273	-12.898453	6.0659485
1493856026268	-6.1121063	-13.171692	6.154846
1493856026268	-3.0394745	-13.942963	1.3128967
1493856026268	-1.8838043	-14.823212	-1.8815002
1493856026268	-0.54341125	-13.13707	-2.4689484
1493856026268	1.8020477	-9.76384	0.8523865
1493856026268	2.8339386	-8.264984	1.2895508
1493856026268	0.60723877	-8.266037	1.0973969
1493856026268	-1.000061	-6.971405	1.3751221
1493856026268	-2.5636292	-5.3828735	2.2490082
1493856026268	-3.2684937	-4.1181183	1.6652527
1493856026268	-3.1764374	-4.095154	1.4412537
1493856026268	-2.2596588	-4.1194763	1.9923248
1493856026268	-1.6500702	-3.4420013	2.9481354
1493856026268	-1.369461	-2.1799164	3.4712067
1493856026268	-1.0303192	-2.769516	2.8787384
1493856026268	0.1290741	-5.6319275	0.43075562
1493856026269	1.814743	-11.800934	-7.9625397
1493856026269	4.3943787	-18.58464	-19.474335
1493856026269	6.8832397	-19.474823	-15.533463
1493856026269	1.914154	-15.382416	-5.4253387
1493856026269	-3.1675873	-6.6778717	-0.5907135
1493856026269	-9.449692	-8.7859955	4.1508484
1493856026269	-8.294815	-14.371948	5.027298
1493856026269	-1.9743195	-12.054932	0.38697815
1493856026269	0.23590088	-4.8199463	-0.49516296
1493856026269	-0.25238037	-1.3120575	9.787125
1493856026269	-1.0677948	-8.111938	6.5396423
1493856026269	0.9411926	-16.067627	2.015091
1493856026269	3.3025208	-15.803436	2.7647247
1493856026269	3.9233093	-10.522278	1.9868622
1493856026269	1.9872437	-8.175705	1.6378479
1493856026269	0.16137695	-9.004211	1.4620056
1493856026269	-1.4668427	-9.811142	1.9651337
1493856026269	-1.9464417	-9.8441925	1.9139862
1493856026269	-1.7702484	-8.715271	1.8750305
1493856026269	-1.710022	-8.3780365	0.79811096
1493856026269	-1.0522919	-8.566528	0.43251038
1493856026269	-0.06655884	-8.394745	1.0506744
1493856026269	0.9543152	-8.418442	1.1577454
1493856026269	2.0567017	-9.207092	1.3141327
1493856026269	3.0389404	-10.393677	1.1452179
1493856026269	3.4187012	-10.68219	-0.75131226
1493856026269	3.7432556	-10.80986	-3.25531
1493856026269	3.25737	-11.684937	-2.0981903
1493856026269	0.7757263	-12.24884	-0.9502411
1493856026269	-0.29840088	-12.258194	-1.5488892
1493856026269	1.0195007	-12.388336	-2.1368103
1493856026269	2.5713348	-13.16272	-3.8325653
1493856026269	4.8231964	-14.608444	-3.7845612
1493856026269	6.2154694	-14.206116	-1.2990875
1493856026269	2.7746735	-13.946716	-3.8072052
1493856026269	-2.0080566	-13.362534	-1.5062561
1493856026269	-4.3177643	-12.379532	3.075241
1493856026269	-4.9210815	-13.171509	6.492462
1493856026270	-4.440674	-15.0130005	5.208084
1493856026270	-4.4696198	-15.886276	-0.7976532
1493856026270	-3.1750793	-13.599869	-2.198349
1493856026270	1.9343872	-9.939224	-0.50727844
1493856026270	4.412369	-8.843277	1.3427734
1493856026270	2.7375793	-8.187683	1.2218018
1493856026270	0.60202026	-7.298752	0.30882263
1493856026270	-1.6162567	-6.557785	2.057953
1493856026270	-2.3594055	-4.6202393	2.816742
1493856026270	-3.4661407	-4.234482	2.8911285
1493856026270	-3.947174	-4.5856934	2.886139
1493856026270	-3.8537292	-3.4743347	3.3030548
1493856026270	-3.3563385	-1.8009644	3.918991
1493856026270	-2.6678467	-1.3096771	3.5864563
1493856026270	-1.4027405	-3.702423	1.4973907
1493856026270	0.86987305	-9.272339	-4.6736145
1493856026270	2.4498138	-18.91272	-19.722397
1493856026270	5.7896423	-19.418427	-18.985977
1493856026270	3.1408691	-17.48854	-3.1796112
1493856026270	0.05140686	-5.7448425	-2.6603088
1493856026270	-5.5869904	-5.034363	2.0758362
1493856026270	-6.802582	-15.103302	2.3036346
1493856026270	0.29167175	-16.679535	3.387329
1493856026270	0.38423157	-8.447327	-3.040863
1493856026270	-2.5905914	-0.8624878	6.49498
1493856026270	-4.7834167	-3.0435638	12.344498
1493856026270	-3.1065521	-13.125122	3.5692291
1493856026270	0.6635437	-17.04837	2.8748932
1493856026270	3.9824524	-12.882919	1.8697662
1493856026270	3.3011017	-8.651886	1.9048767
1493856026270	1.1337891	-8.760925	1.4506989
1493856026270	-0.46276855	-9.133942	1.1689911
1493856026270	-1.6239319	-9.788727	1.3222961
1493856026270	-1.9467621	-10.202026	0.65382385
1493856026270	-1.4698029	-9.7191925	-0.26464844
1493856026270	-0.8755493	-8.368195	-0.052246094
1493856026270	0.25071716	-7.5646667	0.4351654
1493856026270	1.2623749	-7.9075317	0.55599976
1493856026270	1.7020416	-8.734055	1.3991852
1493856026270	1.6012421	-9.404663	1.6804962
1493856026271	1.8280029	-9.716324	0.6253662
1493856026271	2.4952698	-10.323822	-1.1838989
1493856026271	3.202774	-11.330109	-2.0347748
1493856026271	2.3287048	-11.986328	-1.3677368
1493856026271	0.8938751	-12.137497	-2.0145874
1493856026271	1.6197052	-12.219116	-2.471756
1493856026271	3.3410492	-12.194504	-3.050827
1493856026271	4.642273	-13.021149	-4.744232
1493856026271	6.351654	-14.356583	-3.3179169
1493856026271	4.681061	-14.749054	-2.9570465
1493856026271	-0.4990692	-14.1814575	-2.1803894
1493856026271	-4.520294	-13.343262	3.0199432
1493856026271	-5.929016	-13.66153	5.8222504
1493856026271	-5.0872955	-15.584473	4.445587
1493856026271	-4.58226	-17.531342	0.68548584
1493856026271	-3.6937714	-15.962418	-0.82907104
1493856026271	-0.122283936	-11.676727	-0.07563782
1493856026271	3.4091644	-9.068268	0.8812103
1493856026271	3.1454163	-8.199371	1.1207886
1493856026271	0.59684753	-7.2930145	0.9476013
1493856026271	-1.7779541	-5.897217	2.0265656
1493856026271	-2.7722626	-3.9670868	3.1443634
1493856026271	-3.164917	-2.9452972	3.015274
1493856026271	-3.414734	-3.3316803	2.9593353
1493856026271	-3.282547	-3.1185608	3.2706451
1493856026271	-3.1927948	-1.9311981	3.7797241
1493856026271	-2.8638306	-1.4701691	3.7561798
1493856026271	-1.9225311	-3.1267242	2.307602
1493856026271	0.092926025	-8.163956	-3.3223114
1493856026271	2.1291351	-17.111847	-16.19011
1493856026271	6.982193	-19.474823	-19.722397
1493856026271	4.4997864	-18.721848	-7.6134033
1493856026271	0.50083923	-7.5731964	-2.2461243
1493856026271	-5.709778	-5.549591	-0.21328735
1493856026271	-5.90773	-13.913925	-0.3828888
1493856026271	1.9459229	-14.465057	4.5224915
1493856026271	0.30186462	-6.878006	3.709488
1493856026271	-7.165039	-0.94377136	-2.031662
1493856026271	-5.9188538	-2.1208649	13.593628
1493856026271	-1.9681854	-13.238739	4.699051
1493856026271	0.70843506	-18.249207	4.291443
1493856026271	6.5535126	-13.371246	1.5492554
1493856026271	4.8710785	-8.768387	1.2294769
1493856026272	1.5952454	-8.57666	0.8497772
1493856026272	-1.0245056	-8.616531	2.102127
1493856026272	-2.4962463	-8.933228	1.6334076
1493856026272	-3.5479126	-9.483124	1.0193787
1493856026272	-2.3958588	-10.143066	-0.10757446
1493856026272	-1.4248352	-9.665161	-0.9030762
1493856026272	-0.24215698	-8.560089	-0.086013794
1493856026272	0.81539917	-7.7142334	0.22366333
1493856026272	1.2926483	-8.19455	0.5824127
1493856026272	1.3130493	-9.571335	1.3714447
1493856026272	1.5469208	-10.526184	0.6272583
1493856026272	2.2579193	-10.6406555	-2.086197
1493856026272	3.7695618	-10.8403015	-3.6692352
1493856026272	3.4118042	-11.17041	-0.015853882
1493856026272	-1.0156097	-12.011856	-0.43354797
1493856026272	-1.7019043	-12.559723	-2.815506
1493856026272	1.8771362	-12.886581	-3.4506378
1493856026272	5.0226746	-13.846573	-3.9605865
1493856026272	7.1867523	-14.580948	-2.212616
1493856026272	5.9249115	-14.552765	-0.63993835
1493856026272	-0.49394226	-15.6588745	-2.66951
1493856026272	-4.04039	-13.495407	2.81839
1493856026272	-3.7798615	-12.0342865	5.0811768
1493856026272	-3.35112	-13.768433	4.0410004
1493856026272	-3.6648102	-16.046219	1.7635956
1493856026272	-3.1765747	-15.532806	-0.40486145
1493856026272	-0.48764038	-11.43454	0.063323975
1493856026272	3.2606964	-8.894684	0.9533844
1493856026272	3.4183502	-8.695908	0.5943756
1493856026272	1.029541	-7.824295	0.78637695
1493856026272	-1.5717163	-6.4265594	1.7110748
1493856026272	-2.9486694	-4.6555023	2.5472107
1493856026272	-3.2739868	-3.8137207	2.492218
1493856026272	-3.6545563	-4.4479675	2.718628
1493856026272	-3.8272858	-4.5516205	2.9116974
1493856026272	-3.983612	-3.308014	3.4070587
1493856026272	-3.6609497	-2.213745	3.6442108
1493856026272	-2.7271729	-2.7948914	2.487152
1493856026272	-0.8943329	-5.960968	-1.2353668
1493856026272	0.63887024	-12.436905	-10.775543
1493856026272	5.4448395	-18.122147	-18.830963
1493856026272	8.429001	-19.474823	-11.856613
1493856026273	3.5654907	-13.287018	-2.1613312
1493856026273	-3.1334076	-7.763794	-0.74583435
1493856026273	-7.4552155	-12.076172	-1.531189
1493856026273	-1.24617	-14.848297	1.1236725
1493856026273	2.7174835	-9.878906	5.0961
1493856026273	-4.142517	-3.2267914	0.6433716
1493856026273	-8.062271	-1.6356812	7.5638733
1493856026273	-5.3453674	-8.350647	8.227936
1493856026273	-1.2327728	-15.232376	4.1470184
1493856026273	4.2408447	-14.975418	2.0529022
1493856026273	6.2465973	-11.438492	0.91926575
1493856026273	3.592453	-9.286041	0.96022034
1493856026273	0.4406433	-8.377853	1.73909
1493856026273	-1.468216	-8.738617	1.8391266
1493856026273	-2.415207	-9.534424	1.0314178
1493856026273	-2.1665192	-10.151001	0.35125732
1493856026273	-1.6168976	-9.950882	-0.61183167
1493856026273	-0.85079956	-8.753983	-0.37942505
1493856026273	0.49372864	-8.076569	-0.06455994
1493856026273	1.6981506	-8.252548	0.27282715
1493856026273	2.452011	-9.129562	1.0681305
1493856026273	2.1246185	-10.0271	1.6497498
1493856026273	1.4348602	-10.15271	0.07218933
1493856026273	2.124466	-10.179581	-2.3069916
1493856026273	3.150299	-11.118774	-2.3312836
