accelerometer_timestamp	accelerometer_x_data	accelerometer_y_data	accelerometer_z_data
1493777270039	-0.12728882	1.5953674	8.002945
1493777270059	-0.48075867	1.2519531	10.123398
1493777270077	0.31356812	2.358963	11.496231
1493777270098	-0.18937683	2.7662964	10.949966
1493777270117	-0.7855072	2.8953247	9.317368
1493777270136	0.098098755	3.1837463	8.772705
1493777270156	0.53134155	3.1323547	9.647629
1493777270177	-0.21009827	2.7276917	9.3355255
1493777270196	-0.5315857	2.6879272	9.069305
1493777270216	-0.29307556	2.8350677	9.785416
1493777270235	0.13456726	2.912384	9.775024
1493777270255	-0.31166077	2.8533173	7.9558105
1493777270275	-0.8979492	3.251358	8.090439
1493777270295	-0.27027893	3.8504791	10.044144
1493777270314	0.40664673	3.0788422	9.4700775
1493777270335	1.1755981	2.8607788	8.543747
1493777270354	1.0857849	3.229477	8.944687
1493777270374	0.95835876	3.5665588	9.222137
1493777270394	0.9446106	3.6320038	9.058197
1493777270413	0.8733368	3.29451	8.853256
1493777270433	1.2418671	3.1215668	8.859909
1493777270453	1.4426727	2.9687347	9.424515
1493777270473	1.3748932	3.061203	9.577637
1493777270492	1.4351349	3.2559052	8.985947
1493777270512	1.9569092	3.2400513	8.61084
1493777270532	2.8205109	2.8118591	8.911911
1493777270552	2.3382416	2.432953	9.273422
1493777270572	1.2533417	3.020172	9.505081
1493777270591	1.3825226	3.3873749	9.728973
1493777270611	1.4840698	3.2932892	9.599777
1493777270631	1.3811951	2.831421	9.119919
1493777270651	1.3270721	2.5501556	8.529938
1493777270670	0.9001007	2.9394684	8.493256
1493777270690	0.213974	2.7274475	8.215668
1493777270710	0.8295288	2.6924744	8.541763
1493777270730	0.519104	3.2461395	8.556366
1493777270750	1.0725708	3.6963806	9.221634
1493777270769	0.5567322	4.0925903	9.535751
1493777270789	0.029785156	3.9762573	9.834702
1493777270809	0.53045654	4.130539	9.112518
1493777270829	1.4882507	3.8787231	7.431595
1493777270849	1.3048553	1.8152924	6.1596375
1493777270896	1.8433533	1.9861755	5.7583313
1493777270896	3.2276154	3.0525055	7.030899
1493777270908	3.6247253	2.1997375	7.3097687
1493777270928	2.3213959	1.6275635	6.48085
1493777270947	4.0245056	-0.20939636	4.9612427
1493777270967	5.9632416	-1.2211151	11.074997
1493777270987	11.549438	5.3074036	8.906433
1493777271007	0.00944519	-0.29475403	8.30452
1493777271026	-2.5370178	5.416519	7.885803
1493777271046	1.7775574	2.3995056	12.228577
1493777271086	6.53006	-0.06225586	9.434021
1493777271105	4.7853394	6.366211	11.864502
1493777271125	2.49411	-2.6255035	-0.3390808
1493777271145	2.4286041	7.602188	5.3941803
1493777271165	0.17208862	1.1177673	-0.82063293
1493777271185	1.1480865	-1.1187897	-4.948944
1493777271204	6.86705	-1.0158844	-5.812973
1493777271224	8.822479	0.43803406	16.89746
1493777271244	10.178223	-0.1503601	11.44603
1493777271264	2.8698578	-4.0449677	3.852478
1493777271284	2.0191345	-7.7239532	4.209259
1493777271303	9.009384	-7.3953094	3.6913452
1493777271323	15.530975	-6.617462	6.8167725
1493777271343	18.062378	-6.715149	7.900482
1493777271366	19.335571	-6.5385437	9.712921
1493777271382	19.461044	-4.936798	12.013184
1493777271402	19.461044	-2.6800995	10.632065
1493777271422	18.600891	-2.5089874	6.2643585
1493777271442	14.912964	-3.5967407	2.921875
1493777271461	9.826599	-2.8813477	-3.77565
1493777271481	7.925064	-4.110031	-5.4609222
1493777271501	8.182846	-7.8781433	5.518692
1493777271521	6.5307007	-3.7087555	2.3934937
1493777271540	6.715103	-1.5574036	1.2605896
1493777271560	7.860901	-0.08097839	1.0830688
1493777271580	7.3238373	-0.3341217	2.2160034
1493777271600	5.686737	-2.5548859	2.0879211
1493777271620	5.173294	-4.204895	0.94602966
1493777271639	6.221161	-4.0185547	0.7525482
1493777271659	8.487686	-3.350708	1.0876923
1493777271679	10.593155	-2.4202728	0.11456299
1493777271699	10.119949	-3.2315216	-0.36097717
1493777271719	7.7403564	-4.9208527	0.12782288
1493777271739	9.726028	-4.4595795	1.2818298
1493777271758	9.820709	-4.0344086	-0.81510925
1493777271778	9.249603	-4.303482	-1.480484
1493777271798	8.599625	-4.723068	-0.46981812
1493777271817	7.9145813	-4.412369	-0.7778778
1493777271837	8.259888	-3.8148499	-0.8217621
1493777271857	6.596298	-3.6376495	-0.2937317
1493777271877	1.9167633	-4.791931	-0.09358215
1493777271896	6.951355	-1.9763947	2.302475
1493777271916	15.477356	-1.2282257	2.1518402
1493777271936	16.95259	-3.0455017	6.8953247
1493777271956	14.650848	-6.6443024	-4.0201263
1493777271976	18.571655	-17.451523	11.578415
1493777271995	13.1311035	-14.054825	1.5603333
1493777272015	0.84869385	-18.134094	0.8591461
1493777272035	5.325638	2.8563995	-12.093048
1493777272055	11.148605	-6.9087677	-2.4729462
1493777272075	11.752274	-2.6676636	-9.015945
1493777272094	10.95076	-10.9478	2.098175
1493777272114	-7.209488	-19.166183	4.7159424
1493777272134	3.9601593	-9.925873	-0.8227844
1493777272154	4.6788177	-4.8954315	-2.360733
1493777272193	1.4157104	-4.497696	1.2009583
1493777272213	2.217926	-5.2657776	1.1796112
1493777272233	1.9187164	-7.141617	-0.35411072
1493777272253	0.42510986	-5.840927	-2.599228
1493777272272	1.4754639	-5.7996674	-2.0956726
1493777272292	0.27685547	-5.39624	-1.9646606
1493777272312	1.2327576	-3.9631348	-1.9978485
1493777272332	1.708374	-4.165268	-2.4422455
1493777272351	3.303131	-2.1354675	-3.7015991
1493777272371	3.3603668	-5.945923	-5.529236
1493777272392	4.9220276	-6.74852	-7.908081
1493777272411	5.163986	-6.363785	-8.515411
1493777272431	4.402115	-10.583817	-7.866852
1493777272450	5.0088196	-16.201996	-7.745636
1493777272470	5.3531036	-12.452652	-7.3919067
1493777272490	2.4761047	-9.798828	-7.5320587
1493777272510	-0.37332153	-10.137604	-4.0507355
1493777272529	-1.4758301	-11.285873	3.439148
1493777272549	-0.84539795	-10.507767	5.444107
1493777272569	-1.8874207	-12.875137	-0.57281494
1493777272589	-1.1966095	-11.225845	-2.4422455
1493777272609	2.2597504	-7.473221	1.4636688
1493777272629	3.0127869	-5.706955	3.7787628
1493777272648	4.9619293	2.1436768	5.9905396
1493777272668	1.8361359	1.444046	8.565506
1493777272688	0.22377014	-7.893448	6.500305
1493777272707	-0.6350708	-10.945984	-1.8493805
1493777272727	-4.8860474	-19.474823	-1.7652435
1493777272747	-2.1554108	-19.474823	0.5450134
1493777272767	3.0708008	-15.174454	-0.8965454
1493777272787	4.483597	-10.210098	0.39826965
1493777272806	0.3066101	-9.136871	1.7219696
1493777272826	-0.14173889	-10.036545	1.56781
1493777272846	0.77119446	-8.981903	0.9824829
1493777272866	1.2612305	-7.4947815	0.7155304
1493777272885	1.5261688	-8.194931	1.436966
1493777272905	2.1022644	-9.405151	0.43247986
1493777272925	2.5175476	-10.21228	-0.7857666
1493777272945	2.0547638	-10.706085	-1.4228058
1493777272965	0.96229553	-11.7395935	-1.6499329
1493777272984	1.656723	-12.424637	-1.3988647
1493777273004	4.000168	-12.418488	-0.97743225
1493777273024	4.3542175	-12.459732	-1.3498993
1493777273044	4.053253	-13.063904	-2.797821
1493777273063	4.3207703	-14.616318	-1.754303
1493777273083	4.4714355	-14.569855	-1.2222137
1493777273103	1.406784	-14.065155	-3.9735565
1493777273123	-2.5852356	-12.797272	2.5493317
1493777273143	-5.583374	-11.642441	3.5886383
1493777273162	-4.9336395	-13.355881	4.757538
1493777273182	-1.9341125	-15.637558	2.5060577
1493777273202	-1.8924713	-17.091766	-2.0968018
1493777273222	5.0484924	-14.425125	-1.0540924
1493777273242	3.549469	-12.164337	1.1486053
1493777273262	3.041687	-10.157654	1.4207306
1493777273734	1.3857574	-8.572739	2.1015625
1493777273734	-0.7900696	-6.8385773	3.554184
1493777273734	-1.5697632	-5.4459534	3.8107758
1493777273734	-1.2243805	-4.1625366	3.7460938
1493777273734	-1.7211456	-3.8683167	3.058426
1493777273734	-1.5368195	-2.8914032	2.410019
1493777273734	-1.8429871	-1.4200134	2.3638763
1493777273734	-1.4594727	-0.33432007	1.559082
1493777273734	0.0021820068	-1.8401947	-0.0011444092
1493777273734	0.71281433	-5.927643	-4.4114685
1493777273734	1.062912	-13.353912	-14.138336
1493777273734	4.342163	-19.474823	-15.537415
1493777273734	3.8823242	-17.687439	-11.627914
1493777273735	0.3924408	-9.199112	-2.884964
1493777273735	-2.6221619	-4.0262756	-1.5950317
1493777273735	-4.0867004	-13.217499	-3.7902222
1493777273735	0.92074585	-19.145142	3.4482422
1493777273735	-0.5736542	-13.73848	4.886307
1493777273735	-4.7839813	-1.7303619	6.79068
1493777273735	-3.300537	-0.6753998	7.5312653
1493777273735	2.2701569	-9.577896	5.790924
1493777273735	5.367569	-14.952972	4.635315
1493777273737	3.7284698	-15.548187	1.3139038
1493777273757	1.6392975	-13.103455	2.0621948
1493777273776	-0.067718506	-10.115845	0.62242126
1493777273795	-1.3434296	-8.896545	-0.19494629
1493777273816	-1.0406189	-9.015121	-0.2647705
1493777273836	-0.25201416	-9.173111	0.1407013
1493777273855	0.6179962	-8.580673	0.09164429
1493777273875	1.0495453	-7.846222	0.45173645
1493777273895	0.7453766	-7.615555	0.37472534
1493777273915	0.49736023	-7.8302	-0.12168884
1493777273934	0.23071289	-8.460846	0.34207153
1493777273954	0.10462952	-9.096497	0.66929626
1493777273974	0.17346191	-9.70282	0.7355957
1493777273994	-0.17349243	-10.163254	0.48542786
1493777274013	-0.6919861	-10.274612	-0.22653198
1493777274033	-0.16877747	-9.9687805	-0.7015228
1493777274053	0.9519806	-9.537384	0.09048462
1493777274073	2.4277039	-9.4049835	0.8585205
1493777274093	3.5762787	-9.145477	0.90708923
1493777274112	3.4207458	-8.580109	-0.080825806
1493777274132	3.2313538	-7.940613	-0.45913696
1493777274152	1.4630737	-7.5979767	1.5021973
1493777274172	-1.5525818	-12.025314	6.234131
1493777274192	-4.901718	-16.833847	3.4600372
1493777274211	-7.3538055	-17.11827	1.9335785
1493777274231	-2.638321	-11.474701	4.8971863
1493777274251	-3.29924	-7.8734436	8.051254
1493777274271	-6.5569	-9.937408	6.5247955
1493777274290	-5.810089	-11.979141	3.3524475
1493777274310	-3.5792694	-11.728409	1.7798767
1493777274330	-1.3931274	-10.691956	3.1654358
1493777274349	-2.027954	-9.352844	4.697754
1493777274389	-3.1311646	-8.008408	5.3734436
1493777274410	-5.1644287	-7.9095154	3.9005737
1493777274429	-6.737564	-8.628998	1.8870239
1493777274449	-5.588791	-8.9622345	1.0295258
1493777274469	-3.0249329	-8.179077	2.3578644
1493777274489	-1.8125458	-7.8949127	3.7115479
1493777274508	-2.0894318	-8.119949	3.761917
1493777274528	-2.644516	-8.450989	3.3658905
1493777274548	-2.998581	-8.458008	3.0697632
1493777274568	-3.492981	-8.547241	2.613739
1493777274587	-3.7576294	-8.7164	2.323166
1493777274607	-3.830368	-8.745972	2.438095
1493777274627	-3.6730347	-8.896561	3.0503845
1493777274647	-3.2361145	-9.234329	3.141693
1493777274667	-2.8295746	-9.207977	2.5513763
1493777274686	-2.6578064	-8.884369	2.0874481
1493777274706	-2.6846924	-8.800156	1.8283081
1493777274731	-2.3440552	-9.112946	1.6923065
1493777274750	-1.6725006	-9.299255	2.2061005
1493777274770	-1.5951996	-9.308365	2.0332947
1493777274787	-2.1425018	-9.4583435	-0.090789795
1493777274807	-1.7050629	-9.461273	-1.2007294
1493777274831	-1.2255249	-9.311829	0.01335144
1493777274852	-1.5495911	-9.800262	0.91607666
1493777274871	-1.6364594	-10.664124	1.4472504
1493777274890	-0.29049683	-11.037369	2.840622
1493777274908	0.3722992	-10.405365	2.3319702
1493777274930	0.33628845	-9.531174	0.92137146
1493777274949	0.29885864	-9.738815	0.10134888
1493777274971	-0.22514343	-10.138596	-0.054504395
1493777274989	-0.9261627	-10.206436	0.13153076
1493777275007	-1.3476257	-10.102844	0.29115295
1493777275029	-1.0305023	-10.024963	0.009277344
1493777275046	-0.32618713	-9.94249	-0.22909546
1493777275065	0.08403015	-9.618286	-0.62968445
1493777275085	0.540329	-9.015152	-0.9561615
1493777275104	0.76278687	-8.834808	-0.94873047
1493777275128	0.53692627	-9.55307	-0.8208771
1493777275147	0.56759644	-10.463623	-0.7718353
1493777275167	0.9954834	-10.890396	-0.28712463
1493777275187	0.96617126	-10.718582	0.9858551
1493777275206	0.5114136	-10.567001	0.96661377
1493777275227	0.56430054	-10.777115	0.28434753
1493777275246	1.0569763	-11.121338	-0.1748352
1493777275266	1.6708832	-11.587753	-0.5786133
1493777275286	0.92863464	-11.922562	-0.93692017
1493777275305	0.18315125	-11.91069	-0.27342224
1493777275325	-0.671463	-11.720856	0.71894836
1493777275345	-0.94996643	-11.523697	0.647583
1493777275364	-1.6028137	-10.581223	0.21221924
1493777275385	-1.9124603	-9.473526	-0.5869446
1493777275404	-1.9416351	-8.625092	-0.50375366
1493777275421	-1.9957886	-7.774887	-0.19224548
1493777275444	-1.982193	-7.4569244	-0.13780212
1493777275463	-1.8327789	-6.7482452	-0.49327087
1493777275484	-1.8261261	-6.5548553	-1.1278992
1493777275503	-1.2052307	-6.549362	-1.7513123
1493777275543	-0.38909912	-6.436493	-2.378189
1493777275563	0.12922668	-6.868805	-2.7844543
1493777275583	0.38990784	-8.049332	-3.242813
1493777275602	1.0794678	-9.761169	-5.0244446
1493777275621	2.4993439	-11.499344	-6.95903
1493777275642	2.5470886	-11.307632	-7.565872
1493777275661	0.6271515	-9.294815	-6.2918243
1493777275682	-1.1107178	-7.4628754	-3.4031677
1493777275703	-1.9975128	-7.8713074	0.6441803
1493777275719	-3.5606537	-12.719894	3.5912018
1493777275741	-3.2893372	-16.06224	0.88601685
1493777275762	-0.18096924	-15.360611	-5.2223663
1493777275779	2.158432	-11.60321	-6.0476074
1493777275801	1.9701538	-7.3976135	0.52168274
1493777275817	0.4126587	-4.3590393	4.165268
1493777275840	0.19877625	-6.2273254	2.486618
1493777275859	1.4940033	-8.556732	0.9640808
1493777275881	2.3168793	-10.089203	0.0715332
1493777275899	2.4346313	-11.145126	0.5579834
1493777275917	2.236374	-11.923645	1.6460724
1493777275939	0.966629	-11.702728	1.1421051
1493777275958	0.5388336	-11.236923	0.49098206
1493777275978	0.033111572	-10.888031	0.3234253
1493777275994	-0.48104858	-10.255508	0.725235
1493777276016	-0.42826843	-10.035843	0.940979
1493777276038	-0.16514587	-9.9457855	0.66889954
1493777276057	0.33857727	-9.237671	0.39057922
1493777276077	0.60479736	-8.438873	0.5763092
1493777276097	0.73439026	-8.283615	0.66615295
1493777276115	0.9342041	-7.991974	1.1965485
1493777276136	0.52194214	-7.4209595	1.9986877
1493777276155	-0.15513611	-7.107544	2.5348663
1493777276176	-0.60632324	-7.505371	2.7910461
1493777276196	-0.9935913	-8.486893	2.4387207
1493777276215	-0.93218994	-9.115158	1.1495972
1493777276235	-0.32954407	-9.356491	0.070877075
1493777276254	0.42520142	-10.310593	0.29156494
1493777276274	0.7130432	-11.931213	0.38961792
1493777276295	1.66185	-13.075867	0.01210022
1493777276314	2.7033844	-13.722107	-0.7895355
1493777276334	3.0757446	-13.754211	-1.7202454
1493777276352	2.8387146	-13.922684	-1.066925
1493777276370	2.3056946	-14.2155	-0.39215088
1493777276390	1.3448029	-13.309158	-0.8764038
1493777276409	-2.324463	-12.2799835	-2.3577728
1493777276432	-4.9381866	-12.307266	-3.798111
1493777276452	-4.6870575	-11.180054	0.040481567
1493777276470	-4.9058533	-11.967133	3.4479218
1493777276492	-4.2826385	-12.946381	3.2568207
1493777276511	-3.3362885	-13.714935	3.346115
1493777276527	0.89151	-12.170776	-0.10551453
1493777276551	3.5574188	-11.46167	-2.2970886
1493777276569	3.651703	-10.6215515	-2.1485596
1493777276591	1.1918488	-8.023483	-0.9352112
1493777276610	0.3438263	-6.5697327	1.0495911
1493777276650	-1.3281097	-6.05365	2.0234833
1493777276669	-2.0387726	-6.5015717	1.7619629
1493777276690	-2.5697021	-6.323349	1.3464966
1493777276709	-2.1933136	-5.8471985	0.7003784
1493777276730	-2.5209656	-4.851166	0.47937012
1493777276749	-3.1501312	-3.87854	1.1313782
1493777276768	-2.0010834	-3.5714264	1.9292145
1493777276789	-0.4986267	-3.956421	1.908493
1493777276808	0.28700256	-5.0818024	0.4363098
1493777276826	1.3721008	-7.845703	-3.3245697
1493777276850	3.0002747	-13.993546	-9.544006
1493777276867	3.2148895	-19.342133	-16.341843
1493777276888	4.8145905	-18.487564	-17.209488
1493777276907	2.4061432	-12.820435	-8.324051
1493777276925	0.12840271	-4.234787	-4.5215454
1493777276947	-3.274063	-3.3877106	1.2869568
1493777276966	-5.6063843	-11.560471	4.575775
1493777276987	-3.2532501	-19.044601	4.122986
1493777277006	-1.3520355	-16.976395	-2.7150726
1493777277025	-0.24595642	-9.127823	-3.3641205
1493777277046	-1.7591858	-2.2588806	7.864746
1493777277065	-5.327881	-1.7974701	8.584442
1493777277085	-3.1699371	-7.8630524	4.543518
1493777277105	3.756668	-13.1145935	5.90654
1493777277123	5.782028	-14.21344	5.0220337
1493777277145	3.985962	-12.697327	2.2351837
1493777277164	1.6421509	-10.54863	1.5664063
1493777277184	0.36756897	-9.573502	1.739563
1493777277204	0.9212494	-10.07048	0.6203003
1493777277223	0.9357605	-9.561935	0.083236694
1493777277244	1.0518494	-8.955917	-0.027999878
1493777277263	0.83221436	-8.732819	-0.20274353
1493777277282	0.43388367	-8.810303	0.120895386
1493777277303	0.6562805	-8.8532715	0.5370941
1493777277322	0.7568207	-8.435608	1.0487976
1493777277343	0.62828064	-8.2530365	1.4789734
1493777277362	0.8046875	-8.522995	1.3408203
1493777277382	1.3796997	-8.645523	0.13920593
1493777277402	2.5060577	-9.634659	-1.074707
1493777277421	3.1002808	-10.982452	-0.7785034
1493777277442	2.4537506	-11.466003	0.12460327
1493777277461	1.6917267	-11.792969	-0.08660889
1493777277483	1.184845	-12.065262	-0.24667358
1493777277501	-1.1544647	-12.380356	-2.0065613
1493777277520	-1.467041	-13.248505	-4.3460846
1493777277542	1.404541	-13.308258	-2.805008
1493777277560	2.5730896	-13.9982605	-3.0634613
1493777277581	1.3068695	-14.203934	-2.4703064
1493777277602	-2.086319	-12.971481	-0.4320526
1493777277617	-4.3324738	-12.550339	0.9421387
1493777277636	-5.6693115	-15.3237	5.4807587
1493777277661	-4.8059387	-15.640686	3.3460083
1493777277698	-1.0734406	-14.807388	1.8928986
1493777277718	3.2197723	-14.225937	-2.003418
1493777277735	3.328354	-11.710724	-2.1269836
1493777277758	2.5723267	-10.149399	0.03855896
1493777277777	1.0233917	-7.7629547	1.8199921
1493777277798	0.08041382	-6.422241	3.84375
1493777277817	-1.6513824	-5.680435	3.735794
1493777277837	-2.7423553	-4.9741364	2.6926575
1493777277857	-3.085144	-4.099457	1.7847748
1493777277876	-2.942154	-3.6380005	0.90153503
1493777277896	-2.2740936	-3.0286865	1.3507385
1493777277916	-1.6932983	-2.6655579	2.2911072
1493777277934	-0.9532776	-2.6733093	2.6422272
1493777277956	-0.5931549	-3.2052155	1.3981628
1493777277975	-0.073013306	-5.4668274	-1.1256104
1493777277995	0.90885925	-12.080826	-8.549225
1493777278015	0.2783203	-19.474823	-19.722397
1493777278033	1.0894623	-19.234497	-15.792297
1493777278055	1.1768494	-12.805649	-7.2384033
1493777278074	-0.7321625	-1.1881256	-4.585785
1493777278094	-4.750458	-3.5281067	1.531311
1493777278113	-6.9780426	-14.555054	4.30217
1493777278133	-1.8476563	-17.561523	1.838028
1493777278153	2.401886	-10.840576	-3.8364716
1493777278173	-1.6624603	-1.8803406	4.4255524
1493777278193	-5.010376	-0.06109619	8.628647
1493777278212	-1.3258057	-8.232498	6.1769104
1493777278232	5.5168457	-15.341537	4.616287
1493777278252	5.791809	-16.153381	2.3563385
1493777278271	3.7250366	-12.736206	1.9471893
1493777278291	1.5807648	-10.018723	0.78678894
1493777278312	-0.44551086	-9.549728	0.1844635
1493777278332	-0.9976654	-9.789764	0.6970215
1493777278351	-0.5098419	-9.710175	0.9628601
1493777278370	0.1214447	-8.857178	0.51156616
1493777278392	0.35757446	-8.022263	0.4413147
1493777278411	0.46818542	-7.8131714	0.12870789
1493777278430	1.3419037	-8.075424	0.5101776
1493777278452	1.9358215	-8.771927	1.1376648
1493777278470	1.5487671	-9.643555	0.84332275
1493777278488	1.441925	-9.830826	0.049118042
1493777278510	1.629776	-9.484879	-2.0219421
1493777278525	1.8822327	-9.544662	-2.4459686
1493777278545	0.96536255	-10.658005	-0.8593445
1493777278565	0.26150513	-11.26152	-0.36714172
1493777278582	1.658081	-11.678589	-0.19673157
1493777282304	2.2609863	-12.466766	-0.9160156
1493777282304	1.06427	-13.704071	-3.6163483
1493777282305	1.6953125	-13.686676	-2.5711517
1493777282305	2.7954865	-14.234207	-2.157898
1493777282305	2.0607452	-14.3966675	-2.848114
1493777282305	-1.5561676	-13.521484	-0.6610565
1493777282305	-4.8244476	-12.693466	1.2382507
1493777282305	-6.087204	-14.182175	4.859146
1493777282305	-5.091873	-14.455078	2.765976
1493777282306	-3.40802	-14.17926	0.60188293
1493777282306	-1.5562897	-12.827423	-2.9015198
1493777282306	3.187378	-11.691971	-1.7335815
1493777282306	3.7990265	-9.912796	0.8197174
1493777282306	0.91508484	-8.4188385	0.97654724
1493777282306	-0.9241028	-7.1525726	3.1542206
1493777282306	-2.116928	-6.5749817	3.8704834
1493777282307	-2.700592	-5.76445	3.0514374
1493777282307	-2.3644867	-4.4875336	2.0711823
1493777282307	-1.8602142	-3.962082	1.2518616
1493777282307	-1.6416168	-3.3902893	1.2968445
1493777282307	-1.7591705	-2.8097687	1.7502441
1493777282307	-1.0909729	-2.5904236	1.8224182
1493777282307	-0.5734253	-3.3752594	0.88186646
1493777282308	-0.50593567	-6.273361	-2.2129211
1493777282308	-0.90023804	-13.220093	-10.729309
1493777282308	-1.1160736	-19.474823	-19.005081
1493777282308	-0.018463135	-18.036469	-14.022079
1493777282308	-0.8701935	-9.823898	-5.708618
1493777282308	-2.625702	-0.88378906	-1.7155304
1493777282309	-6.04303	-5.229843	-0.49380493
1493777282309	-6.134903	-14.206253	2.5511017
1493777282309	-0.08319092	-16.627686	2.5480957
1493777282309	3.5735016	-13.22139	-3.1320038
1493777282309	0.56114197	-5.1360474	4.8545227
1493777282309	-3.8242188	-1.9167633	7.5346985
1493777282310	-2.8978577	-7.193161	3.1236877
1493777282321	3.0469666	-11.700455	4.8951874
1493777282321	5.383911	-13.90596	4.390396
1493777282322	4.1202393	-13.222778	2.5446472
1493777282322	2.2512665	-11.045532	1.3684235
1493777282322	0.24482727	-9.649231	0.61058044
1493777282322	-0.6277008	-9.208191	0.30325317
1493777282322	-0.5832062	-9.382935	0.9847412
1493777282322	-0.69555664	-9.109222	0.45335388
1493777282323	-0.45629883	-8.625702	0.33428955
1493777282323	0.2349701	-8.274399	0.6548004
1493777282323	0.986557	-8.344055	0.9385834
1493777282323	1.410675	-8.767075	0.7896271
1493777282323	1.4515686	-9.3376465	0.16815186
1493777282325	1.801712	-9.885727	-0.30838013
1493777282325	2.2759094	-9.965286	-1.03479
1493777282325	2.615097	-10.24913	-1.8252258
1493777282325	2.061203	-11.0533905	-1.3073425
1493777282326	0.44848633	-11.423996	-1.6847076
1493777282326	1.1979523	-11.705963	-1.3583069
1493777282326	2.283722	-11.7276	0.022491455
1493777282326	0.789978	-12.584335	-1.9425507
1493777282326	1.0930786	-13.479462	-3.7747498
1493777282326	2.4669037	-13.906631	-2.1866608
1493777282326	3.2096252	-14.863602	-2.5120087
1493777282327	2.1780548	-13.54538	-1.4153748
1493777282327	-1.1929321	-12.555527	1.6317596
1493777282327	-4.1092224	-12.589432	4.3232727
1493777282327	-4.895035	-14.495956	4.478241
1493777282327	-3.6324463	-14.6432495	1.0417175
1493777282328	-3.3758545	-14.523987	-1.1255951
1493777282328	0.9864197	-12.291931	-0.46073914
1493777282328	3.6449432	-11.586136	-0.07598877
1493777282328	2.7574158	-9.821747	1.9311676
1493777282328	-0.13957214	-8.261612	2.3730316
1493777282328	-1.6947632	-7.175995	3.8964996
1493777282328	-2.6384583	-6.423218	3.6431122
1493777282329	-2.41568	-5.267975	3.2855072
1493777282329	-2.5503693	-4.6963043	2.2233582
1493777282329	-2.6128693	-3.9456177	1.799942
1493777282329	-2.7312775	-2.7105865	2.3557434
1493777282330	-1.8083801	-1.5715332	2.6347046
1493777282330	-0.7856293	-1.9408112	1.586853
1493777282332	-0.32122803	-4.4669495	-0.60112
1493777282332	0.092559814	-10.723526	-7.710312
1493777282332	-0.5298767	-17.845352	-17.830688
1493777282332	1.0901337	-19.474823	-15.929855
1493777282332	1.8366852	-14.241486	-7.148514
1493777282333	0.0043945313	-3.260147	-2.887268
1493777282333	-3.549408	-2.7888336	-1.0164032
1493777282333	-7.0408173	-12.624527	2.0019684
1493777282334	-3.4232025	-17.24736	2.6303864
1493777282334	0.2182312	-14.741379	-3.120819
1493777282334	1.0891418	-6.882599	4.35054
1493777282334	-2.6578674	-3.0331879	9.516388
1493777282334	-3.2687073	-7.8554688	4.194214
1493777282335	2.4942017	-11.768555	4.1423492
1493777282335	5.211319	-13.180084	3.6124573
1493777282335	4.858551	-12.966476	2.9377747
1493777282335	2.680725	-11.774963	1.2223053
1493777282335	0.030960083	-10.289001	-0.44862366
1493777282335	-1.3362274	-9.298187	0.12150574
1493777282336	-1.2667389	-9.087051	0.41859436
1493777282336	-0.61235046	-8.641037	0.23432922
1493777282336	0.21028137	-8.126434	0.92604065
1493777282336	0.7036896	-8.07605	0.7578888
1493777282336	0.99435425	-8.160568	1.0243835
1493777282336	1.6012726	-8.498215	1.0694885
1493777282336	1.6824036	-9.0542755	0.7260742
1493777282337	1.7883453	-9.7569275	0.016235352
1493777282337	2.3473358	-9.730804	-1.7840881
1493777282337	2.8563843	-10.280838	-2.4853668
1493777282337	2.140152	-11.183716	-1.0222778
1493777282337	0.4879303	-11.806152	-1.0736542
1493777282337	1.1047974	-11.943741	-0.8496094
1493777282337	2.2952423	-12.110962	-1.2032471
1493777282338	1.535965	-13.061325	-3.056717
1493777282338	1.6737976	-13.221024	-4.507187
1493777282338	3.59346	-14.175934	-1.425415
1493777282338	2.773819	-14.879898	-2.9838104
1493777282338	1.8024445	-13.485184	-2.3049622
1493777282338	-1.3466644	-12.002731	0.18696594
1493777282339	-4.330765	-12.37944	4.8184814
1493777282339	-5.686493	-15.402435	3.897644
1493777282339	-3.812317	-15.371933	1.958252
1493777282339	-2.1847992	-14.659546	-1.2494812
1493777282339	2.06102	-12.994064	-1.2131653
1493777282339	2.4648895	-10.70076	0.37149048
1493777282339	2.269165	-9.693741	0.97276306
1493777282340	-0.4038086	-7.6679993	2.646698
1493777282340	-1.5713959	-6.667938	3.63031
1493777282340	-2.33609	-6.410919	3.0404358
1493777282340	-1.865448	-5.053116	2.7059326
1493777282340	-1.545044	-4.185898	1.8417511
1493777282340	-1.6274872	-3.303711	1.6493225
1493777282341	-1.8033295	-2.5253754	2.4084015
1493777282341	-1.479126	-1.744873	2.8930206
1493777282341	-0.7097626	-1.9301453	1.8608246
1493777282341	-0.53938293	-4.4014435	-0.673584
1493777282341	-0.37005615	-10.637924	-8.221329
1493777282341	-0.96907043	-17.755203	-17.97113
1493777282341	-0.10749817	-19.474823	-16.288467
1493777282342	1.4693604	-14.3528595	-8.470551
1493777282342	-0.101989746	-2.6630402	-3.418518
1493777282342	-3.3643646	-1.498291	-0.18792725
1493777282342	-6.0701447	-12.289291	3.2707062
1493777282342	-1.1648865	-17.106735	3.8209229
1493777282342	1.4421997	-13.217987	-1.1371765
1493777282343	-1.9876556	-4.841263	4.393463
1493777282343	-4.0734253	-1.9022369	8.556564
1493777282343	-0.8331909	-7.7897644	5.227936
1493777282344	4.67276	-12.660522	4.0365143
1493777282345	5.3556213	-13.749435	3.1076508
1493777282345	3.9034576	-12.450623	1.716629
1493777282345	1.9872894	-10.892166	0.042617798
1493777282345	-0.60043335	-9.5768585	-0.524353
1493777282345	-1.4758759	-9.302475	0.27415466
1493777282345	-0.49902344	-9.590317	0.20536804
1493777282346	0.19667053	-9.083435	-0.008392334
1493777282346	0.40602112	-8.392441	0.50271606
1493777282346	0.41340637	-7.8739777	0.5492859
1493777282346	0.98638916	-7.539383	1.0366669
1493777282348	1.6867523	-8.109787	1.2037354
1493777282348	1.5472717	-9.180542	0.9386444
1493777282348	1.5067139	-10.046356	0.19276428
1493777282348	1.9953003	-10.07489	-1.4577332
1493777282348	2.3126068	-10.443466	-3.0044403
1493777282348	1.9290619	-11.030304	-2.6541138
1493777282349	1.5009613	-11.514969	-2.190033
1493777282349	2.6280975	-11.996429	-1.1674652
1493777282349	3.0980682	-12.230408	-1.1446838
1493777282349	1.5252533	-13.841064	-4.3490143
1493777282349	2.4149017	-15.076035	-2.3089752
1493777282349	0.534256	-16.1557	-2.2746735
1493777282349	-1.4030914	-13.976288	-2.354309
1493777282350	-4.250763	-12.145676	0.95433044
1493777282350	-4.8058624	-11.3133545	4.5206146
1493777282350	-4.6699677	-13.733643	5.931793
1493777282350	-3.3722534	-15.085114	0.72216797
1493777282350	-1.7991028	-16.415298	-1.8516998
1493777282350	1.8752594	-13.363785	-0.53022766
1493777282351	2.7280884	-12.445969	0.29153442
1493777282351	2.2870026	-10.372833	1.6320953
1493777282351	-0.048065186	-8.0082855	2.331955
1493777282351	-1.3528748	-6.4845734	4.1329346
1493777282351	-2.7149963	-5.565399	4.092331
1493777282351	-3.427719	-4.093033	3.1425629
1493777282352	-3.0672913	-3.0309753	1.8411407
1493777282352	-1.9478607	-2.6183624	1.7473602
1493777282369	-1.9715118	-1.4783325	2.271225
1493777282388	-1.3308716	-1.0048828	2.4142456
1493777282406	0.06611633	-2.1698303	1.5682526
1493777282428	1.1259766	-5.464554	-2.2683716
1493777282447	1.9244843	-12.439941	-11.23262
1493777282467	-0.27934265	-19.474823	-19.326355
1493777282487	-0.3307495	-18.288788	-14.678421
1493777282507	1.2900085	-11.965332	-6.419449
1493777282525	-2.248169	-5.0682526	-2.5652466
1493777282544	-6.7092285	-10.817551	0.44612122
1493777282567	-3.6988373	-16.942871	3.0786438
1493777282586	-0.6572113	-13.074402	-0.7767334
1493777282605	-1.4089661	-4.5782013	1.9583893
1493777282626	-0.7897186	-1.2479095	9.175354
1493777282645	0.5068207	-7.6386566	6.2727966
1493777282666	3.6641998	-13.894623	3.6415405
1493777282685	4.134186	-14.033218	2.9300842
1493777282704	3.4320679	-12.0594635	2.5466156
1493777282725	1.7728424	-10.735825	1.4247284
1493777282744	-0.8063812	-9.650299	0.29684448
1493777282762	-1.4530029	-9.611267	0.5495148
1493777282781	-0.5622864	-9.973068	0.46276855
1493777282800	-0.33312988	-9.301514	-0.00932312
1493777282820	0.19703674	-8.35791	0.36727905
1493777282838	0.74850464	-7.8987427	0.4965515
1493777282858	0.8879852	-8.058105	0.64707947
1493777282877	1.3721619	-8.800629	0.70484924
1493777282897	1.6416473	-9.861771	0.6614227
1493777282917	1.8924255	-10.090805	-0.04510498
1493777282936	2.2674408	-9.378403	-1.7195129
1493777282955	2.178131	-9.8220825	-2.0275269
1493777282976	1.0940857	-10.803665	-1.6943665
1493777282995	0.52337646	-11.531998	-2.1068878
1493777283015	1.7564545	-12.111816	-1.1624451
1493777283035	2.1019287	-11.869293	-1.5162048
1493777283056	0.80311584	-12.336166	-4.4944153
1493777283074	3.1698608	-14.546478	-3.2985992
1493777283094	2.785843	-16.737076	-2.1858063
1493777283134	1.1439972	-14.060501	-2.0679321
1493777283153	-0.94721985	-12.665527	1.0853271
1493777283173	-3.512268	-11.88147	5.340683
1493777283193	-4.4368896	-14.63855	4.446411
1493777283213	-3.5999603	-16.569122	2.2405243
1493777283233	-2.0394592	-17.609009	-1.327591
1493777283253	5.225281	-13.185745	1.1012878
1493777283272	3.3926086	-12.851242	0.36076355
1493777283292	2.7796326	-9.634323	2.0735016
1493777283312	0.67266846	-7.788086	2.8312836
1493777283332	-1.233429	-6.993286	4.21196
1493777283351	-1.5146942	-5.357971	3.4060974
1493777283371	-1.4371338	-4.8886566	3.0766907
1493777283391	-2.3054352	-4.241089	2.354721
1493777283409	-2.3873444	-3.0018768	2.4971466
1493777283430	-2.193756	-1.6438141	3.3324432
1493777283450	-1.7187195	-0.9293213	3.121231
1493777283470	-0.39988708	-2.1596375	1.5218048
1493777283490	-0.0048828125	-5.4126587	-2.2510834
1493777283509	-1.4624786	-12.479355	-10.952087
1493777283530	-0.067840576	-19.474823	-19.422745
1493777283553	2.4605103	-18.657654	-14.047699
1493777283573	1.05719	-12.721008	-4.16626
1493777283594	-1.4558563	-3.4873352	-2.235138
1493777283614	-4.704468	-4.6269226	-3.9578857
1493777283635	-6.034027	-13.45726	0.4066162
1493777283652	-1.6830292	-16.035873	2.8205261
1493777283674	0.26654053	-12.661316	1.6814575
1493777283694	-0.40901184	-5.892395	6.175247
1493777283714	-0.7082367	-3.998581	6.482422
1493777283733	1.4728394	-8.3146515	4.3471527
1493777283753	3.8923645	-11.424744	2.9320831
1493777283774	4.143997	-12.291901	2.4403076
1493777283793	2.9358673	-12.855759	2.1099548
1493777283812	1.4133301	-12.51239	0.74642944
1493777283834	-1.677475	-9.873444	-0.2762909
1493777283851	-2.1663513	-8.851486	0.3162079
1493777283871	-0.89160156	-9.054459	0.54286194
1493777283893	-0.23828125	-8.480728	0.49121094
1493777283911	0.041534424	-8.482269	0.63723755
1493777283931	0.33267212	-8.565826	0.3484497
1493777283952	0.72154236	-8.393967	0.5188446
1493777283971	1.6499023	-8.755768	0.59928894
1493777283989	2.1697693	-9.956665	0.20819092
1493777284009	2.7736816	-10.588547	-1.2864838
1493777284029	3.4549103	-10.560226	-2.2369232
1493777284049	2.3131714	-11.143875	-2.140564
1493777284069	0.45576477	-11.718002	-2.6697235
1493777284089	1.2787781	-11.839493	-1.661087
1493777284108	2.5082092	-11.650909	-1.1860962
1493777284125	0.5687256	-12.151154	-4.01915
1493777284148	1.1066742	-13.324219	-5.0137634
1493777284167	3.1178284	-15.742386	-2.2699432
1493777284188	1.9307556	-15.393967	-2.6284943
1493777284207	1.8657684	-13.296783	0.72232056
1493777284247	-0.8776398	-12.486465	5.2343903
1493777284266	-3.765564	-14.073944	5.707199
1493777284287	-5.8993683	-14.972046	1.2593231
1493777284306	-4.091873	-18.02826	-0.025390625
1493777284325	-1.5779724	-15.044281	-2.145462
1493777284346	3.7467346	-13.913788	-1.0144501
1493777284365	4.720169	-10.158386	1.9354553
1493777284386	0.3531494	-7.191971	1.7194519
1493777284405	-0.6850586	-5.8271637	3.823471
1493777284423	-2.3960724	-4.9040985	3.4434357
1493777284445	-2.3997498	-4.290863	3.350357
1493777284464	-2.553711	-3.981964	2.2601929
1493777284485	-2.3439941	-3.2956543	2.3779907
1493777284504	-2.3559418	-2.3861237	2.8003235
1493777284524	-1.4853973	-1.8747559	2.5307312
1493777284544	-0.012924194	-2.726822	1.2331085
1493777284563	0.54904175	-5.3899536	-1.6206512
1493777284584	-0.50582886	-11.7140045	-9.012009
1493777284603	-1.8317413	-18.827454	-18.81456
1493777284623	0.9884033	-19.129868	-14.858963
1493777284643	1.7342987	-13.666855	-5.8398895
1493777284662	-0.060684204	-4.0634155	-2.045456
1493777284684	-3.0447845	-4.2767334	-2.1692963
1493777284702	-5.656952	-11.868912	1.292633
1493777284720	-3.2726288	-14.895065	3.638855
1493777284744	-0.9264984	-14.247711	0.4868164
1493777284761	0.09500122	-9.191223	4.599777
1493777284781	-1.2707977	-5.317978	6.660736
1493777284803	0.5182953	-7.4315186	4.1211395
1493777284819	3.968399	-9.802109	4.1636353
1493777284841	4.4573364	-11.462021	3.7569427
1493777284860	4.092743	-12.629272	2.4907532
1493777284879	1.048645	-12.260971	-0.5251465
1493777284900	-2.137146	-9.918533	-0.36372375
1493777284918	-2.386444	-8.666275	0.65452576
1493777284939	-1.3048553	-8.668259	0.9154968
1493777284959	0.256958	-8.287628	0.31169128
1493777284979	1.0699463	-8.613907	0.37088013
1493777284999	1.2350769	-8.939957	0.4286499
1493777285018	1.7632599	-8.903885	0.1871643
1493777285039	2.1487122	-9.498642	0.31834412
1493777285058	2.2435913	-10.415894	-0.2631073
1493777285078	2.3354797	-9.973221	-1.0067596
1493777285098	1.9374237	-9.858185	-1.0361176
1493777285117	0.39611816	-11.161285	-0.7137604
1493777285136	-1.2701111	-11.722336	-1.0478058
1493777285155	0.7194214	-11.9335785	-0.89746094
1493777285176	3.5683594	-12.228043	-0.6685791
1493777285197	2.3192291	-12.982834	-2.910843
1493777285216	2.3932343	-13.251541	-2.3695831
1493777285234	3.2069397	-14.760056	-1.9008179
1493777285255	1.9519196	-14.403198	-3.6112366
1493777285274	-0.40750122	-12.426422	-0.5197754
1493777285295	-3.4727936	-10.610153	1.1252594
1493777285315	-5.8571014	-12.090836	5.683426
1493777285355	-5.823715	-14.66333	3.9239807
1493777285373	-3.2793884	-15.007263	1.7864685
1493777285394	-1.2210236	-15.427078	-2.5792542
1493777285414	4.3743896	-13.336105	-3.295288
1493777285431	3.9584503	-10.926224	0.613678
1493777285454	1.338974	-9.023895	1.5349426
1493777285471	0.05833435	-7.510193	3.381485
1493777285493	-1.0992279	-6.589813	3.995926
1493777285514	-1.5190582	-5.3749084	3.7280426
1493777285531	-1.9966736	-4.8218536	3.0912323
1493777285553	-2.2608948	-4.1391144	2.0405884
1493777285574	-2.835846	-3.1177979	2.1473541
1493777285592	-2.5501099	-2.0079346	2.6583557
1493777285612	-1.4094543	-1.848175	2.3977966
1493777285629	-0.1352539	-3.6310272	0.9450073
1493777285652	0.6198578	-8.00473	-3.4053345
1493777285671	-0.80049133	-14.873169	-11.387772
1493777285691	-0.7110443	-19.474823	-19.471848
1493777285710	2.727234	-17.33905	-14.570923
1493777285729	1.5751648	-9.104736	-4.4576416
1493777285750	-0.57025146	-1.0896301	-1.6202698
1493777285769	-4.176941	-4.0863647	-1.5479584
1493777285789	-6.773941	-14.211838	1.6588593
1493777285809	-1.9283752	-17.953201	2.6915894
1493777285827	0.9808502	-14.540848	-1.9530334
1493777285849	-1.3502655	-6.517914	4.324402
1493777285868	-3.7751465	-3.2566986	7.9544525
1493777285887	-1.8692017	-8.053757	3.9011993
1493777285904	3.4568787	-11.50087	3.569046
1493777285924	5.1231537	-12.524811	3.4346619
1493777285944	4.5265045	-12.448975	2.05188
1493777285962	3.7048035	-11.932388	0.45721436
1493777285981	0.6720276	-10.289352	-0.7305603
1493777286001	-0.8135376	-9.266052	0.23590088
1493777286021	-0.5265045	-9.164703	0.81959534
1493777286041	0.21954346	-8.676926	0.5782471
1493777286060	0.41862488	-8.025513	0.7941284
1493777286080	0.100860596	-7.6954193	0.678833
1493777286100	0.24481201	-8.145416	0.72468567
1493777286120	1.2398834	-8.620865	0.41125488
1493777286139	1.7765808	-9.395065	-0.13331604
1493777286159	2.089325	-10.041412	-1.1428528
1493777286179	2.73555	-9.916458	-2.4137115
1493777286199	2.4766388	-10.58783	-1.4835358
1493777286219	0.9875946	-11.384979	-0.43595886
1493777286239	0.92836	-11.780197	-0.7787628
1493777286258	2.08107	-12.32692	-0.1157074
1493777286279	0.71043396	-12.740845	-1.6426239
1493777286298	-0.5277252	-12.951706	-4.0983124
1493777286318	2.3386993	-14.165527	-1.8042908
1493777286337	2.5215912	-15.664993	-3.1802368
1493777286357	1.806427	-13.964264	-3.3817444
1493777286397	-0.5995941	-12.81543	-0.06983948
1493777286417	-3.6500854	-12.031311	3.2471466
1493777291299	-5.0313416	-13.8415985	5.317749
1493777291299	-3.9821472	-14.277359	2.5666656
1493777291300	-3.0292664	-15.854965	-0.8461609
1493777291300	4.4570465	-13.872162	-0.64126587
1493777291300	4.8979034	-12.262619	-0.22796631
1493777291300	4.205139	-9.965851	0.72135925
1493777291300	0.17687988	-6.719528	2.159317
1493777291300	-1.2246246	-5.22789	3.838379
1493777291300	-2.7569733	-5.120743	3.3880463
1493777291300	-3.042389	-4.6284637	3.035492
1493777291300	-2.8240967	-3.8598633	1.6956177
1493777291300	-2.1457214	-4.0777283	1.8305817
1493777291300	-2.6463776	-2.9245758	2.6401367
1493777291300	-2.2726898	-1.8805695	2.591339
1493777291300	-1.1296844	-2.5000916	1.4030609
1493777291300	-0.2607727	-5.5332947	-1.7503967
1493777291300	-0.13163757	-12.777191	-10.359009
1493777291300	-0.39448547	-19.474823	-18.296356
1493777291300	0.32019043	-19.040115	-13.217911
1493777291300	-0.059066772	-13.754883	-6.909073
1493777291300	-0.7328644	-4.2785645	-2.9691162
1493777291300	-3.356247	-4.6273346	-2.189087
1493777291300	-5.4813385	-12.774857	-0.10272217
1493777291301	-0.2037201	-15.891144	3.4207306
1493777291301	1.6656799	-13.114288	-0.3134613
1493777291301	-2.0626984	-6.7313385	0.2919464
1493777291301	-3.966217	-2.4288788	7.145935
1493777291301	-1.0045929	-6.1400757	5.40152
1493777291301	4.1380615	-11.201187	3.4532318
1493777291301	5.454956	-12.820282	3.6471252
1493777291301	4.3196564	-12.369476	2.3459625
1493777291301	2.5438385	-11.310532	0.8243408
1493777291301	0.36738586	-10.177032	0.6441345
1493777291301	-1.3596039	-9.279175	0.6958008
1493777291301	-1.5879822	-9.225937	0.96707153
1493777291301	-0.6416626	-9.210266	0.39463806
1493777291301	0.54515076	-9.00621	-0.20881653
1493777291301	0.66630554	-8.842194	0.5948181
1493777291301	0.8236084	-8.681213	0.27027893
1493777291301	1.5936279	-8.730606	0.55018616
1493777291301	1.8357391	-9.352051	0.61616516
1493777291301	1.7778015	-10.129761	0.2836609
1493777291301	1.9376221	-10.1566925	-1.1575317
1493777291302	2.2063599	-9.90065	-2.868637
1493777291302	2.018692	-10.515564	-2.5799866
1493777291302	0.62171936	-11.13385	-1.622757
1493777291302	1.1719208	-11.379456	-0.9902649
1493777291302	2.145172	-11.640366	-0.83470154
1493777291302	1.1324463	-12.318527	-3.0840454
1493777291302	1.4720459	-13.131485	-5.169739
1493777291302	2.6844025	-15.276001	-3.3375092
1493777291302	2.164627	-16.69548	-4.2976837
1493777291302	2.101593	-14.292755	0.7458191
1493777291302	-2.7402496	-13.039383	1.7094727
1493777291302	-4.792755	-13.555374	5.342865
1493777291302	-6.2537384	-14.877502	3.1087036
1493777291302	-5.1744385	-15.912689	1.3252869
1493777291302	-1.8650513	-14.998596	-1.9260559
1493777291302	5.138687	-12.6519165	-0.13175964
1493777291302	4.078644	-10.617798	1.290451
1493777291302	0.9580841	-8.147186	1.8395538
1493777291302	-0.5233307	-6.7348785	3.2870789
1493777291303	-1.4491882	-6.1433716	3.5388184
1493777291303	-2.2694092	-5.5446625	3.0226288
1493777291303	-2.2769775	-4.5890503	2.340683
1493777291303	-1.8530426	-3.8056488	1.7853699
1493777291303	-1.7204132	-3.08078	2.4919586
1493777291303	-2.0849457	-1.8566132	2.908432
1493777291303	-1.5535126	-1.2567902	2.2257996
1493777291303	-0.55708313	-2.8005219	0.5695343
1493777291304	0.042007446	-8.42453	-6.2358704
1493777291304	-1.417511	-16.617294	-14.924957
1493777291304	-0.8404846	-19.474823	-14.199478
1493777291304	0.71507263	-15.880997	-10.605286
1493777291304	-0.41738892	-6.9369507	-4.24704
1493777291304	-0.8766632	-1.2026367	-2.25914
1493777291304	-3.43042	-3.9421234	-4.124069
1493777291304	-5.1684265	-13.490356	-2.2443542
1493777291304	0.60717773	-18.86676	1.7583466
1493777291304	1.8456116	-15.9960785	-0.6360016
1493777291304	-3.2207947	-7.9976807	0.5713196
1493777291304	-5.2907867	-1.9432373	6.267853
1493777291304	-0.9562073	-5.6667175	5.6532135
1493777291304	4.3209076	-11.30217	4.615799
1493777291304	6.520035	-13.749634	3.343628
1493777291304	5.7010193	-13.72261	1.5018158
1493777291304	3.5296326	-12.250275	0.47235107
1493777291304	0.8868561	-10.688232	0.5170593
1493777291304	-2.1615906	-9.411758	-0.10328674
1493777291304	-2.5102386	-9.290085	0.37565613
1493777291305	-1.3607941	-9.030151	0.12434387
1493777291305	-0.37594604	-8.434128	0.11543274
1493777291305	0.069732666	-8.00914	0.22798157
1493777291305	0.8705139	-8.163361	-0.42074585
1493777291305	1.0583191	-8.223297	1.0108185
1493777291305	1.6509552	-8.279068	0.47331238
1493777291305	2.4365692	-8.691528	0.60624695
1493777291305	2.6393738	-9.327347	-0.5433197
1493777291305	2.8541718	-9.43869	-1.5636139
1493777291305	2.5024872	-10.285782	-0.0819397
1493777291305	-0.04333496	-11.645081	-1.1699677
1493777291305	-0.041534424	-11.838898	-2.2701874
1493777291305	2.277893	-12.270813	-1.2644043
1493777291305	2.4469147	-12.726715	-2.1096497
1493777291305	1.1694794	-12.895584	-3.852829
1493777291305	3.6818237	-13.505844	-2.3797455
1493777291305	3.0458374	-15.746429	-2.781128
1493777291305	0.61782837	-14.610275	-4.4108734
1493777291305	-1.2668304	-13.188873	-0.8436127
1493777291305	-2.4188995	-12.053787	3.6023712
1493777291306	-4.994293	-13.887894	5.921158
1493777291306	-5.1479797	-15.451233	3.4921417
1493777291306	-2.1855774	-17.42369	0.10708618
1493777291306	4.901184	-15.805756	-1.9450531
1493777291306	4.2782593	-12.983261	-0.41737366
1493777291306	0.8688965	-10.398514	0.05189514
1493777291306	-0.9450989	-6.997162	2.8170013
1493777291306	-1.4882813	-5.909363	3.878067
1493777291306	-1.9815826	-5.1781006	3.8973389
1493777291306	-2.2324371	-4.178421	2.9323578
1493777291306	-2.405655	-3.652649	2.1513824
1493777291306	-2.566574	-3.0702057	2.0055542
1493777291306	-3.14299	-2.2194672	2.817566
1493777291306	-2.433899	-1.5229187	3.479004
1493777291306	-1.0483093	-1.8516693	2.164154
1493777291306	-0.049484253	-3.655838	-0.4025116
1493777291306	1.1230164	-10.16806	-8.690491
1493777291306	0.048568726	-17.710999	-18.010757
1493777291306	0.12742615	-19.474823	-16.29538
1493777291306	0.75219727	-14.71109	-9.696991
1493777291306	-0.30870056	-3.1690063	-4.4208374
1493777291307	-2.1537628	2.2949982	-2.6665192
1493777291307	-6.173691	-5.526596	1.0780487
1493777291307	-4.9713135	-15.453064	5.929535
1493777291307	-0.60388184	-19.05394	-3.2854614
1493777291307	1.0469055	-13.640732	-1.1660309
1493777291307	-0.8806305	-4.6620026	10.968033
1493777291307	-2.0544586	-4.4044647	5.5591583
1493777291307	2.3966522	-9.137863	2.7087097
1493777291307	5.864975	-11.773605	4.870743
1493777291307	4.7640686	-12.615845	3.593689
1493777291307	3.0942078	-12.998627	1.5471802
1493777291307	0.7277069	-11.622742	-0.07901001
1493777291307	-2.13797	-9.57782	0.14128113
1493777291307	-2.5	-9.055466	0.2315216
1493777291307	-1.3040619	-8.745895	-0.30397034
1493777291307	0.7203369	-8.303696	0.29496765
1493777291307	1.2967834	-7.7842255	1.1095734
1493777291307	0.9815674	-7.9283295	0.62361145
1493777291307	1.1972351	-8.499222	0.5397186
1493777291307	1.7309418	-9.098068	0.23164368
1493777291308	2.2306213	-9.353302	-0.05595398
1493777291308	2.6608124	-9.468124	-0.74438477
1493777291308	3.0846252	-9.71138	-1.8993073
1493777291308	2.7843475	-10.954193	-1.509552
1493777291308	1.0316315	-11.435715	-1.0783386
1493777291308	0.6441803	-11.591919	-0.95962524
1493777291308	1.6950989	-11.766281	-0.3771515
1493777291308	0.5870819	-12.404083	-2.1319427
1493777291308	1.0146332	-13.165787	-5.278351
1493777291308	3.840042	-14.433243	-2.0225677
1493777291308	2.791031	-15.468674	-2.852417
1493777291308	1.6638489	-13.771149	-1.4778595
1493777291308	-0.49919128	-12.625824	1.4159088
1493777291308	-2.7511902	-12.967911	4.7376404
1493777291308	-4.6147156	-15.785629	4.1058044
1493777291308	-4.713379	-16.548111	1.3325958
1493777291308	-2.9368744	-16.306412	-1.494278
1493777291308	4.1168213	-13.458725	-0.6518402
1493777291308	3.7213287	-11.265793	1.1207123
1493777291308	2.6152039	-9.294403	1.2525635
1493777291308	-0.23638916	-6.939682	2.3539581
1493777291309	-1.147522	-5.4309235	3.888443
1493777291309	-1.9341125	-4.5820465	3.883255
1493777291309	-2.07724	-4.083313	3.1703186
1493777291309	-2.1359406	-3.8070679	2.0244598
1493777291309	-2.443222	-3.0867615	2.324936
1493777291309	-2.4024048	-2.348343	3.0054321
1493777291309	-1.7054596	-1.8085785	3.1268768
1493777291309	-1.0519562	-2.7047424	1.514679
1493777291309	-0.66838074	-5.9075623	-1.7428741
1493777291309	-1.386673	-13.269531	-10.51329
1493777291309	-1.296936	-19.474823	-19.504913
1493777291309	1.1268005	-19.474823	-14.461792
1493777291309	1.1697235	-13.019623	-5.6104126
1493777291309	-0.2693329	-1.8985443	-2.2876587
1493777291309	-3.646408	-2.6713104	-3.043167
1493777291309	-5.3725586	-12.68718	0.10290527
1493777291309	-0.982666	-14.941177	3.452011
1493777291309	-0.9674225	-11.341568	0.42459106
1493777291309	-2.501114	-5.768875	4.9304047
1493777291309	-2.3545227	-5.2698517	7.137436
1493777291310	0.7936249	-9.788483	4.4574127
1493777291310	4.6239777	-12.154663	3.5439148
1493777291310	5.4670105	-12.848816	2.6498718
1493777291310	4.1822815	-12.074112	1.2362518
1493777291310	2.224121	-11.266846	0.3328247
1493777291310	-0.6551056	-9.883423	-0.3655243
1493777291310	-2.071869	-9.332184	-0.04660034
1493777291310	-1.5405426	-9.218018	-0.31582642
1493777291310	-1.035614	-9.015839	-0.6004944
1493777291310	-0.6123047	-8.141098	0.20890808
1493777291310	0.027664185	-7.5972595	0.52838135
1493777291310	1.060852	-7.8703003	0.7468109
1493777291310	1.9076996	-8.630783	0.4355774
1493777291310	2.1413727	-9.1688385	0.24002075
1493777291310	2.13385	-9.378052	0.49293518
1493777291310	1.7783661	-9.920029	-1.8309937
1493777291310	2.1410217	-10.593323	-2.3762817
1493777291310	1.3348389	-11.07309	-1.566391
1493777291310	0.74816895	-11.636871	-1.5056152
1493777291310	2.238449	-11.74527	0.21359253
1493777291310	1.8374023	-12.298889	-1.2370605
1493777291311	0.2456665	-13.3390045	-4.4416046
1493777291311	3.039978	-13.313507	-3.3595123
1493777291311	3.3448029	-15.228104	-2.6868896
1493777291311	2.240509	-15.572754	-2.571762
1493777291311	-0.14953613	-14.179749	2.5331268
1493777291311	-4.397812	-13.465897	3.5436707
1493777291311	-5.6411743	-15.07399	4.6092377
1493777291311	-5.6849976	-15.865143	1.7055969
1493777291311	-4.492935	-15.999344	-0.53009033
1493777291311	-0.9571686	-13.872879	-1.2348633
1493777291311	3.717392	-12.75827	-0.94888306
1493777291311	3.7842407	-9.723267	1.4943085
1493777291311	0.46621704	-7.367996	1.501831
1493777291311	-1.1487274	-5.8077545	3.6804047
1493777291311	-2.017929	-5.04953	4.2329865
1493777291311	-2.6158905	-4.213745	3.6723022
1493777291311	-2.8153687	-3.6516113	2.596161
1493777291311	-2.4407349	-3.058487	2.376358
1493777291311	-2.5176697	-2.2450714	2.427826
1493777291312	-1.794632	-1.3103333	2.2992096
1493777291312	-0.6544342	-1.6284637	1.2039337
1493777291312	-0.05581665	-4.2694855	-1.6185303
1493777291312	0.6714783	-12.314835	-11.216019
1493777291312	-0.80737305	-19.312424	-17.831955
1493777291312	-1.2819977	-19.474823	-12.815704
1493777291312	-0.16615295	-13.704666	-7.179474
1493777291312	-1.3204956	-4.272873	-3.9409943
1493777291312	-5.2061768	-6.247101	-3.669342
1493777291312	-7.571869	-14.677704	-1.8123932
1493777291312	-1.5781708	-14.079041	3.5564728
1493777291332	1.6861725	-9.551666	3.246933
1493777291350	-0.058441162	-4.443405	2.4319153
1493777291369	-0.39164734	-2.9558563	5.427765
1493777291390	1.1091461	-8.254593	4.4173737
1493777291409	3.1279907	-12.740341	2.7729797
1493777291429	4.374115	-13.832855	2.0973053
1493777291449	3.4381256	-12.178314	2.3234406
1493777291469	2.1242065	-10.736816	1.6562042
1493777291488	1.4784241	-10.09964	1.06073
1493777291508	-1.0046692	-9.107681	0.5284729
1493777291528	-2.0005798	-9.133942	0.6579437
1493777291548	-1.5064545	-9.525986	0.29226685
1493777291567	-0.6491699	-9.165695	0.06387329
1493777291587	0.13182068	-8.397766	1.1700134
1493777291607	0.35214233	-8.443695	0.09553528
1493777291626	0.9099579	-8.855057	0.72476196
1493777291647	1.8031464	-9.474289	0.71606445
1493777291666	2.390396	-10.71109	0.49720764
1493777291686	2.7471924	-10.913818	-1.4351349
1493777291706	3.493927	-10.2651825	-3.2122803
1493777291727	2.939209	-10.415375	-2.2657013
1493777291745	0.9721985	-10.834061	-1.5800476
1493777291765	0.73139954	-11.093338	-1.7892456
1493777291785	2.280075	-11.250412	-1.4541626
1493777291824	1.8029327	-11.868927	-4.1160736
1493777291844	3.3778534	-13.716248	-2.623932
1493777291864	2.8415527	-16.133148	-1.3581696
1493777291884	0.7662811	-15.385117	-0.11077881
1493777291907	-4.335495	-13.278168	-1.5945892
1493777291925	-3.8405304	-12.563446	1.3995514
1493777291949	-2.9570923	-16.353073	4.6585693
1493777291968	-3.516922	-18.16542	4.671997
1493777291987	-2.7218323	-18.279953	1.3093262
1493777292006	1.5295563	-14.21759	0.016586304
1493777292028	3.1231232	-11.677689	-0.730072
1493777292048	2.419464	-10.073853	1.191452
1493777292067	-0.42903137	-7.897339	1.9676514
1493777292087	-1.3321533	-6.555359	2.3240662
1493777292107	-1.9763336	-5.24498	3.2492523
1493777292126	-2.718979	-3.9962769	2.7899933
1493777292147	-2.609146	-3.5197296	1.9979553
1493777292166	-2.5875702	-3.054718	1.5224304
1493777292188	-2.2422485	-2.3171234	2.1903229
1493777292206	-1.6884613	-1.705719	2.8901672
1493777292225	-1.2385406	-1.7990265	2.4627533
1493777292247	-0.97010803	-3.5367432	0.5053406
1493777292265	-0.24349976	-8.360687	-5.170166
1493777292286	0.30645752	-15.304184	-13.848709
1493777292305	-0.006454468	-19.474823	-18.16249
1493777292323	-0.13684082	-15.388931	-12.737473
1493777292341	-0.25819397	-5.8097076	-5.1133423
1493777292362	-4.1363983	-3.5016022	-3.0622864
1493777292377	-6.127243	-11.022949	0.5408478
1493777292404	-1.568634	-13.96875	8.284805
1493777292423	-0.26957703	-11.813873	-0.7628021
1493777292443	-0.5314331	-7.3488617	-0.283844
1493777292463	-0.55358887	-5.5917664	8.829803
1493777292482	0.50479126	-9.437805	5.88208
1493777292502	3.6604004	-12.297562	2.65036
1493777292522	5.6519775	-12.265427	2.6898346
1493777292541	5.315857	-10.922928	2.0422668
1493777292562	2.8548584	-10.768951	0.94062805
1493777292581	-0.1756897	-9.9687805	-0.17289734
1493777292601	-1.8747864	-8.820816	0.325943
1493777292621	-1.6701508	-8.546173	0.11303711
1493777292640	-0.4984131	-8.523148	-0.3598938
1493777292661	0.7741699	-8.503113	0.063323975
1493777292680	1.33461	-8.7343445	0.47309875
1493777292700	1.102066	-8.932419	0.7345123
1493777292720	1.2854004	-8.9973755	0.6610718
1493777292739	1.9894714	-10.285034	0.29455566
1493777292759	2.870636	-10.970154	-0.8086395
1493777292779	3.4459229	-10.494812	-1.4844055
1493777292796	2.4172058	-10.964203	-0.13980103
1493777292817	0.12605286	-11.0998535	-1.0104523
1493777292840	0.7449188	-11.258911	-1.546341
1493777292858	3.1998749	-12.055298	-0.969635
1493777292877	3.7928162	-12.049438	-1.2835388
1493777292918	2.626175	-11.810059	-3.1165924
1493777292919	2.7121735	-10.912979	-2.5797424
1493777292957	2.463623	-12.979004	-3.5366058
1493777292977	1.1682892	-14.077148	-3.1523743
1493777292996	-2.0460663	-14.03952	-0.32521057
1493777293017	-5.181076	-12.829041	5.776657
1493777293036	-6.1904907	-13.761322	6.1444397
1493777293057	-7.0397644	-15.369629	3.309311
1493777293076	-4.2693634	-15.914612	0.95721436
1493777293098	0.3164215	-13.697968	-1.7427673
1493777293116	3.8982239	-11.718384	-0.40480042
1493777293135	2.3809662	-9.614563	0.881958
1493777293157	0.6783142	-8.616577	0.9824219
1493777293175	-0.10494995	-8.325775	2.3292847
1493777293193	-0.84690857	-7.2270355	2.776062
1493777293217	-1.5118866	-5.980728	2.607788
1493777293234	-1.6916351	-4.724121	2.7207794
1493777293255	-2.1322174	-3.395279	2.829605
1493777293274	-3.0508575	-2.272995	2.5011444
1493777293292	-3.2395782	-1.7614594	2.3310242
1493777293314	-2.012085	-3.5187225	1.8311768
1493777293335	-0.5484314	-7.089508	0.7931824
1493777293354	-0.13587952	-11.857529	-2.999466
1493777293373	0.17625427	-17.20105	-11.241592
1493777293391	1.0862122	-18.141281	-16.126755
1493777293413	2.1371613	-13.517303	-10.222595
1493777293432	2.664566	-8.183777	-0.3669281
1493777293452	3.147583	-6.8971405	1.9743958
1493777293472	0.9200134	-11.881409	-5.10672
1493777293490	0.15541077	-17.671722	-7.406769
1493777293512	1.5173035	-16.964157	2.1631317
1493777293531	-5.261505	-8.773773	5.985794
1493777293551	-13.576355	-0.86224365	5.067749
1493777293571	-8.556	-3.6839294	4.8090057
1493777293590	3.6548615	-11.888733	5.7515717
1493777293610	9.619522	-16.262848	4.752075
1493777293629	6.592407	-14.674362	2.0870056
1493777293649	1.9056549	-11.236984	0.13734436
1493777293670	-0.47932434	-9.941635	-0.07887268
1493777293689	-0.9005432	-10.233826	1.1655731
1493777293709	-1.1425629	-10.249603	1.5730133
1493777293729	0.008911133	-10.208801	2.008545
1493777293748	1.9949799	-9.782227	1.5541229
1493777293769	3.1502686	-9.433197	0.40615845
1493777293788	2.6259003	-9.556763	-0.21931458
1493777293808	1.4295807	-9.253983	1.632782
1493777293827	1.0143738	-8.955551	2.4969482
1493777293846	0.42974854	-10.14743	2.81633
1493777293867	0.8781433	-11.751587	3.1703644
1493777293887	0.97953796	-11.087585	1.8634033
1493777293904	0.31922913	-9.528763	0.3400116
1493777293926	-2.3179626	-9.196075	0.95402527
1493777293945	-3.9921417	-8.770706	0.74931335
1493777293966	-2.9899597	-8.219025	0.90093994
1493777293987	-1.5991669	-7.833084	1.6964722
1493777294026	1.9455414	-10.060715	4.903183
1493777294044	2.7281647	-13.760101	4.202896
1493777294065	3.900177	-15.359543	1.7915192
1493777294084	5.233551	-12.362717	1.4387054
1493777294102	4.619171	-9.644943	0.32511902
1493777294125	2.1163483	-8.469971	-1.8268585
1493777294144	1.5525818	-8.444077	-3.2799377
1493777294164	0.73243713	-9.329514	-3.2663727
1493777294183	-1.006485	-9.311859	-2.6643524
1493777294203	-0.5982208	-9.037201	-1.7027588
1493777294225	0.5033417	-8.850998	-0.8858185
1493777294242	0.47235107	-9.196289	-1.5879669
1493777294263	-0.76646423	-9.6315	-3.111084
1493777294282	-1.0836029	-9.387711	-3.2937317
1493777294300	-0.50790405	-8.480286	-2.7585297
1493777294322	-0.129776	-8.322571	-2.682907
1493777294341	0.079055786	-8.4655	-2.6426086
1493777294362	0.7317505	-8.412598	-2.858261
1493777294381	0.8559265	-8.412186	-3.5047913
1493777294400	0.06283569	-8.21521	-4.4757843
1493777294421	-0.28738403	-8.046249	-5.43692
1493777294440	-0.57095337	-7.8173065	-6.063217
1493777294460	-0.7455139	-7.009659	-5.923767
1493777294480	0.3223114	-7.0434723	-5.3945007
1493777294498	1.5795593	-10.142838	-4.2106934
1493777294517	0.735672	-14.453934	-1.4358978
1493777294539	-2.2192535	-13.677673	2.0468903
1493777294559	-5.8651276	-8.398621	4.1603546
1493777294579	-6.6206665	-7.0881653	3.7459564
1493777294598	-1.6864166	-9.8298645	4.4409943
1493777294619	4.0437317	-12.52829	5.582443
1493777294638	4.324417	-13.573486	4.2089996
1493777294658	2.4743195	-12.470245	2.1581116
1493777294678	1.1889038	-10.760101	1.3730011
1493777294698	1.224411	-10.23494	1.3422852
1493777294718	0.57514954	-10.039551	0.721344
1493777294737	1.5492706	-10.089813	0.85432434
1493777294757	2.7986908	-10.0225525	0.596756
1493777294773	2.1196442	-9.228729	-0.10626221
1493777294793	1.2113342	-8.329544	0.18449402
1493777294813	0.5132599	-8.744843	0.07752991
1493777294830	1.16716	-9.986786	-0.08834839
1493777313297	1.8723145	-11.121628	1.0187225
1493777313297	2.151062	-10.813263	1.1708984
1493777313297	0.6328583	-9.3407135	-1.3403473
1493777313297	-0.39093018	-8.762512	-2.3905945
1493777313297	-0.16171265	-10.628204	-1.7202911
1493777313297	0.5422821	-11.937683	-0.40985107
1493777313297	0.45489502	-11.983353	-0.2101593
1493777313297	0.7187042	-11.900421	-1.5826111
1493777313297	2.5746307	-12.060699	-2.4241638
1493777313297	4.1251526	-12.794662	-1.2269135
1493777313297	2.622284	-13.533539	-1.2490387
1493777313297	-0.40771484	-13.877533	-3.6006622
1493777313297	-2.7652893	-13.511353	-2.6151886
1493777313297	-3.2976227	-12.222855	2.696289
1493777313297	-4.8531494	-12.786621	6.3427277
1493777313297	-3.7956238	-14.0460205	4.054489
1493777313297	-1.9074554	-15.276733	1.9017944
1493777313297	-1.5048981	-16.165909	-2.854889
1493777313297	2.4116364	-14.561874	-1.719696
1493777313297	3.3025665	-11.530258	0.9811249
1493777313297	1.1386261	-8.816788	1.9447937
1493777313297	0.4184265	-6.75325	3.67688
1493777313297	-1.8773499	-6.0567627	3.5192413
1493777313297	-2.29039	-5.2743073	3.040512
1493777313297	-2.075241	-4.187027	2.1243286
1493777313297	-2.1380463	-3.287262	1.6088257
1493777313297	-2.2117615	-1.9984894	1.7512054
1493777313298	-2.242035	-1.0513916	2.369629
1493777313298	-0.978302	-1.2957611	2.1706848
1493777313298	0.020858765	-3.009018	0.33761597
1493777313298	0.43034363	-7.1750336	-3.8811493
1493777313298	-0.04421997	-14.663849	-12.261017
1493777313298	1.1065369	-19.474823	-19.722397
1493777313298	3.0094147	-17.076843	-14.631454
1493777313298	0.81925964	-9.5798645	-4.792389
1493777313298	-2.3857574	-5.1054077	-1.7535248
1493777313298	-5.1930237	-10.57341	-1.8224182
1493777313298	-1.6588287	-14.905121	0.9836273
1493777313298	0.1368103	-11.394623	3.1402435
1493777313298	-3.758606	-4.7802277	4.6603394
1493777313298	-3.7556458	-3.2246094	5.9212646
1493777313298	0.10546875	-8.202408	5.1813507
1493777313298	4.4027557	-11.699417	3.9694366
1493777313298	5.8316345	-12.493439	2.800888
1493777313298	4.4420624	-11.816467	2.1267853
1493777313298	2.7584991	-11.051056	1.0714417
1493777313298	0.43792725	-10.103134	0.40335083
1493777313298	-1.914444	-9.190277	0.6054535
1493777313298	-1.8600464	-9.371857	1.0232544
1493777313298	-0.8036957	-9.467117	0.9229584
1493777313298	-0.0029296875	-8.656998	1.2853088
1493777313298	0.24685669	-8.706955	0.55348206
1493777313298	0.5945282	-8.712723	0.5896454
1493777313298	0.9970093	-8.611237	0.4129181
1493777313298	1.4066162	-8.790787	0.5487213
1493777313298	1.697052	-9.799652	-0.2854309
1493777313298	2.0966492	-10.207687	-1.1609039
1493777313298	1.9285736	-10.609985	-1.998703
1493777313298	0.15512085	-11.433548	-2.07753
1493777313298	0.33454895	-11.504364	-2.208908
1493777313298	2.5632782	-11.824173	-1.5193024
1493777313298	3.329773	-12.165466	-1.573883
1493777313298	1.9803314	-12.674728	-3.1389465
1493777313298	3.2127533	-13.081497	-2.2920685
1493777313298	0.45814514	-15.801071	-4.385971
1493777313298	0.5546112	-14.050964	-2.6389618
1493777313298	-1.5028687	-13.426468	1.2431183
1493777313298	-1.8980713	-12.016739	5.7546997
1493777313299	-3.1563873	-13.474609	6.5475616
1493777313299	-4.7849426	-15.733902	0.9857025
1493777313299	-3.1581726	-16.993698	-1.7255859
1493777313299	2.892624	-14.666626	-0.09765625
1493777313299	3.4183502	-12.221558	0.5516205
1493777313299	2.197403	-9.643036	1.0888062
1493777313299	0.29286194	-7.8667297	1.9386597
1493777313299	-0.48706055	-6.3637543	2.6409912
1493777313299	-1.760788	-5.5936584	2.614334
1493777313299	-2.1831055	-4.8335114	2.325592
1493777313299	-2.2088013	-4.203766	1.9711609
1493777313299	-2.7013855	-3.7069397	2.3145294
1493777313299	-3.1095886	-2.7733612	3.087738
1493777313299	-2.464569	-2.2490997	3.348648
1493777313299	-1.2368774	-2.2919312	2.1638641
1493777313299	-0.2262268	-4.3762054	-0.5278015
1493777313299	0.49856567	-9.865631	-7.8393555
1493777313299	0.425354	-16.884415	-16.549881
1493777313299	2.0282898	-19.474823	-16.490265
1493777313299	2.2498627	-16.137451	-10.534088
1493777313299	1.0752716	-8.278168	-3.4464111
1493777313299	0.14717102	-2.6234589	-3.9455109
1493777313299	-3.177353	-3.0219421	-3.8912811
1493777313299	-5.1268463	-10.302139	2.6059418
1493777313299	-1.4207306	-16.918304	3.1735992
1493777313300	0.617157	-16.828049	-0.9763794
1493777313300	-2.458435	-8.489166	2.7600098
1493777313300	-3.6976166	-2.6447296	6.1957245
1493777313300	1.701889	-5.3475037	4.8315887
1493777313300	5.4792175	-9.974976	3.8233032
1493777313300	4.579361	-12.065277	3.6343994
1493777313300	2.7175446	-12.593445	2.5956268
1493777313300	0.884964	-12.046295	0.47868347
1493777313300	-0.6883545	-9.818115	0.39175415
1493777313300	-0.9646759	-8.80838	1.5639954
1493777313300	0.058685303	-8.953644	1.425293
1493777313300	0.38897705	-8.775299	0.9802704
1493777313300	-0.11752319	-8.621185	1.1160278
1493777313300	0.26609802	-9.401352	0.39222717
1493777313300	0.8096161	-9.414093	0.60746765
1493777313300	1.5641022	-8.856644	0.6980896
1493777313300	2.3252563	-9.568405	0.0079193115
1493777313300	2.7273712	-10.742386	-0.5682831
1493777313300	2.8762817	-10.412659	-1.8857269
1493777313300	2.2737732	-10.213684	-1.3270569
1493777313300	0.65553284	-10.855286	-0.22987366
1493777313300	-0.23382568	-11.3064575	-0.6374359
1493777313300	1.8647919	-11.877594	-0.7357025
1493777313300	2.7582855	-11.956711	-0.809906
1493777313300	0.7065582	-12.297089	-2.6141968
1493777313300	1.5578766	-12.934998	-3.1639862
1493777313300	3.5429993	-14.648834	-2.0534058
1493777313300	2.0442963	-14.901108	-4.504654
1493777313300	1.1979065	-13.019089	-2.1841125
1493777313300	-1.8384552	-11.9713745	-0.05836487
1493777313300	-3.4592133	-13.730682	4.749237
1493777313300	-5.393585	-15.402725	6.291214
1493777313300	-3.6107788	-14.670929	3.9327545
1493777313300	-1.2439728	-15.176697	-0.15657043
1493777313300	4.9974823	-13.774277	-1.9882355
1493777313300	3.4157562	-11.694244	-0.28582764
1493777313300	0.39089966	-9.045258	0.70573425
1493777313300	-0.5563965	-6.822464	2.9170837
1493777313300	-1.2347717	-5.5147095	3.1212158
1493777313300	-1.2355042	-4.707306	2.725006
1493777313300	-1.2203064	-4.566498	1.6995392
1493777313301	-1.5112762	-4.4503174	1.1813965
1493777313301	-2.506546	-3.7783966	1.7574768
1493777313301	-2.801712	-3.0754852	3.08432
1493777313301	-2.0529633	-2.646408	3.1135101
1493777313301	-0.6679077	-3.236557	1.4607391
1493777313301	0.56715393	-6.1291656	-1.8712311
1493777313301	0.10391235	-12.845963	-9.522064
1493777313301	-0.52090454	-18.955658	-18.197815
1493777313301	2.2674713	-19.474823	-15.371262
1493777313301	2.190567	-14.818817	-6.6584167
1493777313301	0.21624756	-4.959442	-2.3113556
1493777313301	-1.8063049	-1.9802094	-4.0064697
1493777313301	-4.2857666	-8.099762	-3.36438
1493777313301	-1.3238983	-13.876587	4.485962
1493777313301	0.520874	-15.495468	0.21292114
1493777313301	-1.2167511	-12.309601	-0.2848816
1493777313301	-3.3202515	-5.9844513	7.3892517
1493777313301	-2.9123383	-5.1222076	5.209488
1493777313301	1.4624023	-7.995529	4.1901245
1493777313301	4.7203674	-10.675507	4.5863037
1493777313301	5.1672363	-12.320038	3.1409302
1493777313301	3.6825562	-12.780945	1.2321167
1493777313301	0.8260193	-11.302475	0.15646362
1493777313301	-1.4799805	-9.332474	0.64901733
1493777313301	-1.6441498	-9.023895	1.0428619
1493777313301	-0.7470398	-9.280319	0.8815155
1493777313301	0.6356354	-9.274063	0.32304382
1493777313301	0.8523407	-8.943634	0.76457214
1493777313301	0.7646637	-8.688889	0.55093384
1493777313301	1.8387756	-8.524963	0.53944397
1493777313301	2.5209045	-8.801987	0.18399048
1493777313301	2.2177887	-9.60939	-0.042144775
1493777313301	2.0514832	-9.989532	-0.4785614
1493777313301	2.2330627	-9.577759	-1.1134186
1493777313301	2.1854248	-10.598541	-0.81510925
1493777313301	0.55410767	-11.627121	-0.79589844
1493777313301	0.059432983	-12.11409	-1.6845398
1493777313301	2.6052856	-12.2291565	-1.2451935
1493777313301	3.4924774	-12.389114	-1.6632385
1493777313301	1.6851349	-13.450623	-4.644562
1493777313301	2.9283447	-13.960373	-3.1556702
1493777313302	3.3694305	-14.853226	-2.6644592
1493777313302	0.77182007	-14.863403	-4.007553
1493777313302	-2.971695	-12.920517	-1.2001648
1493777313302	-4.20549	-12.037979	2.4568634
1493777313302	-3.8764496	-15.2434845	7.2361145
1493777313302	-2.7659912	-15.11058	4.4393616
1493777313302	-0.78282166	-15.492767	-0.6044464
1493777313302	3.783081	-15.982101	-2.4247437
1493777313302	2.960144	-12.961655	-0.45977783
1493777313302	0.9533386	-9.862946	1.0216827
1493777313302	-0.387146	-6.3595276	3.2823486
1493777313302	-1.3161163	-4.913986	4.4299164
1493777313302	-1.9486084	-4.1751404	2.7758636
1493777313302	-1.7912903	-3.683899	1.907959
1493777313302	-2.0162659	-3.3667603	1.4603271
1493777313302	-2.4254913	-3.1151886	1.7063141
1493777313302	-3.3069153	-2.4106903	2.915512
1493777313302	-3.226471	-2.3529663	3.6225739
1493777313302	-1.8386688	-2.5702972	2.6950989
1493777313302	-1.2132874	-4.439865	0.58169556
1493777313302	-0.2565155	-10.593063	-7.90802
1493777313302	0.5898285	-17.852844	-17.290665
1493777313302	2.0680695	-19.474823	-15.80751
1493777313302	1.4210052	-15.463501	-10.284485
1493777313302	-0.96665955	-6.3113556	-3.69133
1493777313302	-2.5557861	-2.4644012	-4.195282
1493777313302	-4.126526	-7.4108276	-4.3104706
1493777313302	-2.8617554	-12.747665	2.6046906
1493777313302	-0.073135376	-14.385925	3.440796
1493777313302	0.7552185	-12.090347	1.7011108
1493777313302	-0.57676697	-7.3743896	6.036209
1493777313302	-1.6244965	-7.0375824	4.712143
1493777313302	0.68278503	-8.786667	3.3694305
1493777313302	3.6544647	-9.698074	3.7049255
1493777313302	4.0656586	-10.689865	2.6792908
1493777313302	2.905548	-11.581223	1.5112152
1493777313302	1.0588684	-11.178299	0.0818634
1493777313302	-0.7131958	-9.40448	0.44100952
1493777313302	-1.1450806	-8.777725	1.2527924
1493777313302	-0.3650818	-8.7202	0.59983826
1493777313302	0.22087097	-9.061554	-0.35417175
1493777313303	0.7376251	-9.922546	-1.0336761
1493777313303	0.8020935	-9.578262	0.9868164
1493777313303	1.3986359	-9.181747	0.7510834
1493777313303	2.3126678	-9.433807	0.605011
1493777313303	2.111557	-10.0746	-0.14459229
1493777313303	1.6986237	-9.886185	-1.2031708
1493777313303	1.9159851	-9.430283	-2.6283722
1493777313303	2.4334717	-10.559479	-1.697586
1493777313303	1.3805237	-11.372543	0.7568054
1493777313303	0.1951294	-11.572723	-0.61691284
1493777313303	1.5566711	-11.755768	-0.9537506
1493777313303	1.999527	-11.9908905	-1.4984741
1493777313303	1.1423798	-13.015793	-3.4640045
1493777313303	3.6067963	-13.957413	-2.4663544
1493777313303	4.311203	-15.590332	-3.224121
1493777313303	2.3513641	-13.97966	-3.7649078
1493777313303	-1.211029	-12.9579315	-1.2334442
1493777313303	-3.665512	-12.259003	2.8272552
1493777313303	-4.0127563	-13.65744	7.129959
1493777313303	-3.9348602	-13.7009735	2.8228455
1493777313303	-2.2172089	-15.210587	-0.6291046
1493777313304	3.3423767	-15.055191	-0.23995972
1493777313304	3.600296	-13.320068	-0.3312683
1493777313304	2.8633728	-10.328827	1.276123
1493777313304	0.26638794	-7.27684	2.4362183
1493777313304	-1.1358185	-5.214096	3.4743042
1493777313304	-2.1477966	-4.6054077	2.9279633
1493777313304	-2.0128937	-4.3730164	2.2582855
1493777313304	-1.6918793	-3.9906006	1.6955872
1493777313304	-1.7664337	-3.784195	1.8966827
1493777313304	-2.6280518	-2.9719543	2.933548
1493777313304	-2.6999664	-1.9562683	3.3964386
1493777313304	-1.61969	-2.1208801	2.3207245
1493777313304	-0.6656189	-4.6626587	-0.6604004
1493777313304	-0.89146423	-11.772934	-9.742935
1493777313304	-1.4208221	-18.646286	-17.863892
1493777313304	2.325714	-19.474823	-13.8116
1493777313304	3.2974548	-15.165192	-7.290863
1493777313304	1.7880859	-6.029648	-5.062088
1493777313304	0.25387573	-2.611374	-5.8280334
1493777313304	-4.487961	-7.3221283	1.9873047
1493777313304	-4.4754944	-14.694077	7.655548
1493777313304	-1.7508698	-18.776978	-1.7663574
1493777313304	-2.7091064	-11.754929	-1.1534119
1493777313304	-4.031128	-3.5794983	6.5238647
1493777313304	-0.55607605	-4.497879	4.241806
1493777313304	4.636093	-8.573349	3.3762512
1493777313304	5.6609497	-11.121567	3.160675
1493777313304	4.8809357	-12.118912	1.8675537
1493777313304	3.610794	-12.3003845	0.11302185
1493777313304	0.40060425	-10.182373	-0.7630005
1493777313304	-1.3362427	-8.973846	0.30645752
1493777313304	-1.0912018	-8.934036	0.7219391
1493777313304	-0.46214294	-8.565353	0.5866394
1493777313304	-0.24172974	-8.635147	0.5578003
1493777313304	-0.114730835	-9.324936	0.8237915
1493777313304	0.12449646	-8.80777	2.1074982
1493777313305	1.1616669	-8.751373	1.2015686
1493777313305	1.7042694	-9.613388	0.7774353
1493777313305	1.6126556	-10.150909	-0.49298096
1493777313305	2.0278778	-10.164597	-1.8683777
1493777313305	2.4445343	-10.574432	-1.8686523
1493777313305	1.4561615	-11.122177	-0.6213684
1493777313305	0.07072449	-11.104187	-1.2058868
1493777313305	1.5078735	-11.29512	-0.7276459
1493777313305	2.8953094	-11.520233	0.0069885254
1493777313305	0.50128174	-12.593475	-2.4904175
1493777313305	1.140976	-13.22876	-3.9993134
1493777313305	2.9008942	-14.789276	-1.682373
1493777313305	1.7681427	-15.352463	-3.8970642
1493777313305	0.82154846	-12.7647705	-1.257843
1493777313305	-1.8962708	-12.305023	0.7330322
1493777313305	-3.3617706	-12.478638	6.595978
1493777313305	-4.179657	-12.973679	5.6003113
1493777313305	-2.901245	-14.100433	-0.5317688
1493777313305	-2.867279	-15.025925	-3.0730438
1493777313305	3.8750458	-12.732956	0.6656647
1493777313305	3.5094604	-11.424103	1.1450653
1493777313305	1.9010162	-9.155121	1.995163
1493777313305	-0.46699524	-6.6927032	2.4224548
1493777313305	-1.7049255	-6.004959	3.2686157
1493777313305	-2.2275696	-5.465866	2.628708
1493777313305	-2.2857056	-4.775055	2.0245209
1493777313305	-2.063568	-4.189926	1.8944855
1493777313305	-2.3939056	-3.0855103	2.1591187
1493777313305	-2.4039154	-1.9494629	2.0317993
1493777313305	-0.9516144	-2.0898438	1.0187073
1493777313305	0.2808838	-4.654114	-1.0809937
1493777313305	0.09883118	-10.064453	-6.2617035
1493777313305	-1.321579	-17.005722	-12.695404
1493777313305	-0.036743164	-19.34195	-15.046417
1493777313305	2.1597748	-15.508377	-10.368454
1493777313305	1.5029602	-7.932312	-3.560501
1493777313305	-0.1257782	-4.2239532	-3.1507568
1493777313305	-2.7013702	-9.798416	-4.231537
1493777313305	-1.6263885	-16.469482	0.5692291
1493777313305	0.25474548	-15.258591	2.9509125
1493777313306	-2.0873108	-10.266937	1.1169434
1493777313306	-4.287964	-4.3041077	6.160919
1493777313306	-3.1831055	-5.33461	6.186264
1493777313306	0.9150238	-9.566589	4.105301
1493777313306	4.563507	-11.826141	3.7272186
1493777313306	5.5159454	-12.488998	2.9959106
1493777313306	4.5343323	-12.221817	1.1326904
1493777313306	1.1779327	-10.494293	0.32554626
1493777313306	-1.6312256	-9.107986	0.7257843
1493777313306	-1.8753815	-9.208588	1.3241425
1493777313306	-0.77171326	-9.221985	0.69122314
1493777313306	0.17408752	-8.872055	0.4494629
1493777313306	0.17314148	-8.350235	0.6548767
1493777313306	0.38476563	-8.313995	0.6975403
1493777313306	1.6479797	-8.768967	0.9523163
1493777313306	2.1016998	-9.417984	1.071701
1493777313306	1.8705292	-9.991699	0.24345398
1493777313306	1.790802	-9.72905	-1.9763489
1493777313306	1.8905182	-9.508102	-1.8719788
1493777313306	0.75772095	-10.684067	-0.63197327
1493777313306	-0.63113403	-11.527954	-1.1260529
1493777313306	1.2599792	-11.893906	-0.9464874
1493777313306	2.9810486	-12.571777	-1.0294952
1493777313306	2.4571838	-12.882629	-2.9602814
1493777313306	2.9976196	-12.471588	-4.0112305
1493777313306	4.0848083	-14.362152	-2.3797302
1493777313306	2.156662	-15.705215	-2.993927
1493777313306	-1.1136475	-14.006027	-0.26138306
1493777313306	-5.2221527	-12.897064	-1.7436218
1493777313306	-6.0079803	-13.494583	4.5462646
1493777313306	-5.1368713	-14.782043	6.844055
1493777313306	-3.1557617	-15.205414	1.4944763
1493777313306	-2.12117	-15.391373	-3.4973297
1493777313306	4.932419	-13.095337	-1.8695221
1493777313306	3.964981	-10.472839	1.556778
1493777313306	0.4462433	-7.9278107	2.6215057
1493777313306	-1.183609	-6.2217255	3.4857025
1493777313306	-2.1526794	-5.7437134	3.7230988
1493777313306	-2.6685028	-4.8286743	2.8555145
1493777313306	-2.2719421	-4.068329	2.3449554
1493777313306	-1.9183044	-3.682129	1.8900146
1493777313306	-2.214096	-3.1751404	2.1410522
1493777313307	-2.399002	-2.2974396	2.1620178
1493777313307	-1.3848724	-2.4025269	1.4713287
1493777313307	-0.39808655	-4.2333527	-0.26365662
1493777313307	0.11923218	-9.658432	-7.285141
1493777313307	-0.025466919	-16.837769	-14.678879
1493777313307	-0.076416016	-19.474823	-14.382462
1493777313307	0.024398804	-16.010986	-10.466248
1493777313307	-0.328537	-8.395508	-4.297516
1493777313307	-1.2543335	-3.9926147	-4.2646027
1493777313307	-3.7156372	-8.806824	-4.86084
1493777313307	-2.2458801	-15.273926	0.91296387
1493777313307	1.1186066	-14.296997	2.7353516
1493777313307	-0.067596436	-9.042892	1.9164429
1493777313307	-2.4678497	-3.703308	5.476288
1493777313307	-3.1234741	-4.992676	5.6745605
1493777313307	-0.3300476	-9.859283	4.402313
1493777313307	3.2064362	-12.6484375	3.448349
1493777313307	4.9867096	-13.06102	2.8394928
1493777313307	4.1244507	-12.145752	1.8473053
1493777313307	2.7990417	-10.638916	0.73869324
1493777313307	-0.26846313	-9.0513	0.6697693
1493777313307	-1.9084167	-8.879379	0.5917969
1493777313307	-1.1082306	-9.466949	0.48677063
1493777313307	0.100479126	-9.237732	0.57559204
1493777313307	0.7490845	-8.800018	0.40411377
1493777313307	0.6873779	-8.72084	0.3110199
1493777313307	1.1001587	-8.759186	0.6935425
1493777313307	2.0214386	-9.293533	0.5412903
1493777313307	2.4697418	-10.5555725	-0.26185608
1493777313307	3.0055084	-10.554962	-1.5688477
1493777313307	3.2882538	-10.004181	-2.8155975
1493777313307	2.5749664	-10.788086	-1.4052734
1493777313307	0.12155151	-11.531616	-1.157608
1493777313307	0.42382813	-11.787415	-1.6860199
1493777313307	1.8916168	-12.204651	-1.6826324
1493777313307	1.139328	-12.811005	-3.5552063
1493777313307	2.6470947	-13.239578	-2.3551483
1493777313307	2.910553	-14.913818	-2.8500977
1493777313307	2.8077393	-14.828445	-3.3385315
1493777313307	0.30223083	-13.419617	0.3203888
1493777313308	-2.9321136	-12.560608	1.8363495
1493777313308	-5.0888977	-13.993408	5.54718
1493777313308	-4.3514557	-14.7435	4.1372833
1493777313308	-4.693344	-16.156464	-0.15332031
1493777313308	0.24987793	-14.081375	-3.3227081
1493777313308	4.540802	-13.321518	-1.4372711
1493777313308	3.6977081	-10.687256	1.4767761
1493777313308	0.46128845	-7.4924774	2.3994598
1493777313308	-1.5101013	-5.889923	3.9354706
1493777313308	-3.014679	-5.213852	3.4700317
1493777313308	-2.9221802	-4.763214	2.7312012
1493777313308	-3.0476532	-4.260132	1.6753387
1493777313308	-2.7920532	-3.9333801	1.9274292
1493777313308	-2.6567383	-3.0238342	2.7298126
1493777313308	-2.0633392	-2.2734985	2.8525848
1493777313308	-0.3879547	-2.4195557	2.0006714
1493777313308	0.8753662	-4.522934	-0.18928528
1493777313308	0.26139832	-10.443619	-7.023178
1493777313308	-2.041626	-17.28218	-14.131729
1493777313308	-0.565567	-19.474823	-13.839203
1493777313308	1.0536041	-16.060013	-9.704147
1493777313308	0.14085388	-8.800964	-3.7584229
1493777313308	-1.0205841	-4.888794	-2.7979126
1493777313308	-3.9331665	-9.316849	-5.711319
1493777313308	-4.03096	-16.748611	-2.5323029
1493777313308	2.4462433	-16.860535	2.0556946
1493777313308	3.234497	-10.839203	3.1235352
1493777313308	-3.3699493	-2.6862793	3.8183289
1493777313308	-4.3856354	-1.1285553	5.769882
1493777313308	0.7259979	-7.7081146	6.9895325
1493777313308	3.9677887	-13.343246	4.0373383
1493777313308	3.9965515	-13.877884	2.6828613
1493777313308	3.5330963	-12.2621155	1.5252533
1493777313308	1.7188721	-10.529816	-0.20292664
1493777313308	0.04067993	-8.9748535	0.3952179
1493777313308	-0.30038452	-8.74855	1.3806763
1493777313308	-0.92811584	-8.737427	0.48332214
1493777313308	-0.63253784	-8.764557	-0.14459229
1493777313308	-0.37445068	-8.981445	1.1844177
1493777313308	0.47172546	-9.080704	0.9362335
1493777313308	1.7052307	-9.054001	0.99365234
1493777313309	2.0870209	-9.524689	0.72257996
1493777313309	1.8014221	-10.114731	0.16352844
1493777313309	1.9055328	-9.878128	-1.7068634
1493777313309	2.391037	-9.718796	-2.9360046
1493777313309	2.5211945	-10.6944275	-0.8533783
1493777313309	0.175354	-11.466568	0.100128174
1493777313309	-0.5729828	-11.50589	-0.8940582
1493777313309	2.3755188	-11.395935	-0.5212097
1493777313309	2.8050385	-11.9162445	-1.6469727
1493777313309	1.562149	-13.438446	-3.5487823
1493777313309	3.296402	-14.548752	-2.3495178
1493777313309	2.510788	-15.476746	-3.2118073
1493777313309	-0.8654938	-13.981705	-2.8269958
1493777313309	-3.7309113	-12.194626	-0.041107178
1493777313309	-3.4170532	-11.853973	5.702835
1493777313309	-4.749115	-14.740723	5.976425
1493777313309	-3.5897522	-15.4561	2.3122253
1493777313309	-0.5544586	-15.771317	-3.0570831
1493777313309	5.8016357	-13.173706	-2.0821686
1493777313309	3.539154	-11.188187	0.6247711
1493777313309	1.1812439	-10.002121	1.6165924
1493777313309	-1.1638641	-8.247498	2.8740845
1493777313309	-2.2917938	-7.1050262	3.291214
1493777313309	-2.7705536	-6.271454	2.478653
1493777313309	-2.209259	-5.749008	1.9360046
1493777313309	-2.5443726	-5.091095	1.1042633
1493777313309	-2.4562073	-3.688675	1.8114471
1493777313309	-2.7591095	-2.2766418	2.789032
1493777313309	-2.249817	-1.5150452	3.0634613
1493777313309	-1.3173676	-1.3084869	2.0177765
1493777313309	-0.35099792	-3.364029	-0.5351105
1493777313309	0.042282104	-9.566025	-9.370544
1493777313309	0.76597595	-16.904663	-16.951004
1493777313309	1.8823395	-19.474823	-13.488129
1493777313309	0.904953	-15.734833	-10.017288
1493777313309	-0.82606506	-6.980957	-4.7335052
1493777313309	-3.250595	-5.664673	-5.542633
1493777313309	-4.9848633	-13.533066	-4.3111267
1493777313309	0.15136719	-15.226166	7.0502625
1493777313309	0.58869934	-9.866898	6.048126
1493777313309	-3.073059	-4.564972	0.82147217
1493777313310	-1.3027649	-4.2950897	6.2747498
1493777313310	1.6440582	-10.019821	6.1043854
1493777313310	3.0787659	-12.440552	2.4828491
1493777313310	3.5457458	-11.321655	2.698349
1493777313310	2.8831787	-11.120117	2.3793945
1493777313310	2.0240479	-11.365585	0.46961975
1493777313310	-0.5782776	-9.767471	-0.21731567
1493777313310	-1.3593903	-9.006088	0.8496399
1493777313310	-0.5286865	-9.419052	0.4169922
1493777313310	0.10362244	-8.869797	0.013015747
1493777313310	0.8915863	-8.670197	-0.20767212
1493777313310	0.54626465	-8.928726	0.29829407
1493777313310	0.6631317	-8.6666565	0.3978424
1493777313310	1.5742188	-8.898392	1.0612335
1493777313310	1.8229523	-9.919418	0.6703491
1493777313310	1.9543457	-10.395004	-0.66734314
1493777313310	2.629486	-9.916977	-1.8241119
1493777313310	2.3407135	-10.507675	-2.0628662
1493777313310	0.6127014	-11.374954	-0.43919373
1493777313310	-0.34861755	-11.55368	-1.0637817
1493777313310	1.7882538	-11.420471	-0.7267456
1493777313310	3.039917	-11.561737	-0.29164124
1493777313310	1.285675	-12.483154	-2.5151978
1493777313310	2.8567963	-13.204086	-2.1193542
1493777313310	4.52182	-14.38942	-0.86476135
1493777313310	2.0712585	-15.337479	-3.34375
1493777313310	-0.1285553	-13.191772	-0.9034271
1493777313310	-3.8006134	-11.792603	1.3684845
1493777313310	-4.9457397	-11.833588	5.3038025
1493777313310	-4.4592896	-14.139618	5.2040253
1493777313310	-3.3921967	-14.734802	-0.47383118
1493777313310	-2.1385803	-15.583054	-2.1242065
1493777313310	4.592743	-13.143356	1.0456848
1493777313310	3.1750336	-12.078751	0.80888367
1493777313310	2.2148132	-10.029861	1.9075928
1493777313310	-0.08670044	-7.272827	2.3993835
1493777313310	-1.8434448	-5.871994	3.296646
1493777313310	-2.7257843	-5.3534393	2.595749
1493777313310	-2.6688232	-4.7894897	2.0484161
1493777313310	-2.7745667	-4.1757813	1.4877319
1493777313310	-2.341446	-3.156479	2.0151215
1493777313311	-2.304779	-2.0397491	2.4315643
1493777313311	-1.8700104	-1.5500793	2.266983
1493777313311	-0.80326843	-2.848343	1.2658081
1493777313311	0.69924927	-6.8460693	-2.8425903
1493777313311	0.66929626	-13.777481	-11.533722
1493777313311	0.7654724	-19.210785	-17.21901
1493777313311	2.0913239	-17.73053	-12.216736
1493777313311	1.2301025	-12.385498	-6.8547363
1493777313311	0.65483093	-6.617111	-4.492859
1493777313311	-2.4843597	-7.569168	-3.7482758
1493777313311	-5.2884827	-14.777756	-1.7895508
1493777313311	-3.4077148	-17.715668	2.206787
1493777313311	-1.2621918	-12.983139	0.5296936
1493777313311	-1.9140778	-5.1013184	1.7009277
1493777313311	-3.5353699	-0.08590698	6.3450165
1493777313311	-0.6322937	-3.988556	5.4446106
1493777313311	4.8325806	-11.124817	4.618286
1493777313311	6.5054016	-13.967377	3.1010895
1493777313311	4.3356476	-13.255554	1.9633942
1493777313311	2.5025177	-11.293945	1.0863495
1493777313311	0.4571228	-9.959854	0.40011597
1493777313311	-1.601471	-8.784592	0.7354126
1493777313311	-1.9315338	-8.838867	1.1585236
1493777313311	-1.1627655	-9.477356	0.5367584
1493777313311	-0.013442993	-9.510605	0.59176636
1493777313311	0.4058838	-9.07341	1.1955872
1493777313311	0.7914276	-8.557022	1.0400391
1493777313311	1.1997375	-8.212784	3.0453186
1493777313311	2.0528107	-8.96254	0.6089325
1493777313311	1.8862152	-9.891602	-0.35533142
1493777313311	1.5623169	-9.972778	-1.754776
1493777313311	1.7036285	-9.897308	-2.517517
1493777313311	1.7550964	-10.574356	-1.1822815
1493777313311	0.86935425	-11.443832	-0.12991333
1493777313311	0.37324524	-11.642929	-1.0490112
1493777313311	1.763855	-11.788528	-0.9404602
1493777313311	1.5885773	-11.9808655	-1.8323212
1493777313311	1.8367004	-12.813339	-3.039444
1493777313311	3.7413788	-15.288345	-1.3928223
1493777313311	2.7603912	-15.7612915	-2.199585
1493777313311	0.087265015	-13.473297	-2.0840607
1493777313311	-2.500183	-12.28891	1.0235138
1493777313312	-4.030182	-11.665085	4.699646
1493777313312	-4.195648	-13.75502	5.0175476
1493777313312	-3.9766235	-15.246628	0.5547333
1493777313312	-1.8351898	-16.145493	-1.659195
1493777313312	4.0533752	-13.642563	1.2173615
1493777313312	4.3838043	-12.730148	0.59373474
1493777313312	2.370987	-9.767532	2.0891724
1493777313312	0.13775635	-7.2930603	2.8582764
1493777313312	-1.6452637	-5.8860474	3.985733
1493777313312	-2.64682	-5.4275208	2.857376
1493777313312	-2.162445	-5.088028	2.142746
1493777313312	-1.5445557	-4.4400177	1.3913422
1493777313312	-1.3636322	-3.7568054	2.071457
1493777313312	-2.0932922	-2.4097137	2.9740143
1493777313312	-1.7265015	-1.6045074	2.829361
1493777313312	-0.57359314	-2.156662	1.4369049
1493777313312	0.16044617	-4.9973297	-1.4371948
1493777313312	-1.0540314	-11.2789	-8.958847
1493777313312	-1.876236	-17.740372	-16.75882
1493777313312	1.7117767	-19.474823	-14.869766
1493777313312	2.5408173	-15.351929	-7.8996124
1493777313312	0.7368164	-6.898468	-3.32547
1493777313312	-2.4015045	-6.5240326	-3.4946594
1493777313312	-4.664734	-12.843842	-1.2952423
1493777313312	-0.0965271	-13.693298	2.2726593
1493777313312	0.7854767	-9.585297	1.0938263
1493777313312	-2.3886871	-4.5427856	3.5947418
1493777313312	-3.171112	-4.5462036	6.2884827
1493777313312	0.10139465	-9.664734	4.211487
1493777313312	3.5144348	-11.680862	3.5995483
1493777313312	3.914917	-11.218018	3.7073212
1493777313312	2.9430847	-10.415878	2.222351
1493777313312	2.5047455	-10.973892	1.2636871
1493777313312	-0.40800476	-9.934814	1.7997284
1493777313312	-1.7806854	-9.4131775	1.5476837
1493777313312	-1.5141602	-9.784271	0.6138611
1493777313312	-0.9924927	-9.668106	0.43162537
1493777313312	-0.25401306	-9.256821	0.62861633
1493777313312	0.5483856	-9.035522	0.9090271
1493777313312	1.3608398	-9.126236	0.15925598
1493777313312	2.0714722	-9.372787	0.5443268
1493777313313	2.2245026	-9.171143	0.5823822
1493777313313	1.5366058	-9.44429	0.1880188
1493777313313	0.45928955	-9.56749	-0.7149811
1493777313313	0.608551	-9.904404	-1.8820953
1493777313313	1.075531	-11.007095	-1.097702
1493777313313	0.9699707	-11.329071	-0.37548828
1493777313313	1.5408783	-11.419281	-0.92601013
1493777313313	2.2315216	-11.743103	-0.52944946
1493777313313	1.190094	-11.910278	-2.2053375
1493777313313	2.041977	-13.573364	-2.828186
1493777313313	3.155014	-16.36444	-1.5868378
1493777313313	1.0933533	-16.089508	-3.7350159
1493777313313	-2.4300842	-13.164261	0.13166809
1493777313313	-4.520294	-11.765289	2.0039673
1493777313313	-4.3671417	-13.118973	5.700363
1493777313313	-3.0384521	-14.172348	3.0498962
1493777313313	-0.8401184	-15.294464	-1.031662
1493777313313	0.51911926	-15.039703	-3.2469025
1493777313313	6.3123627	-13.223007	0.6161804
1493777313313	2.59906	-10.519943	2.6615143
1493777313313	-1.2085724	-8.087814	2.4186401
1493777313313	-1.3401947	-6.39563	3.5655518
1493777313313	-1.9275818	-5.476883	3.2199402
1493777313313	-1.9903107	-4.5921936	2.4740448
1493777313313	-1.8447571	-3.77005	2.081131
1493777313313	-1.4859467	-3.3497314	2.0074005
1493777313313	-2.0246887	-2.7018585	2.6763916
1493777313313	-2.260498	-1.9785767	2.9115906
1493777313313	-1.259079	-2.1131287	2.125351
1493777313313	-0.40290833	-4.0143127	0.10298157
1493777313313	-0.046905518	-10.200516	-8.057129
1493777313313	-0.50694275	-17.470444	-15.573685
1493777313313	0.18083191	-19.474823	-13.185074
1493777313313	-0.49171448	-15.191376	-8.711166
1493777313313	-1.8904572	-7.0182495	-3.5614624
1493777313313	-4.3732147	-7.205475	-3.5738678
1493777313313	-6.35231	-14.292862	-5.190613
1493777313313	-1.5312805	-17.22081	-1.4859161
1493777313313	2.2770386	-11.179657	1.7130585
1493777313313	-0.7116394	-3.6858063	4.812134
1493777313313	-2.3513947	-1.1470795	6.086731
1493777313314	0.48963928	-6.583496	4.950775
1493777313314	4.1945953	-12.213959	4.5455017
1493777313314	4.841461	-13.485596	3.0354004
1493777313314	4.147751	-12.210495	2.1328735
1493777313314	2.7832794	-10.341217	1.1907806
1493777313314	0.8818817	-9.3376465	1.0583496
1493777313314	-1.3431549	-8.817505	1.2170868
1493777313314	-1.3547211	-9.113892	0.68136597
1493777313314	-1.0364532	-10.011902	1.0184174
1493777313314	-0.601593	-9.637085	1.0269165
1493777313314	0.22930908	-8.689285	0.37698364
1493777313314	0.69592285	-8.921402	1.0316772
1493777313314	1.3433533	-9.330338	0.044265747
1493777313314	1.9710236	-9.18718	0.31884766
1493777313314	1.8953552	-9.258469	0.5576172
1493777313314	0.88790894	-9.818863	-0.2544098
1493777313314	0.5528717	-9.972977	-1.7473602
1493777313314	1.2267456	-10.082626	-2.3541412
1493777313314	1.0568085	-10.746475	-0.89875793
1493777313314	0.9125366	-11.082703	-0.57914734
1493777313314	2.5084686	-11.5486145	-0.27104187
1493777313314	2.6904297	-11.886749	-1.0911713
1493777313314	1.167572	-13.029251	-3.720337
1493777313314	2.2050018	-14.87027	-1.7538757
1493777313314	2.6070404	-16.53482	-2.3227234
1493777313314	0.5338898	-14.307144	-2.572113
1493777313314	-2.253418	-12.351074	2.029602
1493777313314	-3.676941	-11.727554	4.1581726
1493777313314	-4.0672607	-13.57428	5.115402
1493777313314	-3.6727295	-14.961182	1.2028656
1493777313314	-2.8448334	-15.948593	-0.8320465
1493777313314	-0.5830841	-14.088074	1.0705109
1493777313314	3.185608	-13.624313	0.85549927
1493777313314	3.5397797	-10.812424	2.1718597
1493777313314	0.2596283	-8.029404	2.3828583
1493777313314	-1.7536011	-5.9823	3.8479004
1493777313314	-2.1354675	-5.1045074	3.2630005
1493777313314	-2.3163147	-4.550293	2.350647
1493777313314	-2.0473175	-3.9163055	1.7507172
1493777313314	-1.9046631	-3.4093628	2.3378143
1493777313314	-2.1289825	-2.4762115	3.1454315
1493777313315	-1.7962189	-1.5939789	3.1326447
1493777313315	-0.631073	-2.0954437	1.9851074
1493777313315	0.44795227	-4.627075	-0.46272278
1493777313315	0.010070801	-10.489258	-8.273041
1493777313315	-1.1602325	-17.34285	-17.491318
1493777313315	1.7884369	-19.474823	-16.414642
1493777313315	2.838272	-16.056854	-8.513763
1493777313315	0.75427246	-7.2590637	-3.1148071
1493777313315	-1.0721893	-2.5000916	-4.176117
1493777313315	-5.4140778	-8.071777	-4.2640533
1493777313315	-4.8094635	-13.746368	2.8062592
1493777313315	-0.8808441	-13.855545	-0.2574463
1493777313315	0.06854248	-10.522827	1.1587524
1493777313315	-1.2263184	-6.0787964	7.060959
1493777313315	-1.0098572	-6.3626556	4.0639954
1493777313315	1.9385529	-8.513031	2.7461243
1493777313315	5.1004944	-10.107666	3.6870422
1493777313315	5.4967957	-11.694168	2.973877
1493777313315	3.234375	-12.021423	1.4307404
1493777313315	1.8608551	-11.568085	0.769516
1493777313315	-1.2079926	-9.900421	0.59606934
1493777313315	-2.3322144	-8.761658	0.7906647
1493777313315	-1.8177643	-9.043335	0.85232544
1493777313315	-1.0462341	-9.0850525	0.44961548
1493777313315	0.03894043	-8.822632	0.5210266
1493777313315	0.94052124	-8.792145	-0.13363647
1493777313315	1.4444885	-8.24353	1.0886078
1493777313315	2.4030151	-8.673706	1.5808258
1493777313315	2.5416107	-9.654327	1.1995087
1493777313315	2.1650696	-10.155716	0.30389404
1493777313315	1.4259491	-10.016296	-1.8995972
1493777313315	0.7903595	-10.0312805	-2.4999084
1493777313315	0.27807617	-10.513855	-1.7842407
1493777313315	0.4264679	-11.386017	-0.5484619
1493777313315	1.4823456	-11.505676	0.5828552
1493777313315	1.2011261	-11.926239	-0.30003357
1493777313315	-0.19871521	-12.551956	-2.4129944
1493777313315	1.4993896	-12.882248	-3.2048798
1493777313315	4.4648285	-13.608582	-0.9599762
1493777313315	3.310257	-15.418472	-2.5974884
1493777313315	-0.07489014	-13.9496155	-2.7651062
1493777313316	-2.988678	-12.278244	1.039154
1493777313316	-4.642914	-11.458496	3.9311523
1493777313316	-4.853607	-13.562653	5.3726044
1493777313316	-4.122925	-15.201218	1.1891174
1493777313316	-2.2572021	-15.759659	-1.1842194
1493777313316	1.3226318	-14.075195	-1.3883972
1493777313316	4.0751495	-13.009323	0.16616821
1493777313316	3.051361	-10.754639	2.5776062
1493777313316	0.67549133	-8.844299	2.392395
1493777313316	-1.0661621	-7.2097473	3.2817993
1493777313316	-1.7845612	-6.198639	2.960846
1493777313316	-1.8033447	-5.2638245	2.4338531
1493777313316	-1.5179291	-4.282257	1.8487701
1493777313316	-1.3201904	-3.4615784	2.061737
1493777313316	-1.908493	-2.2745514	2.6968231
1493777313316	-2.1470184	-1.0784454	2.8652496
1493777313316	-1.0068665	-1.1182556	1.9356232
1493777313316	0.36573792	-3.5146942	-0.21774292
1493777313316	0.10899353	-8.638657	-5.772171
1493777313316	-0.9856262	-15.837524	-14.7421875
1493777313316	1.1820221	-19.474823	-18.704254
1493777313316	2.3713074	-15.909225	-11.254791
1493777313316	0.80252075	-7.0535126	-2.8760223
1493777313316	-1.8797607	-3.3793488	-2.1634674
1493777313316	-5.132416	-10.254288	-2.7355194
1493777313316	-0.87875366	-15.977554	1.3874359
1493777313317	-0.29345703	-13.265747	-1.3692627
1493777313317	-2.0879211	-5.880417	2.972931
1493777313317	-2.6235504	-2.4046478	7.702423
1493777313317	-0.17021179	-8.372467	5.2125244
1493777313317	3.57695	-12.842392	4.2969513
1493777313317	4.979248	-13.143295	4.0119324
1493777313317	4.2100525	-12.425507	2.6802673
1493777313317	2.299286	-11.440887	1.3883209
1493777313317	-0.067993164	-10.424454	0.79019165
1493777313317	-2.2219696	-9.254364	0.5993805
1493777313317	-2.464508	-9.50856	0.8597412
1493777313317	-1.683548	-9.6445465	0.14302063
1493777313317	-0.40704346	-8.781708	0.15338135
1493777313317	0.20248413	-8.099045	-0.42617798
1493777313317	0.7859192	-7.793213	-0.010665894
1493777313317	1.8070374	-8.248932	0.520874
1493777313317	2.1245575	-9.306931	1.0084381
1493777313317	2.4125366	-10.090668	0.39978027
1493777313317	3.1496887	-9.600937	-0.38796997
1493777313317	2.2556	-9.24588	-1.3748322
1493777313317	0.38694763	-9.626923	-1.4992371
1493777313317	-1.493988	-10.805115	-0.90037537
1493777313317	0.324234	-11.0542755	-0.2762146
1493777313317	2.196167	-11.7139435	-0.6878967
1493777313317	2.1822205	-12.401749	-2.1679535
1493777313317	2.034607	-13.394989	-2.703598
1493777313317	3.5830994	-13.553772	-1.1342621
1493777313317	3.117813	-15.256805	-2.044983
1493777313317	-0.20388794	-14.334	-3.452179
1493777313317	-3.6184235	-12.730194	-0.7027893
1493777313317	-5.21434	-11.839249	1.7154846
1493777313317	-5.962494	-14.567215	5.909027
1493777313317	-4.8224487	-15.07634	3.9447937
1493777313317	-1.5306091	-14.971313	0.2931671
1493777313317	3.0555725	-13.86615	-1.0969543
1493777313317	4.01033	-11.786499	-0.547287
1493777313317	3.8219604	-10.720062	0.39157104
1493777313317	-0.06867981	-8.131165	2.1770935
1493777313317	-1.1035614	-6.6116943	3.8313293
1493777313317	-2.0168762	-5.8419647	3.920044
1493777313317	-2.2938538	-4.994766	3.3558502
1493777313318	-2.3430634	-4.521042	2.77771
1493777313318	-1.9113617	-4.11055	1.8064575
1493777313318	-2.0450592	-3.2926178	2.1378632
1493777313318	-2.3575745	-2.6027527	2.5094604
1493777313318	-1.6180267	-2.5381317	2.1926727
1493777313318	-0.5745697	-4.544647	0.4280243
1493777313318	0.34623718	-9.379929	-4.677582
1493777313318	-1.0819244	-15.887192	-13.639908
1493777313318	-0.71881104	-19.474823	-17.476883
1493777313318	1.6578674	-15.995422	-10.647507
1493777313318	0.92878723	-7.1750183	-3.486847
1493777313318	-1.0187836	-1.0111542	-1.9936829
1493777313318	-4.5825806	-7.170868	-3.3201447
1493777313318	-3.997406	-16.559113	-1.4442291
1493777313318	1.8164063	-18.12085	0.7141571
1493777313318	1.9632416	-8.862015	7.3981476
1493777313318	-5.646515	-2.7991943	5.3551636
1493777313318	-4.1520233	-5.944916	4.209854
1493777313318	3.3361511	-10.516724	5.329178
1493777313318	6.1705933	-12.685226	3.397934
1493777313318	4.4129333	-12.503815	1.6909485
1493777313318	2.2595062	-11.737198	0.54045105
1493777313318	0.41737366	-10.416718	0.012039185
1493777313318	-1.6998901	-8.771866	-0.8507538
1493777313318	-2.052887	-8.290054	-0.24841309
1493777313318	-0.55218506	-8.793503	0.19294739
1493777313318	1.0052795	-9.155624	0.20838928
1493777313318	0.8231354	-9.122116	-0.5275421
1493777313318	1.0411072	-8.9036255	-0.48199463
1493777313318	1.0408325	-8.898056	1.7352295
1493777313318	2.1536713	-8.987106	0.52770996
1493777313318	3.061203	-9.530441	0.80158997
1493777313318	2.8955536	-9.942902	-0.49923706
1493777313318	1.6342926	-9.687454	-2.452362
1493777313318	0.7572479	-10.209808	-2.282837
1493777313318	0.9727936	-11.365326	-0.78312683
1493777313318	1.2124786	-12.094391	-0.010513306
1493777313318	0.58673096	-11.681137	-0.75737
1493777313318	-0.13885498	-10.994263	-2.3998718
1493777313318	0.89126587	-11.291931	-2.0695953
1493777313318	2.9037628	-12.540985	-0.50772095
1493777313319	3.5185394	-13.032379	0.5410919
1493777313319	1.7273254	-12.436508	-0.19177246
1493777313319	-1.7071228	-11.778656	-1.7041931
1493777313319	-3.1756287	-10.092972	2.181015
1493777313319	-3.4762726	-10.017838	2.8103943
1493777313319	-2.5514069	-10.565048	2.2525482
1493777313319	-1.0965881	-12.20163	3.3116608
1493777313319	-1.0196533	-12.843155	2.6158295
1493777313319	-0.5787964	-12.733887	1.1447296
1493777313319	1.236206	-11.324417	0.7578125
1493777313319	2.0876007	-10.375961	0.4041443
1493777313319	1.491333	-9.176529	0.92752075
1493777313319	-0.60305786	-8.497604	1.417511
1493777313319	-1.2964478	-8.724411	1.2082977
1493777313319	-1.6995392	-8.540192	0.69828796
1493777313319	-1.6729584	-8.4832	1.5024109
1493777313319	-0.9934845	-7.2670593	2.5262604
1493777313319	-0.78312683	-6.1452484	2.727234
1493777313319	-1.109436	-5.9823303	1.9400635
1493777313319	-0.7509308	-7.548355	0.8300934
1493777313319	0.09132385	-9.880386	-0.16285706
1493777313319	0.020263672	-11.548523	-0.45167542
1493777313319	-1.7687225	-11.538879	-1.3484802
1493777313319	-3.109375	-10.672012	-2.609497
1493777313319	-2.9216156	-10.806015	-2.600769
1493777313319	-2.060501	-10.757202	-1.2201843
1493777313319	-1.3576355	-10.065765	0.22927856
1493777313319	-1.6848907	-9.385117	0.9528198
1493777313319	-2.613678	-7.923462	1.570282
1493777313319	-3.1629944	-8.045456	2.067459
1493777313319	-2.5782013	-9.50177	3.225296
1493777313319	-0.43927002	-10.044891	3.9602966
1493777313319	0.7915802	-10.911041	2.5247803
1493777313319	0.20503235	-9.728378	0.44358826
1493777313319	1.1036224	-5.192154	-4.203186
1493777313319	-1.1553955	-10.37883	-2.8565063
1493777313319	1.8285217	-13.661453	-0.8740845
1493777313319	1.4243622	-10.472656	1.5221405
1493777313319	0.78312683	-8.923447	2.4726563
1493777313319	1.1049652	-10.256546	1.6668243
1493777313319	1.124527	-10.657364	1.9515228
1493777313319	-0.8313904	-7.692749	-0.27694702
1493777313320	-4.7469635	-10.840332	-0.5061493
1493777313320	-0.42970276	-13.735275	0.444458
1493777313320	2.6323853	-14.520187	1.6296997
1493777313320	3.8688202	-14.1909485	3.567047
1493777313320	3.3195038	-13.754486	3.1087036
1493777313320	-1.7053986	-15.207153	4.42601
1493777313320	-2.2798157	-15.100449	0.8588104
1493777313320	-0.44676208	-13.80986	1.3925934
1493777313320	0.2286377	-13.270782	-1.3284912
1493777313320	4.711273	-8.62146	-1.3278809
1493777313320	-7.5577545	-18.91011	0.5970764
1493777313320	2.1764984	-11.245499	7.916626
1493777313320	3.8323822	-6.849594	3.5944672
1493777313320	0.02017212	-11.526306	3.062729
1493777313320	-2.3721466	-10.905991	0.7394409
1493777313320	3.6926422	-7.8737335	-6.8505096
1493777313320	6.036133	-19.474823	16.943573
1493777313320	6.0088806	-18.670654	1.4216919
1493777313320	10.131866	-12.722641	-3.3934326
1493777313320	10.264053	-4.3342743	7.760498
1493777313320	9.077438	-2.1227722	7.0247345
1493777313320	10.17392	-4.375763	6.903061
1493777313320	11.7834015	-6.5949554	7.0888977
1493777313320	9.232742	-7.419342	8.927795
1493777313320	2.9494019	-4.6245117	8.14798
1493777313320	-1.0358887	-2.1302795	5.1678467
1493777313320	-2.9547882	-0.9276428	4.3932037
1493777313320	-5.273361	-1.4595032	5.5665436
1493777313320	-4.3386993	-0.65382385	4.4809723
1493777313320	-1.2732239	0.030715942	4.483536
1493777313320	0.5155487	-4.368973	7.648987
1493777313320	-0.65870667	-13.237534	10.153107
1493777313320	-3.0197754	-13.231247	9.587753
1493777313320	-4.384018	-8.148651	8.945343
1493777313320	-4.677109	-5.0392456	6.472046
1493777313320	-4.492218	-3.0494385	3.8758087
1493777313320	7.765457	7.895691	11.077576
1493777313320	12.368546	7.3097534	7.805374
1493777313320	2.3217773	-1.8244934	4.486084
1493777313320	-0.5209961	0.9776001	8.379318
1493777313320	-2.961441	1.614151	9.309265
1493777313320	-4.7799377	2.0339203	11.751801
1493777313321	0.15065002	2.963974	9.350174
1493777313321	3.2705383	2.5474396	7.5967712
1493777313321	4.0361633	2.3542938	10.16954
1493777313321	1.3121033	2.039856	11.199631
1493777313321	1.1332397	2.56102	8.810745
1493777313321	0.17048645	3.1321716	8.484024
1493777313321	0.35383606	3.4948425	9.020813
1493777313321	0.20780945	3.566208	9.559555
1493777313321	-0.07763672	3.7984924	9.393951
1493777313321	-0.5015106	3.248108	8.422379
1493777313321	0.6366577	2.5913696	8.923996
1493777313321	1.0801239	2.1938782	9.122543
1493777313321	0.9244385	2.042511	9.360855
1493777313321	-0.5358429	2.3998108	8.799698
1493777313321	-0.6615753	2.5591125	8.638306
1493777313321	-0.22723389	2.5782776	9.390198
1493777313321	0.28579712	2.1537933	10.473206
1493777313321	-0.061553955	2.2800903	10.953476
1493777313321	-0.8495636	2.4642487	10.189194
1493777313321	-1.5417175	2.9979706	9.69603
1493777313321	-2.6743622	3.3859558	8.508713
1493777313321	-2.449463	3.564621	8.94603
1493777313321	-1.3450623	2.8888397	10.235916
1493777313321	-1.4957886	2.6151886	10.250488
1493777313321	-3.021637	2.8127594	9.458542
1493777313321	-3.5220184	3.659317	9.110687
1493777313321	-1.9266815	3.2380524	10.224411
1493777313321	-1.3701477	2.6631775	10.0457
1493777313321	-1.7401276	2.7467804	9.700119
1493777313321	-1.1440887	2.6890564	10.397263
1493777313321	-0.47273254	2.6246033	10.348297
1493777313321	-0.18199158	2.2321472	9.312454
1493777313321	-0.21336365	2.4378357	8.613037
1493777313321	-0.025344849	2.2370148	8.519562
1493777313321	0.32339478	2.4424133	8.703049
1493777313321	0.7197571	2.5648499	9.351868
1493777313334	0.86154175	2.2186737	9.582275
1493777313355	1.6208649	2.1266174	9.825638
1493777313374	2.3156586	1.6714172	9.703934
1493777313394	2.9363098	1.2401581	9.448044
1493777313414	2.6479034	1.063446	9.307541
1493777313433	2.2559662	1.4468994	9.1796875
1493777313454	1.1620483	1.4666901	9.228455
1493777313473	0.589386	1.5823059	9.452896
1493777313493	1.5157471	2.0571747	9.715729
1493777313513	1.9392548	2.1669464	9.868835
1493777313532	1.9070892	2.2702026	9.913712
1493777313553	1.5254364	2.176941	9.615341
1493777313572	1.1966705	2.229538	9.1957245
1493777313592	1.1214752	2.2571259	8.97023
1493777313612	0.9378967	2.3429413	9.091812
1493777313632	0.46922302	2.536209	9.372314
1493777313652	0.524704	2.5913544	9.455597
1493777313672	1.0039063	2.4408417	9.839691
1493777313691	1.1597595	2.3493347	9.861588
1493777313711	1.1465302	2.1700592	9.280777
1493777313731	1.3045502	1.9185791	8.855179
1493777313751	1.4365997	1.748703	8.80014
1493777313770	1.6695557	1.6496277	9.221985
1493777313790	1.8159332	1.5897827	9.68959
1493777313810	1.755249	1.6175537	9.74527
1493777313830	1.4316406	2.3032837	14.153366
1493777313851	0.82684326	2.16185	9.741425
1493777313869	0.021377563	2.8231506	8.672287
1493777313889	-0.05432129	2.8312073	9.38623
1493777313909	0.36637878	2.4446716	9.05368
1493777313928	0.50819397	1.5410919	9.156647
1493777313948	0.5649109	2.2183533	10.492538
1493777313968	0.08996582	2.6708221	9.5668335
1493777313987	-1.2888336	2.9957733	9.057938
1493777314008	-0.41583252	3.3376007	10.027435
1493777314028	0.63308716	2.4185028	9.773682
1493777314050	0.9299927	2.253662	9.827744
1493777314067	0.77220154	2.2620544	9.348312
1493777314086	0.6899872	2.3365479	9.230087
1493777314107	0.69940186	2.3812103	9.422211
1493777314146	0.8387451	2.0590515	9.52829
1493777314172	1.5992126	2.1871643	9.702286
1493777314193	1.5825348	1.9185638	10.031113
1493777314207	1.296402	1.695343	9.7217865
1493777314225	0.9513855	2.0082703	9.208603
1493777314245	0.4167633	2.4415588	9.246811
1493777314265	0.44413757	2.5659027	9.472885
1493777314287	0.55752563	2.62352	9.147003
1493777314305	0.36454773	2.4783478	9.234055
1493777314324	0.13720703	2.8506317	9.518814
1493777314344	0.26031494	2.9704132	9.927246
1493777314364	0.4716034	2.733963	9.810089
1493777314383	0.822876	2.5102081	9.721893
1493777314403	0.383667	2.426834	9.652695
1493777314423	-0.018188477	2.7352905	9.248062
1493777314442	-0.052139282	2.7471771	9.04805
1493777314463	-0.011230469	2.6454315	8.853546
1493777314482	0.20555115	2.6366272	8.696579
1493777314502	0.14630127	2.6324768	9.056671
1493777314522	0.2832489	2.5423126	9.387863
1493777314541	0.2581787	2.397766	9.609131
1493777314561	0.162323	2.4830475	9.375809
1493777314581	0.30996704	2.5526886	9.308395
1493777314601	0.5457306	2.509018	9.551468
1493777314621	0.7418976	2.4339142	9.514511
1493777314640	0.72940063	2.6356964	9.312851
1493777314661	0.46173096	2.7965698	9.178436
1493777314683	0.4145813	2.822586	7.512497
1493777314701	0.99516296	3.0164948	6.454666
1493777314721	1.6218567	3.158615	8.960175
1493777314740	1.4961548	3.1335297	11.371704
1493777314760	0.73947144	2.756012	11.521957
1493777314780	0.016815186	2.0945282	10.582199
1493777314800	-0.55648804	1.5191345	9.654358
1493777314819	-0.40454102	1.643631	9.429657
1493777314840	-1.1555634	1.9075928	8.785797
1493777314859	-1.8137665	2.0679626	9.350983
1493777314879	-0.89175415	2.8790588	9.262268
1493777314900	-0.523407	3.0097198	8.6931
1493777314919	-0.6035309	2.995575	9.16568
1493777314938	-0.9443207	2.8770905	9.619614
1493777314958	-1.1750793	2.766098	9.71254
1493777314978	-0.9076538	2.7845306	9.717438
1493777314997	-0.6679535	2.9344025	10.023972
1493777315017	-0.90852356	2.7964172	9.955383
1493777315036	-1.12677	2.7211456	9.542694
1493777315056	-1.2405853	2.820282	9.288315
1493777315076	-1.1336517	2.780426	9.1662445
1493777315096	-1.0561676	2.8169098	8.990097
1493777315116	-0.9694061	2.8708954	9.033905
1493777315136	-1.0262146	2.9606934	9.209091
1493777315155	-1.1585541	2.9455261	9.4730835
1493777315175	-1.2740326	2.9546661	9.323914
1493777315194	-1.1055603	2.8574677	9.196625
1493777315220	-1.1463928	2.8901978	9.293533
1493777315239	-1.2537537	2.9217987	9.399887
1493777315274	-1.1118622	3.0090942	9.394775
1493777315293	-0.91693115	2.9279175	9.287857
1493777315314	-0.93055725	3.051056	9.247925
1493777315334	-1.0709076	3.0996857	9.226837
1493777315352	-1.2196198	3.0188599	9.104446
1493777315373	-1.0918121	3.0196075	9.277008
1493777315393	-1.0463257	3.0767517	9.326233
1493777315414	-1.111084	3.0460052	9.234131
1493777315434	-1.1183167	3.0753174	9.232956
1493777315452	-1.0137024	3.0440521	9.130371
1493777315473	-0.95913696	2.9515076	9.018921
1493777315492	-0.92500305	3.002777	8.985184
1493777315513	-0.89697266	3.0134888	9.28653
1493777315531	-0.93388367	3.0872345	9.480759
1493777315550	-1.0784302	3.0049744	9.485474
1493777315572	-1.0314789	2.989685	9.205902
1493777315590	-1.0878906	3.0006409	9.220703
1493777315610	-1.1025543	3.056839	9.336914
1493777315630	-1.0869904	3.1166382	9.367844
1493777315649	-1.174118	3.1492462	9.312576
1493777315670	-1.155304	3.1616058	9.197144
1493777315689	-1.1284637	3.1268463	8.938568
1493777315709	-1.2915955	3.0931702	8.933121
1493777315729	-1.3544006	3.1478577	9.23616
1493777315748	-1.2195435	3.1706848	9.533112
1493777315769	-1.1252289	3.093567	9.383713
1493777315788	-1.1668549	3.086502	9.058914
1493777315808	-1.2297363	3.1578064	8.941467
1493777315828	-1.2570343	3.1475983	9.037094
1493777315847	-1.2230377	3.1236115	9.238281
1493777315868	-1.2020569	3.1276093	9.283783
1493777315887	-1.2462769	3.0671997	9.190964
1493777315907	-1.2257843	3.101822	9.223648
1493777315927	-1.2081604	3.1723328	9.221176
1493777315947	-1.1791534	3.1044464	9.142273
1493777315968	-1.1671753	3.1288452	9.086807
1493777315986	-1.1477509	3.1680603	9.201782
1493777316006	-1.1470337	3.1236267	9.2352295
1493777316026	-1.1690063	3.078064	9.200012
1493777316045	-1.0721588	3.0434113	9.155563
1493777316066	-0.9855957	3.1072845	9.329941
1493777316085	-0.9959717	3.1805115	9.47731
1493777316106	-1.0340881	3.1390686	9.680817
1493777316125	-1.0503845	3.1351624	9.745361
1493777316144	-1.1490784	3.0499115	9.442581
1493777316164	-1.4215851	3.0394745	9.109146
1493777316184	-1.3955078	3.0832214	8.882843
1493777316204	-1.2087555	3.0655823	9.165512
1493777316224	-1.0787048	3.0688324	9.422058
1493777316243	-1.2011414	3.1102905	9.190018
1493777316263	-1.3081512	3.136673	9.158264
1493777316283	-1.3544159	3.140915	8.962479
1493777316302	-1.2984314	3.229065	9.086197
1493777316323	-1.3434143	3.1742096	9.096085
1493777316342	-1.2629089	3.160263	8.969223
1493777316382	-1.1738281	3.1274261	9.157639
1493777316402	-1.1777191	3.2624207	9.0651245
1493777316422	-1.1412354	3.1579437	8.964722
1493777316441	-1.1549988	3.2019958	9.100082
1493777316461	-1.2043762	3.3246307	9.171371
1493777316481	-1.2010956	3.3854218	9.138504
1493777316500	-1.2037506	3.4016266	9.212784
1493777316521	-1.1460876	3.4156647	9.289719
1493777316540	-1.1759186	3.4451447	9.325562
1493777316560	-1.1333313	3.40419	9.407471
1493777316580	-1.140625	3.4205017	9.336609
1493777316599	-1.1790924	3.3937683	9.13414
1493777316620	-1.2284851	3.314804	9.08992
1493777316639	-1.2345428	3.3212585	9.30896
1493777316658	-1.1532745	3.25914	9.330826
1493777316679	-1.1989441	3.201126	9.369171
1493777316698	-1.2950897	3.2586975	9.410782
1493777316719	-1.3759613	3.257553	9.293106
1493777316738	-1.4238129	3.26326	9.101898
1493777316757	-1.3928375	3.2776947	8.913239
1493777316778	-1.3501129	3.3097534	8.838593
1493777316797	-1.3655853	3.348053	8.8732605
1493777316817	-1.3651276	3.374817	8.972992
1493777316837	-1.3591766	3.3795624	9.074509
1493777316858	-1.4463196	3.4060974	9.006393
1493777316877	-1.4693146	3.3812103	8.936707
1493777316896	-1.3912811	3.4216309	9.0316925
1493777316916	-1.3549194	3.495758	9.236008
1493777316936	-1.4107513	3.5235443	9.265427
1493777316955	-1.3877869	3.54924	9.009003
1493777316976	-1.3864594	3.488556	8.815109
1493777316995	-1.3335419	3.4573364	9.097839
1493777317015	-1.3079224	3.4691772	9.462036
1493777317035	-1.319519	3.4387207	9.422775
1493777317055	-1.3074646	3.4283752	9.220428
1493777317074	-1.2911377	3.4550018	9.036179
1493777317094	-1.2584381	3.4376678	8.886108
1493777317114	-1.2866974	3.4682312	8.866989
1493777317134	-1.2792511	3.4746094	9.008987
1493777317154	-1.2917633	3.4554596	9.064255
1493777317173	-1.2730865	3.4453583	9.012939
1493777317193	-1.180603	3.494629	9.050354
1493777317213	-1.1975098	3.4907532	9.171082
1493777317233	-1.1562042	3.5116882	9.138321
1493777317253	-1.1652222	3.4529572	9.224625
1493777317273	-1.2277069	3.5119324	9.049042
1493777317292	-1.3179321	3.4833832	8.856323
1493777317312	-1.270401	3.509964	8.804123
1493777317332	-1.155716	3.535614	8.915482
1493777317351	-1.165863	3.4814758	8.976349
1493777317372	-1.1496277	3.4592285	9.109146
1493777317391	-1.0772095	3.499466	9.080551
1493777317412	-1.1467438	3.4039307	8.838318
1493777317431	-1.1524963	3.4433289	8.776596
1493777317450	-1.1616669	3.4480896	9.0464325
1493777317471	-1.1949768	3.5189972	9.298965
1493777317509	-1.1680145	3.5598602	9.2087555
1493777317529	-1.0756989	3.5464325	9.056885
1493777317549	-1.1466675	3.5730286	9.100159
1493777317573	-1.1809845	3.592636	9.08226
1493777317589	-1.2462921	3.5475006	9.060913
1493777317609	-1.2017975	3.534439	9.133881
1493777317629	-1.160202	3.4821472	9.074463
1493777317648	-1.2104492	3.5235748	9.134216
1493777317668	-1.2784424	3.5186462	9.204773
1493777317688	-1.2707062	3.4565125	9.254532
1493777317708	-1.1739655	3.5405579	9.214478
1493777317728	-1.106308	3.579071	9.196365
1493777317747	-1.0551453	3.5812225	9.175766
1493777317766	-0.971405	3.590973	9.003693
1493777317787	-0.95248413	3.6054535	8.870071
1493777317806	-0.99328613	3.6369476	8.847244
1493777317826	-1.0173492	3.6581116	8.978714
1493777317846	-1.0955658	3.6110077	9.082443
1493777317865	-1.1248474	3.550003	9.027847
1493777317885	-1.15094	3.5197906	8.952591
1493777317905	-1.1390991	3.5348816	8.988449
1493777317925	-1.0713806	3.5584564	9.146469
1493777317945	-1.072525	3.5457458	9.18837
1493777317966	-1.1226959	3.532425	9.172607
1493777317985	-1.1290436	3.537506	9.151016
1493777318004	-1.1133728	3.5485992	9.038025
1493777318024	-1.0900879	3.572754	9.021545
1493777318044	-1.0429688	3.565918	9.081772
1493777318063	-0.999527	3.5716248	9.184998
1493777318084	-0.9871826	3.5179138	9.111389
1493777318103	-0.99713135	3.498932	8.926346
1493777318123	-1.0734406	3.5025024	8.898361
1493777318143	-1.1247864	3.5271912	9.0768585
1493777318162	-1.1089325	3.5385895	9.255127
1493777318182	-1.12883	3.5405579	9.162674
1493777318202	-1.1590881	3.5472717	9.032776
1493777318222	-1.0939484	3.5212402	8.916397
1493777318242	-1.0815582	3.4978943	8.95697
1493777318262	-1.1245728	3.5033875	9.1063385
1493777318287	-1.2168427	3.5521545	9.120773
1493777318302	-1.165329	3.5187836	9.106323
1493777318324	-1.0140076	3.4808197	9.162964
1493777318340	-1.049118	3.4908447	9.189209
1493777318360	-1.0470734	3.598877	9.146378
1493777318380	-1.0923615	3.5152893	9.109283
1493777318400	-1.1362152	3.5102234	9.0993805
1493777318419	-1.1636658	3.5501556	9.131821
1493777318440	-1.0739136	3.5779266	8.899612
1493777318459	-1.076294	3.5081635	8.825211
1493777318479	-1.0317078	3.4533691	9.06514
1493777318499	-1.1002808	3.424179	9.324661
1493777318520	-1.0235748	3.3833923	9.309677
1493777318538	-1.1204681	3.394928	9.118195
1493777318558	-1.1816559	3.5205383	9.101135
1493777318580	-1.1151428	3.456131	9.211426
1493777318617	-1.1316528	3.4745178	9.174606
1493777318637	-1.2411346	3.50383	9.15419
1493777318657	-1.1623077	3.4418945	9.084869
1493777318677	-1.1195374	3.5186005	9.042084
1493777318697	-1.1717834	3.5402222	9.0186
1493777318716	-1.2618713	3.5302734	9.062103
1493777318736	-1.2816925	3.5160065	9.087585
1493777318756	-1.2612915	3.4943237	9.004028
1493777318776	-1.1926422	3.4850311	8.895355
1493777318796	-1.2341309	3.4238434	8.733841
1493777318815	-1.4573212	3.5539398	8.668533
1493777318835	-1.3501129	3.6464539	9.38501
1493777318855	-1.1961365	3.523178	9.482819
1493777318874	-1.1485596	3.466751	9.334106
