accelerometer_timestamp	accelerometer_x_data	accelerometer_y_data	accelerometer_z_data
1493695351816	-0.10493469	4.801071	9.057526
1493695351816	-0.22621155	4.6555786	8.223404
1493695351817	-0.05859375	4.6905975	8.253281
1493695351817	-0.26081848	4.649338	8.463776
1493695351836	-0.17027283	4.734558	8.5763855
1493695351856	-0.052947998	4.6909027	8.505051
1493695351876	0.15826416	4.734497	8.683807
1493695351895	0.13114929	4.782242	8.701355
1493695351915	-0.079422	4.726349	8.557526
1493695351935	-0.18769836	4.731613	8.525711
1493695351955	-0.044067383	4.837631	8.863449
1493695351974	-0.11643982	4.441925	9.034149
1493695351994	0.072769165	4.6535797	9.007431
1493695352014	0.43862915	4.936722	8.222656
1493695352034	-0.27418518	4.1156616	6.877411
1493695352053	0.38215637	4.605789	7.65036
1493695352073	-0.012893677	4.4812317	8.080124
1493695352093	-0.0021972656	4.378006	9.264725
1493695352113	0.6301422	4.1797028	9.689743
1493695352133	-0.23442078	4.0104675	9.956665
1493695352152	0.13453674	3.9652405	8.5824585
1493695352192	0.69577026	3.5147095	7.1563416
1493695352212	0.9021759	3.4938202	7.7287292
1493695352231	0.71798706	3.4213562	8.727402
1493695352252	0.7585144	3.6243744	9.708542
1493695352271	-0.10595703	3.6159363	10.414673
1493695352291	-0.15116882	3.9432983	10.1631775
1493695352311	-0.53671265	4.0501404	8.810928
1493695352330	-1.1402893	4.409851	8.263412
1493695352350	-1.435318	4.6473083	8.509796
1493695352370	0.11071777	4.06369	8.805145
1493695352390	0.21862793	3.9314575	9.143448
1493695352409	-0.16555786	3.8978577	9.606598
1493695352429	-0.15805054	3.8075867	9.693802
1493695352449	-0.21072388	3.7752533	9.42955
1493695352469	-0.08834839	3.6166382	9.002518
1493695352489	0.041885376	3.4937134	9.096924
1493695352508	0.19311523	3.531952	9.0905
1493695352528	0.18170166	3.4151917	9.151489
1493695352548	-0.101486206	3.4735413	9.204086
1493695352568	-0.19180298	3.448288	9.115326
1493695352587	0.06385803	3.4854584	8.998993
1493695352607	0.33857727	3.4211884	9.118835
1493695352627	0.25042725	3.4680176	9.233871
1493695352647	0.14770508	3.4055023	9.229904
1493695352666	-0.01889038	3.426773	9.217087
1493695352686	-0.06782532	3.4857788	9.099976
1493695352706	0.07281494	3.4771423	8.971649
1493695352726	0.07077026	3.556427	9.316681
1493695352745	-0.07839966	3.631775	9.829697
1493695352765	-0.11871338	3.5876923	10.059631
1493695352785	-0.017120361	3.5607758	9.328171
1493695352805	-0.018112183	3.3631134	8.91478
1493695352825	0.2390747	3.2234344	9.751144
1493695352844	0.6585083	3.2331848	10.573044
1493695352864	0.08477783	3.261322	10.249817
1493695352884	0.36686707	3.3646393	8.730545
1493695352904	0.5126343	3.4220428	7.0618744
1493695352923	0.2250061	3.701538	7.578827
1493695352943	-0.3477173	3.881607	7.748703
1493695352963	-0.99894714	3.9415588	7.8367157
1493695352983	-0.20837402	3.8147125	9.074097
1493695353003	-0.4530487	4.2855835	10.337082
1493695353022	-0.4850769	4.383957	9.844284
1493695353042	-0.5445862	4.0732574	7.816559
1493695353062	-1.0185242	4.109787	7.9536743
1493695353082	-1.0090942	4.6118164	8.671814
1493695353101	-0.97998047	4.8211517	8.631821
1493695353121	-1.1621857	4.7697296	8.274139
1493695353141	0.09237671	4.39328	8.670486
1493695353170	-0.7295532	4.1197968	8.150513
1493695353239	-0.6373596	3.6919556	7.8834076
1493695353239	0.24815369	3.8928223	8.010239
1493695353239	0.8845062	3.4191895	9.309967
1493695353240	0.35264587	2.8067017	9.127914
1493695353279	0.05947876	2.8685303	9.161163
1493695353299	0.61302185	2.6192627	7.7934265
1493695353319	-0.09173584	2.741394	8.44931
1493695353339	-4.0288544	1.7994537	10.222
1493695353359	-4.8317413	7.0227356	8.727722
1493695353378	0.8663635	3.0932922	8.512695
1493695353398	-0.9608154	1.741745	4.0863037
1493695353418	0.13243103	4.163391	8.176651
1493695353438	-0.9725189	4.883026	13.102661
1493695353458	-1.5937042	0.4267273	7.266266
1493695353477	1.314621	0.40316772	3.375946
1493695353497	-0.9117584	-0.030960083	5.0156403
1493695353517	-0.45159912	0.024337769	4.5274963
1493695353537	1.0358887	0.66108704	10.238983
1493695353556	0.59402466	-0.4651184	8.1813965
1493695353576	-0.44769287	-1.4490356	9.368927
1493695353596	0.50764465	-1.742569	5.6936493
1493695353616	3.4812012	-1.275177	3.5156555
1493695353636	4.829605	-1.9879761	4.9762573
1493695353655	2.227951	-3.2900848	6.4552
1493695353675	3.8487854	-3.9842682	7.7482758
1493695353695	5.6801605	-7.1934814	9.165939
1493695353714	11.990021	-5.0339355	8.865067
1493695353734	12.154434	-4.102173	9.479034
1493695353754	6.6972504	-8.373856	9.904144
1493695353774	4.971405	-11.952576	8.267334
1493695353793	9.437576	-12.096191	2.7730408
1493695353813	13.92131	-12.192078	0.20846558
1493695353833	16.848816	-11.921951	3.593048
1493695353853	17.40889	-11.889664	7.169525
1493695353873	18.076202	-9.693146	6.7241974
1493695353892	19.461044	-3.2627869	4.042221
1493695353912	19.461044	2.415268	2.3627472
1493695353932	19.461044	4.0431213	1.2008514
1493695353955	19.461044	3.8609161	-1.3014679
1493695353972	17.657349	3.1191711	-3.997055
1493695353992	15.862808	1.6986084	-3.7810974
1493695354012	-0.98747253	-7.7389374	-10.707062
1493695354031	-2.816162	-11.222748	-3.1157532
1493695354051	3.0591278	-5.449402	3.9664001
1493695354071	8.604965	-0.8442993	1.725235
1493695354090	13.10791	3.4083862	-1.4581146
1493695354110	14.077301	0.2434082	1.7993164
1493695354130	12.156342	-4.933365	10.08223
1493695354149	2.8946075	-15.120621	12.002777
1493695354170	3.7352753	-8.523087	2.6095123
1493695354189	11.970474	-2.9375763	-4.7538757
1493695354209	13.439301	-4.634369	-6.640854
1493695354229	9.900345	-6.154373	3.8651428
1493695354248	13.365662	-6.320938	2.4017944
1493695354268	12.570084	-10.387772	0.5368042
1493695354288	7.2049713	-10.268936	2.8950806
1493695354308	8.931381	-8.696228	9.044067
1493695354328	8.676468	-7.2988586	1.1041718
1493695354367	9.306763	-7.9592743	-1.9843292
1493695354387	5.385391	-6.6666565	-3.4782715
1493695354407	5.0608826	-7.81073	-3.2057037
1493695354426	3.559372	-6.328964	-2.7755585
1493695354446	1.4579315	-7.1637115	0.53344727
1493695354466	3.8863373	-5.28154	-1.0832825
1493695354486	7.192215	-2.700821	-2.850998
1493695354505	9.552109	-1.2539978	-0.6941376
1493695354525	14.955307	1.314682	-0.25154114
1493695354545	4.945282	-4.799408	-1.1133881
1493695354565	4.12912	-5.5350037	-1.1565704
1493695354585	3.4889374	-5.728592	-1.6838379
1493695354604	3.7883606	-4.935959	-2.1457672
1493695354624	3.8045654	-5.725662	-1.8447113
1493695354644	3.8239746	-6.5492554	-2.3246765
1493695354664	4.152939	-6.8833923	-3.0834808
1493695354683	4.3688507	-6.570862	-3.2667847
1493695354703	5.998581	-6.5765533	-3.6039429
1493695354723	7.197632	-8.203812	-3.7949219
1493695354743	9.951202	-8.761688	-7.1500244
1493695354763	10.900635	-9.948639	-6.683502
1493695354782	7.79393	-9.660385	-4.305603
1493695354802	3.8459778	-8.471741	-4.702942
1493695354822	3.9624481	-9.437042	-6.2854614
1493695354842	2.0109863	-9.532425	-4.74794
1493695354861	1.410202	-9.054535	1.3317413
1493695354881	1.2601624	-6.523163	3.3637848
1493695354901	2.244339	-2.3989563	-3.7508392
1493695354921	0.59957886	0.69729614	-3.1087036
1493695354940	-4.545227	-7.1859283	4.5899963
1493695354960	-1.8002319	-11.968063	3.5046844
1493695354980	-0.305542	-13.324158	1.7207336
1493695355000	-2.929779	-16.56459	0.63661194
1493695355020	-1.0669098	-15.865829	2.5501251
1493695367293	2.6734314	-17.430374	3.2376099
1493695367293	7.2265778	-12.652298	-0.34187317
1493695367293	5.9720154	-8.80719	-1.048523
1493695367293	2.436966	-8.40332	0.14102173
1493695367293	-0.66922	-9.793045	0.021972656
1493695367293	-0.6875	-9.388062	-0.54759216
1493695367293	1.4334869	-7.0554657	0.3217163
1493695367293	2.0431213	-6.5377045	1.6325073
1493695367293	-0.27696228	-8.133881	3.5113678
1493695367293	-2.1867523	-9.6698	4.939331
1493695367293	-1.7962189	-9.311859	2.9915924
1493695367293	-0.66741943	-10.877136	2.1126862
1493695367294	0.073394775	-13.691559	0.075424194
1493695367294	3.756958	-15.37561	0.2422638
1493695367294	1.5579529	-15.533127	-10.115173
1493695367294	0.37882996	-14.303818	-2.0977478
1493695367294	-1.671936	-12.110916	2.9470367
1493695367294	4.064041	-7.5508423	-1.3635712
1493695367294	2.4911194	-10.368637	-3.8978271
1493695367294	4.3118286	-13.075531	-1.9218903
1493695367294	5.7622223	-13.701569	-0.5585022
1493695367294	3.4451294	-13.120056	-0.44810486
1493695367294	-0.0814209	-12.842407	-2.0575104
1493695367294	-5.2941437	-12.6775055	1.1694336
1493695367294	-7.059387	-12.236389	1.0719757
1493695367294	-6.2610474	-12.695221	5.2634583
1493695367294	-5.4834137	-14.182297	2.0059967
1493695367294	-6.804123	-14.95195	2.5207367
1493695367294	-5.380783	-15.017136	-2.3807678
1493695367294	0.69381714	-11.85849	-1.3557739
1493695367294	2.1965942	-10.829819	0.29859924
1493695367294	9.398544	-8.159088	4.200165
1493695367294	-0.83924866	-7.999893	1.8474731
1493695367294	-3.0155334	-5.7046967	0.5310669
1493695367294	-3.9695435	-4.6032715	2.0138092
1493695367294	-3.7579803	-3.9651337	1.259018
1493695367294	-2.8195496	-3.8041382	1.0767212
1493695367294	-2.617035	-3.8636475	1.526947
1493695367294	-2.4194336	-2.392334	1.8127289
1493695367294	-2.0666351	-1.0364532	1.2741394
1493695367294	-1.2470093	-1.3577728	0.6442566
1493695367294	-0.6229248	-4.128006	-2.3508759
1493695367294	0.45646667	-11.2425995	-10.840103
1493695367294	0.6725464	-18.438553	-19.190353
1493695367294	0.029083252	-18.85173	-15.509888
1493695367294	0.50138855	-13.685074	-7.5288086
1493695367294	0.106155396	-5.683838	-2.843216
1493695367294	-3.0070648	-5.298065	-2.4491577
1493695367295	-8.213638	-11.62532	-1.0468292
1493695367295	-9.299637	-14.815048	3.2634125
1493695367295	-5.3711853	-11.61348	-0.8989868
1493695367295	-2.4292145	-7.539566	-1.7978363
1493695367295	-2.0759277	-6.012848	4.1928406
1493695367295	-2.103485	-6.5876617	5.0012054
1493695367295	-2.1124115	-7.764557	3.9550323
1493695367295	-1.4004669	-8.826019	3.403534
1493695367295	0.20443726	-9.705933	3.4529572
1493695367295	0.819397	-12.83667	2.147644
1493695367295	3.0833435	-15.169189	1.3765564
1493695367295	2.7720337	-12.445343	-1.2483063
1493695367295	0.4415741	-9.214569	-2.8166046
1493695367295	-1.2890625	-8.116806	-1.7736816
1493695367295	-1.5185852	-7.205124	-0.31758118
1493695367295	-1.2490845	-6.9628296	1.5995178
1493695367295	-1.0989075	-8.1707	1.5277405
1493695367295	-0.6100311	-9.226807	1.6060486
1493695367295	-0.20124817	-9.712585	3.552719
1493695367295	-0.15333557	-10.264267	1.0265808
1493695367295	-0.6996765	-10.5469055	-2.4418335
1493695367295	-1.1711426	-11.512726	-6.357376
1493695367295	-1.5410919	-11.744003	-3.5693512
1493695367295	-0.67025757	-11.5646515	-0.08476257
1493695367295	0.08079529	-11.416122	1.411911
1493695367295	1.8546295	-11.847519	-1.236969
1493695367295	2.9634247	-12.750809	-1.4539948
1493695367295	1.5319366	-12.587418	-3.6800842
1493695367295	0.89852905	-13.608261	-5.6907043
1493695367295	1.7841339	-14.929794	-2.9089813
1493695367295	0.57444763	-14.489288	-3.0052948
1493695367295	-1.9542847	-12.418884	0.1002655
1493695367295	-3.419693	-12.39267	2.370407
1493695367295	-4.6416626	-12.245789	3.8786926
1493695367297	-5.5269775	-12.876923	3.2948914
1493695367297	-7.2901917	-15.080856	3.3099976
1493695367297	-4.741165	-15.659149	-0.58291626
1493695367297	-0.0010986328	-13.388489	-2.546112
1493695367297	4.621872	-11.140732	-1.491394
1493695367297	4.3238373	-10.777298	-0.67271423
1493695367297	-0.81481934	-7.894226	2.8626862
1493695367297	-3.490158	-4.8699036	2.4053192
1493695367297	-4.0032196	-3.8389893	2.489746
1493695367297	-3.5416565	-3.7245026	2.1600494
1493695367297	-3.3540497	-4.260391	1.4775543
1493695367297	-3.7303925	-4.115631	1.2274933
1493695367297	-4.057373	-2.5616608	1.7087097
1493695367297	-3.7432861	-1.204483	2.1225586
1493695367297	-2.7539368	-0.9146576	1.855896
1493695367297	-1.2242279	-3.2632904	-0.058654785
1493695367297	0.75502014	-10.982346	-8.969025
1493695367297	2.5470734	-18.359589	-18.768341
1493695367297	2.4299164	-19.474823	-15.83551
1493695367297	0.024093628	-14.115753	-8.070236
1493695367297	-0.6605072	-5.0275574	-3.1390076
1493695367297	-1.951294	-2.6757507	-2.6993103
1493695367297	-5.24942	-7.7839966	-0.88272095
1493695367297	-6.2695465	-13.157867	6.140869
1493695367297	-4.295883	-15.926025	-3.5656128
1493695367297	-2.8319397	-12.788605	-5.058792
1493695367297	-3.8261414	-6.18486	3.8027954
1493695367297	-3.0690765	-4.2229004	4.530548
1493695367298	-2.8114777	-6.155075	4.734085
1493695367298	-3.3609924	-8.490524	3.3755646
1493695367298	-1.6508484	-9.780228	3.1743774
1493695367298	-1.2919617	-11.9787445	3.6990814
1493695367298	1.4216614	-13.22139	2.4988708
1493695367298	4.0976257	-13.258453	3.768036
1493695367298	3.3520203	-11.053741	-3.3175964
1493695367298	0.63887024	-9.56131	-4.912735
1493695367298	-1.790741	-8.8719635	-1.8415375
1493695367298	-2.138153	-7.502365	0.29325867
1493695367298	-1.253128	-6.809494	2.5117188
1493695367298	-0.14399719	-7.539139	2.8845978
1493695367298	-0.2716217	-8.861801	2.7387543
1493695367298	-0.55892944	-10.115402	1.1107788
1493695367298	-0.18661499	-11.205475	-1.2849121
1493695367298	0.5465698	-11.736069	-4.1691437
1493695367298	0.35960388	-12.217117	-6.048126
1493695367298	0.043167114	-11.473709	-3.733261
1493695367298	1.267334	-10.6749115	0.84439087
1493695367298	2.2699432	-11.621368	-0.20988464
1493695367298	2.9030762	-12.998016	-4.636505
1493695367298	2.297287	-14.555817	-4.2637177
1493695367298	1.687439	-14.084579	-2.6848907
1493695367298	-0.64790344	-15.321518	-3.8094482
1493695367298	-2.5212402	-13.879303	-4.789139
1493695367298	-4.900879	-13.323685	3.5457764
1493695367298	-3.3621368	-12.5698395	6.2956696
1493695367298	-4.860611	-12.313522	5.998169
1493695367298	-7.659195	-13.610519	3.568283
1493695367298	-5.4360046	-15.228989	-4.023773
1493695367298	-2.5967102	-14.784195	-4.0979156
1493695367298	1.0768738	-11.73024	1.5439606
1493695367299	5.696747	-8.986984	2.0026398
1493695367299	-0.34161377	-7.460663	2.3061523
1493695367299	-2.6858978	-4.837799	1.7695007
1493695367299	-3.2591095	-3.8793945	1.4234924
1493695367299	-3.0546265	-3.8341675	1.3205566
1493695367299	-3.4833527	-4.043976	1.2362976
1493695367299	-3.598877	-3.5371552	1.6114807
1493695367299	-3.348114	-2.5634918	2.301178
1493695367299	-2.8418732	-1.5513458	2.4887085
1493695367299	-2.0166168	-1.3567352	1.942276
1493695367299	-0.82870483	-4.0052643	-0.5415344
1493695367299	-0.1594696	-12.050598	-10.2052765
1493695367299	-0.5602875	-18.920074	-19.05423
1493695367299	-0.1878357	-19.474823	-15.149261
1493695367299	-0.241745	-13.363785	-5.763443
1493695367299	-1.3664703	-3.7953033	-1.2666321
1493695367299	-4.8332367	-2.5291443	-1.3162994
1493695367299	-8.559677	-7.066696	2.9714508
1493695367299	-8.342773	-11.031433	6.479141
1493695367299	-2.848648	-13.8398285	-4.0330353
1493695367299	-0.17814636	-11.473724	-2.66716
1493695367299	-1.3059235	-7.4890594	5.1587067
1493695367299	-2.986908	-7.975113	5.4931335
1493695367299	-2.8558502	-9.233292	3.2988281
1493695367299	-1.6100769	-10.027924	1.9322815
1493695367299	2.3687744	-11.960175	1.1739044
1493695367299	5.4993896	-14.083771	1.3158875
1493695367299	4.3581696	-11.789841	-1.519928
1493695367299	0.786911	-8.927521	-1.8181458
1493695367299	-3.0161896	-8.414825	-0.9918518
1493695367299	-4.0680695	-7.8748016	-0.078948975
1493695367299	-3.531189	-7.6453857	0.76249695
1493695367299	-2.0279846	-7.662262	1.4614716
1493695367299	-1.2710876	-7.6034546	0.94389343
1493695367299	-0.3862915	-8.010727	3.7132263
1493695367299	-0.260849	-9.177872	1.3220062
1493695367300	-1.2576904	-10.432617	-0.12771606
1493695367300	-0.49649048	-11.804825	-2.6511536
1493695367300	1.080719	-12.471634	-4.830597
1493695367301	2.5832062	-12.01445	-4.4613037
1493695367301	0.74838257	-11.680634	-0.29908752
1493695367301	0.5654907	-11.5456085	0.35069275
1493695367301	1.5112915	-11.907867	-0.95088196
1493695367301	0.9130707	-13.187988	-4.6187286
1493695367301	-0.32144165	-14.781296	-4.749298
1493695367301	0.8367615	-16.299393	-1.9241943
1493695367301	0.42590332	-14.401276	-1.0436859
1493695367301	-1.4683075	-11.924683	-0.14590454
1493695367301	-3.2466278	-11.161148	3.2401733
1493695367301	-3.720581	-10.747894	4.6777344
1493695367301	-6.7808685	-12.927292	2.203003
1493695367301	-7.05336	-15.762329	-0.6165314
1493695367301	-4.526474	-15.817078	-2.316742
1493695367301	0.5157623	-12.3875885	0.44506836
1493695367301	5.913376	-10.757736	2.543686
1493695367301	3.6194458	-10.66954	0.6967621
1493695367301	-1.885315	-6.884369	1.9757385
1493695367301	-3.8998566	-4.320465	2.3313599
1493695367301	-3.9904022	-3.6371765	2.6473236
1493695367301	-3.9692688	-3.7837524	2.6210327
1493695367301	-4.048126	-4.290924	1.9689331
1493695367301	-3.8219757	-3.833603	1.5783691
1493695367301	-3.4079895	-2.0939941	1.9681702
1493695367301	-3.0520935	-0.66503906	2.324768
1493695367301	-2.2489014	-1.770752	1.1211548
1493695367301	-0.45033264	-6.3875885	-2.9633179
1493695367301	1.0037994	-14.538055	-12.525482
1493695367301	0.65371704	-19.474823	-19.722397
1493695367301	0.86553955	-17.42871	-12.129196
1493695367301	0.29127502	-9.578735	-3.088272
1493695367301	-2.6804657	-4.1139526	-0.6080475
1493695367301	-5.7881317	-9.083267	0.6399994
1493695367301	-5.9595184	-12.77623	5.253311
1493695367301	-3.0647125	-11.040482	-2.1101837
1493695367301	-3.0457153	-8.519119	-3.3819427
1493695367301	-3.7256165	-5.991211	3.8488312
1493695367301	-2.896637	-5.841614	6.004074
1493695367301	-2.9621735	-8.118027	5.087433
1493695367301	-2.3285217	-9.950699	3.504486
1493695367301	-0.17715454	-11.136337	3.9203186
1493695367302	1.7189484	-12.790146	2.8280487
1493695367302	2.2473907	-12.702667	8.0672455
1493695367302	2.7430878	-11.252853	-0.3093872
1493695367302	0.14569092	-9.130432	-8.405029
1493695367302	-2.0868225	-9.077393	-4.9650116
1493695367302	-2.046646	-8.388428	-1.7991333
1493695367302	-1.2302704	-6.9670258	2.1405334
1493695367302	-0.79519653	-7.460022	3.0467682
1493695367302	-0.39213562	-9.078949	4.3283386
1493695367302	-0.41506958	-10.162857	1.7122192
1493695367302	-1.192215	-11.195175	-1.8061218
1493695367302	-1.0921936	-11.672943	-5.0630646
1493695367302	1.2488098	-11.242249	-6.1582336
1493695367302	2.678131	-11.917404	-2.3795166
1493695367302	0.117752075	-12.009064	0.6481781
1493695367302	-0.4510498	-11.884628	1.3963623
1493695367302	1.3838501	-11.267014	-1.1450043
1493695367302	1.2369843	-11.874588	-3.0943756
1493695367302	-0.25346375	-13.3246155	-4.0894012
1493695367302	0.59013367	-15.2365265	-2.7091827
1493695367302	-0.36524963	-15.028076	-2.0893555
1493695367302	-2.796341	-12.665741	0.6813812
1493695367302	-3.1507874	-11.955444	3.3456116
1493695367302	-4.0447845	-11.46933	4.1993713
1493695367302	-6.8944855	-12.626785	1.2275238
1493695367302	-7.38237	-15.000916	-1.0531158
1493695367302	-5.324585	-15.298019	-1.6515503
1493695367302	0.56573486	-12.213394	0.18998718
1493695367302	4.2838287	-10.908951	1.3073273
1493695367302	3.5939636	-10.083603	1.1399841
1493695367302	-1.8441772	-7.133026	1.747879
1493695367302	-3.3176117	-5.2401276	2.304016
1493695367302	-3.6829834	-4.810272	2.0386505
1493695367303	-3.9415588	-4.127777	2.3903198
1493695367303	-4.129822	-3.8361816	2.180313
1493695367303	-3.846527	-3.3815765	2.055542
1493695367303	-3.3739777	-1.6589661	2.160965
1493695367303	-2.5238647	-0.095581055	2.056549
1493695367303	-1.564621	-1.616394	0.43608093
1493695367303	-0.26301575	-7.289612	-6.906601
1493695367303	0.89346313	-15.53302	-16.257706
1493695367303	0.20628357	-19.474823	-19.722397
1493695367303	0.14329529	-15.065308	-12.071121
1493695367303	-0.63845825	-6.5537415	-2.490738
1493695367303	-3.8443298	-5.477478	-0.34455872
1493695367303	-7.0723724	-11.268509	2.4272156
1493695367303	-7.3226013	-12.805389	5.74881
1493695367303	-3.4707031	-11.131622	-3.833603
1493695367303	-2.471283	-7.7749786	-1.2119904
1493695367303	-2.1588287	-4.850891	4.0008087
1493695367303	-1.8153381	-5.472595	6.011322
1493695367303	-3.0892181	-8.713562	5.6062317
1493695367303	-1.2402954	-10.14357	2.4225006
1493695367303	1.8957825	-12.128265	3.8696594
1493695367303	2.6455078	-13.445633	3.1864166
1493695367303	2.9454193	-10.912476	8.471252
1493695367303	2.1097565	-10.742264	-2.1696777
1493695367303	-0.4149475	-9.351135	-7.4179688
1493695367303	-2.791748	-9.713043	-3.0805817
1493695367303	-1.4907684	-8.139862	0.9581299
1493695367303	-1.2301636	-7.1239166	2.9703064
1493695367303	-0.9384918	-7.1565704	4.0969086
1493695367303	-0.94918823	-8.776962	3.4796906
1493695367303	-1.5314941	-10.008133	1.9108734
1493695367303	-2.5456085	-11.400543	0.053115845
1493695367303	-1.434433	-11.358536	-4.6973724
1493695367303	1.1018372	-11.586273	-6.7618713
1493695367303	3.4872894	-12.232452	-2.148758
1493695367303	2.1647644	-11.658066	-0.3756714
1493695367303	0.397995	-11.627579	-0.3838501
1493695367303	1.8199005	-11.889709	-3.3198547
1493695367303	2.3418732	-13.181915	-4.715393
1493695367303	1.2927094	-14.923584	-3.0007172
1493695367303	0.6615143	-16.439255	-1.0758209
1493695367303	-1.6831207	-13.482513	-0.7852173
1493695367303	-3.6719513	-11.562958	2.7587433
1493695367304	-5.50354	-10.896423	3.9559174
1493695367304	-7.221817	-12.062241	3.2764587
1493695367304	-8.870483	-15.504303	2.3644257
1493695367304	-6.229416	-17.118347	-1.0992584
1493695367304	-2.1155853	-14.505096	-1.8549957
1493695367304	4.050949	-11.68219	-0.7876129
1493695367304	8.044769	-10.598312	0.41252136
1493695367304	1.5252991	-8.4118805	2.505783
1493695367304	-2.657074	-5.121109	3.0909882
1493695367304	-4.033081	-3.7913666	3.7669525
1493695367304	-4.3379364	-3.521698	3.3258667
1493695367304	-4.0251617	-3.9232025	2.5078278
1493695367304	-3.5047913	-4.423752	1.7259521
1493695367304	-3.346115	-3.411499	1.8305206
1493695367304	-3.161728	-1.4984894	2.1576233
1493695367304	-2.6214294	-0.888916	1.8332214
1493695367304	-2.1553497	-2.8090515	-0.2632599
1493695367304	-1.3608856	-8.383362	-7.062866
1493695367304	-0.65086365	-15.953369	-15.971527
1493695367304	0.10360718	-19.474823	-18.66742
1493695367304	0.79447937	-15.782455	-10.189804
1493695367304	-0.45462036	-6.8881683	-1.367569
1493695367304	-4.9713745	-4.436722	0.012771606
1493695367304	-9.84668	-10.100327	4.2062836
1493695367304	-10.16803	-11.986481	4.998825
1493695367304	-6.3857574	-11.872284	-3.0258942
1493695367304	-2.6569214	-7.7966614	2.0756073
1493695367304	-1.1931915	-5.6958466	6.544388
1493695367304	-2.0843353	-7.9424744	7.3051147
1493695367304	-1.4597626	-9.776825	4.2280426
1493695367304	0.7077484	-10.182358	2.6141205
1493695367304	2.250702	-12.83165	1.334137
1493695367304	3.8861237	-13.420868	3.1996765
1493695367304	5.12648	-12.101654	0.48698425
1493695367304	2.1271973	-10.158859	-6.953659
1493695367304	-0.83148193	-8.895782	-3.5583801
1493695367304	-1.3784943	-7.8835297	-0.9630585
1493695367304	-2.1834106	-6.9830933	0.46295166
1493695367305	-1.4307861	-7.1855927	2.3864594
1493695367305	-1.4182434	-8.294296	3.5371246
1493695367305	-1.4281006	-8.958984	3.477539
1493695367305	-1.0251007	-9.502884	2.2289734
1493695367305	-1.7314758	-11.230316	-2.2203522
1493695367305	-0.82847595	-12.1996155	-7.046631
1493695367305	0.9705353	-12.424896	-7.088135
1493695367305	0.9342346	-12.3133545	0.6926575
1493695367305	0.6694946	-12.106461	2.273178
1493695367305	1.8813019	-11.368134	-0.33250427
1493695367305	2.0808105	-12.633377	-4.6879883
1493695367305	1.3625183	-14.264404	-4.5908203
1493695367305	0.49891663	-15.097763	-1.9974518
1493695367305	-0.82429504	-14.850235	-1.9576721
1493695367305	-2.665512	-12.400986	-0.8251343
1493695367305	-4.48526	-11.262817	2.3791199
1493695367305	-5.2536774	-11.128113	4.8111267
1493695367305	-6.6500397	-12.427734	2.02211
1493695367305	-7.010681	-15.234512	-0.87828064
1493695367305	-4.4032135	-15.005997	-2.1508331
1493695367305	0.3814392	-12.4077	-0.8162079
1493695367305	4.8017273	-11.312744	0.27388
1493695367305	4.297989	-10.385376	1.5835419
1493695367305	-1.6763153	-7.545059	2.0569153
1493695367305	-4.2128754	-4.6742554	2.473709
1493695367305	-4.6298065	-4.132141	2.405838
1493695367305	-3.9458313	-4.1116486	2.6725922
1493695367305	-3.7020721	-4.735031	1.8308868
1493695367305	-3.4521027	-4.619858	1.4747467
1493695367305	-3.1792755	-2.777359	1.8980255
1493695367305	-2.9586487	-0.81539917	1.9458618
1493695367305	-2.6866913	-0.8209076	1.2878418
1493695367305	-1.6007843	-4.0687256	-1.6591492
1493695367305	-0.24240112	-12.916931	-11.4535675
1493695367305	0.35968018	-19.059464	-19.027832
1493695367305	0.47114563	-19.474823	-15.089645
1493695367306	0.8358154	-12.532913	-7.3769684
1493695367306	-0.4898529	-3.8713531	-2.0013428
1493695367306	-5.258255	-6.8001556	-0.7168579
1493695367306	-7.4521027	-13.367203	3.8204193
1493695367306	-6.174637	-12.708298	3.0037384
1493695367306	-3.2549438	-9.183243	-3.330536
1493695367306	-2.9526215	-5.0097046	1.328125
1493695367306	-2.5442657	-4.3607483	5.567749
1493695367306	-3.9344482	-7.452408	5.7424927
1493695367306	-4.215271	-10.409744	4.319046
1493695367306	-1.202179	-11.274048	4.270462
1493695367306	1.1352844	-12.7634735	4.1240387
1493695367306	2.6008453	-13.225906	3.3012848
1493695367306	2.9895477	-12.138931	7.8931274
1493695367306	3.5876465	-10.318756	-4.1180115
1493695367306	-0.36869812	-9.439346	-5.913925
1493695367306	-3.9217377	-9.774246	-3.1797333
1493695367306	-3.4782867	-8.319977	-1.2977753
1493695367306	-2.0256958	-6.9930115	1.6810303
1493695367306	-1.0762787	-7.743698	2.2918854
1493695367306	-0.043411255	-8.485565	2.6829224
1493695367306	0.19477844	-9.063538	1.7691956
1493695367306	0.1736908	-9.816681	-0.037750244
1493695367306	0.06730652	-11.109848	-2.4247742
1493695367306	1.9860992	-11.490814	-4.7849426
1493695367306	2.103363	-12.074249	-4.498413
1493695367306	-0.44654846	-12.037125	-2.218567
1493695367306	0.36390686	-11.560715	-0.9620819
1493695367306	1.9989929	-12.055496	-0.88623047
1493695367306	2.041977	-14.312363	-4.3651276
1493695367306	2.0440216	-15.340118	-2.320984
1493695367306	0.80784607	-15.851013	-1.823822
1493695367306	-2.0449677	-14.685272	-2.7052002
1493695367306	-4.0707855	-12.494217	0.9563141
1493695367306	-5.3036346	-11.599243	4.981552
1493695367306	-6.5597687	-11.776062	4.944107
1493695367306	-9.277145	-13.777267	1.2198029
1493695367307	-7.3549347	-15.57048	-1.3434906
1493695367307	-4.0619507	-15.142502	-2.6123657
1493695367307	1.5226746	-12.5538025	0.27209473
1493695367307	7.2908936	-11.14592	1.3055267
1493695367307	1.8542175	-9.216141	2.6480713
1493695367307	-2.8026276	-5.739975	2.0664063
1493695367307	-3.6324768	-3.8915863	2.819397
1493695367307	-3.7940063	-3.1325684	3.2593384
1493695367307	-3.4887543	-3.0108185	3.1185303
1493695367307	-3.2344208	-3.4858398	2.2309113
1493695367307	-2.841507	-3.2775116	2.1010437
1493695367307	-2.6734009	-1.4672089	2.5222778
1493695367307	-2.566681	-0.37057495	2.262558
1493695367307	-2.0488434	-2.2887726	0.26281738
1493695367307	0.0309906	-8.139847	-10.592178
1493695367307	-1.4377747	-16.054825	-18.95575
1493695367307	-3.7394257	-19.474823	-17.742218
1493695367307	-1.9947205	-14.998245	-9.82193
1493695367307	-0.9107666	-6.1978607	-4.1009674
1493695367307	-1.8032837	-1.1637115	-4.5328217
1493695367307	-6.284195	-7.6328583	-3.6567688
1493695367307	-5.874359	-12.543259	8.680527
1493695367307	-3.8334808	-13.830582	1.7188568
1493695367307	-3.1592255	-11.779419	-2.3938446
1493695367307	-3.3264923	-7.190857	3.065979
1493695367307	-2.3775635	-5.2733154	5.089615
1493695367307	-3.619339	-7.1930695	5.2358246
1493695367307	-1.9677582	-8.417892	3.801712
1493695367307	-0.953125	-9.6129	3.3640747
1493695367307	-0.56004333	-11.350723	3.302536
1493695367307	1.5601654	-13.777649	1.8629303
1493695367308	3.2631073	-13.944962	6.598877
1493695367308	2.7250671	-11.064621	-3.633484
1493695367308	-0.20936584	-8.837891	-4.3472595
1493695367308	-2.591507	-9.129028	-2.2227936
1493695367308	-2.2747955	-7.4398956	-0.82684326
1493695367308	-1.8842926	-6.7061462	1.1958771
1493695367308	-0.98184204	-7.6941223	2.1504822
1493695367308	-0.28956604	-8.451675	2.7005768
1493695367308	0.20295715	-9.794952	3.9495392
1493695367308	0.024169922	-11.475754	0.7427368
1493695367308	0.475235	-11.80397	-3.5618286
1493695367308	2.021881	-12.129883	-9.208328
1493695367308	2.277893	-12.659515	-4.0061646
1493695367308	0.077301025	-12.324829	1.6390686
1493695367308	0.063308716	-11.351074	1.4555359
1493695367308	0.39778137	-11.465286	-3.0878906
1493695367308	-0.32418823	-12.326263	-5.058716
1493695367308	-0.4907074	-13.554092	-5.0980377
1493695367308	0.8118744	-13.516495	-1.0509644
1493695367308	-0.43328857	-14.244446	-2.7922363
1493695367308	-1.803421	-13.434372	-0.46794128
1493695367308	-2.3142242	-12.5720825	5.8073273
1493695367308	-3.3143005	-11.989609	5.7404785
1493695367308	-6.737091	-13.473648	1.8770447
1493695367308	-8.729874	-16.40268	-3.8556366
1493695367308	-6.2725525	-16.010696	-0.40364075
1493695367308	-1.5926514	-12.881073	0.5303955
1493695367308	3.241211	-11.09169	0.6802368
1493695367308	3.500412	-10.037888	1.2693176
1493695367308	-0.5752106	-7.1474304	2.1522827
1493695367308	-2.2688293	-5.0058746	2.5169678
1493695367308	-2.7107086	-3.7242584	2.7589417
1493695367308	-3.5131073	-3.4617004	2.7120056
1493695367308	-4.2578735	-3.626709	2.1773987
1493695367309	-4.1282196	-3.0684052	2.1309204
1493695367309	-3.729599	-1.3075714	2.7282257
1493695367309	-2.8825989	-0.2667694	2.622284
1493695367309	-1.6845245	-1.3663025	1.149704
1493695367309	-0.47509766	-5.6831055	-5.120178
1493695367309	0.31796265	-14.837845	-15.302582
1493695367309	-1.8551941	-19.474823	-19.722397
1493695367309	-1.3009949	-18.299423	-12.205505
1493695367309	-0.7572632	-10.222519	-4.07341
1493695367309	-1.5383606	-1.5302429	-1.912796
1493695367309	-6.8970337	-5.0052185	-1.8952332
1493695367309	-9.338348	-10.988174	5.967499
1493695367309	-5.7855835	-13.585083	3.788086
1493695367309	-1.7936554	-15.416092	-2.5332336
1493695367309	-1.613739	-9.211884	3.3624268
1493695367309	-1.7227325	-5.612793	6.1197205
1493695367309	-3.8832397	-7.595398	4.951248
1493695367309	-2.5509796	-7.9114532	4.231613
1493695367309	-0.71702576	-8.764145	2.7772064
1493695367309	-1.3830109	-11.248932	2.4873352
1493695367309	1.5625763	-12.5142975	2.0599518
1493695367309	1.8053741	-12.542709	3.6829987
1493695367309	1.4501953	-11.291138	-4.6432495
1493695367309	0.11418152	-9.309937	-3.9411469
1493695367309	-3.1558075	-9.595612	-0.7030487
1493695367309	-3.9536285	-8.130814	-0.94311523
1493695367309	-2.2480164	-7.2192993	0.44345093
1493695367309	-0.9269562	-8.099777	1.3987427
1493695367309	-0.66703796	-8.620438	1.427124
1493695367309	-1.0113525	-8.97818	2.3823395
1493695367309	-1.1279907	-10.224869	1.47258
1493695367309	0.42939758	-10.518463	-1.7598877
1493695367310	1.5937347	-11.071075	-4.1348877
1493695367310	2.2476654	-12.736374	-3.9684448
1493695367310	1.347702	-12.155548	-2.7018585
1493695367310	0.56614685	-11.593979	-1.8531952
1493695367310	2.480896	-11.659958	-0.18766785
1493695367310	2.1309052	-12.80278	-1.0815125
1493695367310	0.08482361	-13.499374	-4.523514
1493695367310	-0.060836792	-13.54837	-3.2031097
1493695367310	-0.3751068	-14.562302	-2.2442322
1493695367310	-2.088913	-13.0842285	-1.392807
1493695367310	-4.297409	-11.781097	2.0825958
1493695367310	-5.173126	-11.307541	4.8331757
1493695367310	-7.655548	-12.630768	5.153473
1493695367310	-8.493668	-14.630814	0.92666626
1493695367310	-5.8314667	-15.908554	-2.7769165
1493695367310	-2.1434631	-13.699631	-1.6180115
1493695367311	4.8328705	-11.32164	-1.3937836
1493695367311	7.1295776	-11.082291	-0.3163147
1493695367311	0.39823914	-8.824936	2.0496063
1493695367311	-3.2083435	-5.540619	2.1999664
1493695367311	-4.391083	-4.008774	3.5953827
1493695367311	-4.5995026	-3.7483368	3.6545715
1493695367311	-3.9947205	-4.369507	2.7330322
1493695367311	-3.704132	-4.5733185	1.9643555
1493695367311	-3.5543365	-3.5720825	1.8190765
1493695367311	-2.9286804	-1.5887299	2.3581543
1493695367311	-2.1526337	-0.6896057	2.4646301
1493695367311	-1.4051666	-2.188034	0.30659485
1493695367311	-0.23216248	-6.9866943	-5.6703186
1493695367311	-0.9875946	-15.766678	-15.620361
1493695367311	-3.4664917	-19.474823	-19.722397
1493695367311	-2.5841522	-17.734482	-12.511856
1493695367311	-1.2796631	-9.295731	-4.322769
1493695367311	-3.741394	-3.985382	-0.8011017
1493695367311	-7.475876	-9.884872	-0.68885803
1493695367311	-4.743393	-14.718369	0.51119995
1493695367311	-2.3273163	-11.586594	1.8735046
1493695367311	-1.937973	-5.9758453	0.36343384
1493695367312	-4.6318817	-4.4635315	0.8971405
1493695367312	-3.9189758	-5.9150543	5.509384
1493695367312	-4.464493	-8.564301	6.3758698
1493695367312	-3.0551605	-10.591629	3.2127533
1493695367312	0.008850098	-10.96196	2.3308716
1493695367312	3.428421	-12.174454	6.3888397
1493695367312	4.3440247	-11.255157	4.9730377
1493695367312	3.3524933	-11.453522	5.06015
1493695367312	1.7604218	-12.214355	-8.421936
1493695367312	-2.392746	-10.648071	-9.197678
1493695367312	-3.710144	-10.460205	-3.0359497
1493695367312	-2.8134308	-8.969666	-1.4232025
1493695367312	-1.0307617	-7.1081085	2.7515717
1493695367312	-0.7307739	-6.916519	3.443756
1493695367312	-0.32307434	-7.532028	3.0987701
1493695367312	-1.2036438	-9.03952	2.1979675
1493695367312	-1.4742432	-10.261353	0.77485657
1493695367312	-0.36875916	-10.427734	-2.1800842
1493695367314	0.60543823	-11.452942	-5.348526
1493695367314	0.4162445	-11.982971	-6.019943
1493695367314	0.24160767	-11.29277	-1.3504486
1493695367314	2.067627	-11.194687	1.1967773
1493695367314	1.6123352	-11.671204	-2.8297424
1493695367314	0.71777344	-12.639282	-6.0997314
1493695367314	1.1127014	-14.582382	-3.9906006
1493695367314	1.1629944	-15.334686	-1.4264221
1493695367314	-1.9905396	-14.026382	-0.79060364
1493695367314	-5.134506	-12.917816	0.36741638
1493695367315	-6.531372	-13.118469	2.8059998
1493695367315	-7.974106	-13.680679	4.009918
1493695367315	-8.702835	-15.545395	2.6200714
1493695367315	-5.5733337	-16.327087	0.28907776
1493695367315	-0.78323364	-13.937744	-1.9723816
1493695367315	3.7884216	-11.8428955	-1.6162415
1493695367315	5.2919464	-10.969284	0.76400757
1493695367315	0.38076782	-8.331909	2.4045868
1493695367315	-3.0565338	-5.5961456	2.8213348
1493695367321	-4.324875	-4.352707	3.60141
1493695367344	-4.7522125	-3.5483398	3.2772217
1493695367361	-4.4700623	-3.2709656	2.2928925
1493695367382	-3.38237	-3.3941193	1.8162994
1493695367400	-2.8871613	-3.0318909	2.1947632
1493695367420	-2.853775	-1.7651978	2.3815765
1493695367440	-2.5065613	-1.1614685	2.2179413
1493695367459	-1.9386902	-2.3976898	0.6997986
1493695367480	-0.9788666	-6.878433	-5.285568
1493695367499	-0.32102966	-15.946732	-15.820908
1493695367519	-2.619339	-19.474823	-19.722397
1493695367539	-1.5752411	-17.609268	-9.950455
1493695367560	-1.2122192	-7.7299805	-3.4693756
1493695367578	-2.551712	0.30271912	-1.8310547
1493695367598	-7.9199677	-5.302994	1.1810913
1493695367618	-8.271805	-10.537415	11.097076
1493695367638	-4.5256042	-14.723648	-6.2000885
1493695367657	-2.1924896	-13.220932	-1.5933075
1493695367677	-1.6484375	-6.653549	5.234085
1493695367697	-1.6923523	-6.131241	5.917694
1493695367717	-3.3845062	-9.42334	6.062912
1493695367736	-2.1736908	-10.549973	4.4680023
1493695367756	-0.9954529	-10.733444	1.4214783
1493695367777	1.8753662	-11.726059	2.5093994
1493695367797	6.451538	-14.863083	-0.4794159
1493695367816	2.799881	-11.372635	-2.4217072
1493695367835	-0.8542633	-9.64827	-0.9433899
1493695367875	-3.6694489	-8.473373	-1.1846619
1493695367895	-3.9731903	-7.8961334	-2.691864
1493695367913	-2.694687	-7.557144	-1.1455994
1493695367934	-0.3984375	-7.8500366	0.25790405
1493695367954	0.37606812	-8.464401	1.4799042
1493695367974	0.12062073	-8.852188	1.9660645
1493695367994	-0.62416077	-9.432419	1.5540161
1493695368013	0.0018310547	-9.997589	-0.36914063
1493695368033	1.0284271	-10.294006	-1.9116211
1493695368053	1.5429993	-10.860977	-3.3703918
1493695368073	0.89501953	-12.322571	-2.3707275
1493695368092	-0.0962677	-12.192108	-1.6258087
1493695368113	0.73828125	-11.933807	-1.3602905
1493695368132	2.282425	-11.998459	-1.1564636
1493695368152	1.3827667	-12.314575	-1.9392395
1493695368172	-1.6791534	-12.909271	-5.656494
1493695368191	-1.5439911	-14.105835	-5.06662
1493695368210	0.35585022	-14.094879	-2.5991058
1493695368231	-1.3149567	-12.792465	-1.5418396
1493695368251	-3.353012	-12.072662	1.7535706
1493695368270	-4.131851	-11.617615	5.5892334
1493695368290	-5.0827637	-11.341629	5.9058228
1493695368310	-6.990814	-14.243134	0.85772705
1493695465303	-5.7282715	-17.092834	-2.8552094
1493695465303	-0.4334259	-14.735504	-0.52334595
1493695465304	4.9924774	-13.147522	-0.83084106
1493695465304	4.397583	-11.385666	0.171875
1493695465304	-0.63648987	-7.3972473	2.9792175
1493695465304	-4.0841064	-4.7155	2.7747345
1493695465304	-4.5800476	-3.447754	3.0167694
1493695465304	-4.0197754	-3.2221222	2.9964142
1493695465304	-3.5769653	-4.02829	1.920044
1493695465305	-3.7321472	-4.474869	1.306778
1493695465305	-3.7772827	-2.8891907	1.8091278
1493695465305	-3.3344574	-1.0056305	2.0769958
1493695465305	-2.8188782	-0.96147156	1.4945221
1493695465305	-1.9122772	-3.6342773	-0.8731537
1493695465305	-0.6556854	-10.261398	-9.094147
1493695465306	0.19369507	-17.417358	-16.923859
1493695465306	-0.3005371	-19.474823	-17.029404
1493695465306	-0.49557495	-14.5767975	-8.900421
1493695465306	-1.2246552	-5.683975	-3.4919586
1493695465306	-3.6146698	-2.1642761	-2.1695862
1493695465306	-7.9129944	-10.998505	-2.4067535
1493695465307	-4.524826	-15.563919	4.8503265
1493695465307	-2.841629	-12.709595	2.050354
1493695465307	-1.7907104	-6.4802246	0.29919434
1493695465307	-2.6567688	-4.3509064	3.262848
1493695465307	-4.524399	-7.0908813	5.824127
1493695465307	-5.236725	-9.915039	5.9651947
1493695465308	-4.7556458	-12.009918	1.8013
1493695465308	-0.723053	-10.854645	3.482666
1493695465308	2.8286896	-11.698853	5.042633
1493695465308	3.2408142	-11.55397	5.440811
1493695465308	3.652481	-11.715378	4.618576
1493695465308	0.40800476	-10.354614	-5.9392242
1493695465308	-3.6366882	-9.933197	-7.077484
1493695465309	-5.6453247	-10.218979	-3.8002777
1493695465309	-2.6473694	-8.638855	0.5849457
1493695465309	-0.84628296	-7.4109497	1.9878845
1493695465309	-0.18682861	-7.717499	0.8483124
1493695465309	-0.14193726	-8.131805	1.6445618
1493695465309	-0.35884094	-9.250961	2.611145
1493695465310	-0.42707825	-10.230835	1.1193695
1493695465310	0.010681152	-10.712402	-2.0180817
1493695465310	0.649292	-11.468399	-5.7700653
1493695465310	0.46432495	-11.75148	-5.361496
1493695465310	0.70144653	-11.36969	-1.3777313
1493695465310	2.7968292	-11.258987	1.7878113
1493695465310	2.6525269	-12.397354	-0.6650543
1493695465311	1.3286133	-14.043854	-4.0138397
1493695465311	1.0692291	-14.571533	-2.7859344
1493695465311	-0.24783325	-15.116608	-0.6105499
1493695465311	-2.8333588	-13.976166	-1.2229309
1493695465311	-5.874359	-12.411484	0.77664185
1493695465311	-6.788376	-11.550812	4.1466217
1493695465311	-8.1175995	-11.591919	4.396927
1493695465312	-8.06189	-12.186493	2.747284
1493695465312	-6.1487885	-13.946915	-2.1045685
1493695465312	-2.749878	-13.979507	-3.0028687
1493695465312	2.791687	-12.037216	0.22633362
1493695465312	4.84639	-11.76796	1.6181335
1493695465312	0.73568726	-10.147858	1.633606
1493695465312	-3.7142792	-7.0164337	1.9721832
1493695465313	-4.583954	-4.958374	2.554718
1493695465417	-4.194107	-3.904251	2.8174286
1493695465417	-3.7533112	-3.7662354	2.1826172
1493695465417	-3.116272	-4.37558	1.1445923
1493695465417	-2.5093842	-4.007248	1.3764954
1493695465417	-2.3086395	-2.0668793	2.162445
1493695465417	-2.1072693	-0.5493927	2.2186432
1493695465417	-1.4814606	-1.4604034	0.8943939
1493695465417	-0.7272339	-5.9524994	-3.2909088
1493695465417	-1.4947662	-15.959061	-15.286316
1493695465417	-2.494812	-19.474823	-19.722397
1493695465417	-0.99671936	-19.474823	-11.68248
1493695465417	-0.405365	-9.635605	-4.972824
1493695465417	-1.1291656	-0.06340027	-1.088089
1493695465417	-7.782074	-6.2343445	-1.0014954
1493695465417	-9.110718	-14.279007	5.449875
1493695465417	-7.1171417	-13.876205	-0.41404724
1493695465417	-1.9289856	-9.68222	-2.0047455
1493695465418	-2.699585	-4.8228455	5.0299225
1493695465418	-2.4436035	-5.4872437	5.545044
1493695465418	-4.5864563	-8.636108	5.6688843
1493695465418	-3.781784	-10.803818	4.018173
1493695465418	-2.9384918	-11.996155	3.4576874
1493695465418	2.4844055	-11.083725	6.369034
1493695465418	2.7989502	-13.351486	4.54364
1493695465418	3.793396	-13.717987	9.324463
1493695465418	2.9178314	-11.22995	-8.494995
1493695465418	-2.1961212	-10.19931	-4.9178925
1493695465418	-4.6216125	-9.705994	-2.0249481
1493695465418	-3.6613617	-7.6938324	0.35624695
1493695465418	-2.235672	-6.7381744	0.38056946
1493695465418	-0.7628784	-7.5098267	1.1186371
1493695465418	0.36927795	-8.064194	0.59851074
1493695465418	1.1647034	-8.579086	1.2519226
1493695465418	0.49476624	-10.046585	0.4373932
1493695465418	0.4233551	-10.841263	-1.4964294
1493695465418	1.1363525	-11.230209	-4.2148438
1493695465418	0.95606995	-12.348221	-4.617279
1493695465418	-0.46463013	-12.276413	-2.3392792
1493695465418	0.78466797	-11.574036	0.17353821
1493695465418	2.8880157	-11.995392	0.48014832
1493695465418	1.3978119	-12.91037	-3.8826447
1493695465418	-1.1581879	-13.360336	-5.584778
1493695465418	-1.2936249	-14.394318	-3.5126648
1493695465418	-0.85990906	-14.617538	-2.8602448
1493695465418	-1.2471466	-12.5490265	-1.3333435
1493695465418	-2.7793121	-11.854263	2.5933838
1493695465418	-4.605362	-12.648178	4.410614
1493695465418	-6.851837	-13.8606415	4.4559174
1493695465418	-7.8908234	-15.897263	1.5467987
1493695465418	-5.790146	-16.041656	-0.92671204
1493695465418	-1.6966553	-13.529007	-1.285965
1493695465418	5.020767	-11.826782	-1.2346497
1493695465418	5.9084473	-10.886749	0.35557556
1493695465418	-0.07368469	-8.485474	1.4218445
1493695465418	-2.7981567	-5.8712006	1.7711182
1493695465418	-3.6392975	-4.2362823	2.80484
1493695465418	-3.9961395	-3.4271393	2.674469
1493695465418	-3.9382782	-3.9248352	2.0688171
1493695465418	-3.4875336	-4.0322723	1.9341736
1493695465419	-3.6020966	-2.9914398	2.2546082
1493695465419	-3.6184082	-0.89816284	2.2770996
1493695465419	-2.7340088	-0.057907104	2.1119843
1493695465419	-1.4976807	-1.4727173	0.24998474
1493695465419	-0.56832886	-6.736191	-4.224945
1493695465419	-1.3601074	-16.661728	-16.10997
1493695465419	0.1506958	-19.474823	-19.722397
1493695465419	1.2543335	-19.08052	-10.113724
1493695465419	-0.17745972	-8.9566345	-3.8513489
1493695465419	-1.7569885	-0.6144104	-0.42744446
1493695465419	-8.45314	-7.6754456	-1.9713135
1493695465419	-6.9248962	-14.095871	3.6941223
1493695465419	-4.252075	-14.0099945	2.3907013
1493695465419	-0.72592163	-9.066605	-3.08255
1493695465419	-3.5467377	-4.8773193	3.61792
1493695465419	-3.7171936	-5.821121	6.225006
1493695465419	-4.6575317	-8.576126	6.7426605
1493695465419	-4.6440887	-10.622711	3.0319214
1493695465419	-1.719635	-11.658279	3.4118652
1493695465419	0.523468	-10.665634	3.1281433
1493695465419	2.2696228	-11.508255	1.8657837
1493695465419	1.9591064	-10.677048	2.6815948
1493695465419	0.7981415	-10.6918335	0.14505005
1493695465419	0.43043518	-9.324448	-5.480667
1493695465419	-2.2044678	-9.657303	-2.6943512
1493695465419	-2.1552734	-9.16777	-2.1698608
1493695465419	-0.4206543	-8.0568695	0.11444092
1493695465419	0.67211914	-7.98114	1.415329
1493695465419	0.93045044	-7.7949066	0.39115906
1493695465419	-0.31924438	-8.22995	1.352829
1493695465419	-1.4577026	-10.416824	1.1642456
1493695465419	-1.8541107	-12.355713	-0.07443237
1493695465419	-0.09185791	-12.616455	-4.0948486
1493695465419	1.9704895	-12.683548	-7.1775208
1493695465419	2.4495697	-11.907425	-4.0244293
1493695465419	2.6710358	-11.460373	-0.72862244
1493695465419	3.2246857	-11.710495	0.36195374
1493695465419	0.77723694	-12.648224	-3.6183777
1493695465419	-0.6333618	-14.066086	-6.270645
1493695465419	0.6697693	-14.671509	-0.66300964
1493695465419	-1.8395386	-14.638794	0.8661499
1493695465419	-5.071167	-12.995407	1.8495789
1493695465419	-7.1392975	-12.345871	3.7965088
1493695465420	-8.7469635	-12.026413	4.425293
1493695465420	-9.092758	-12.23407	1.9233704
1493695465420	-6.9996185	-12.768555	-0.96777344
1493695465420	-3.451004	-12.513306	-2.1305237
1493695465420	0.79452515	-11.38858	-0.6823425
1493695465420	6.4884644	-10.929977	1.6673889
1493695465420	4.3693695	-11.073563	1.702591
1493695465420	-2.4492493	-8.514053	1.2582397
1493695465420	-5.0409393	-5.3559875	1.8789978
1493695465420	-4.836624	-3.1860046	2.2523346
1493695465420	-4.24205	-2.5877075	2.1414337
1493695465420	-3.266922	-3.515686	1.4086456
1493695465420	-2.313507	-4.186722	1.1555481
1493695465420	-1.8780518	-3.5163422	1.4856262
1493695465420	-1.8241882	-2.1982727	1.5201569
1493695465420	-1.5095367	-1.8453064	0.8895111
1493695465420	-0.90419006	-4.1032104	-2.4593353
1493695465420	-1.0867615	-11.105728	-10.934784
1493695465420	1.4131317	-17.958069	-18.191788
1493695465420	0.83914185	-19.474823	-17.526596
1493695465420	-0.3013916	-13.647263	-8.847046
1493695465420	-0.4580078	-5.88002	-3.7998657
1493695465420	-1.307724	-0.7588806	-3.4844818
1493695465420	-7.1432343	-5.1411896	-1.3020782
1493695465420	-7.3898315	-11.363174	14.694672
1493695465420	-6.5319824	-16.171936	6.1329346
1493695465420	-5.173996	-15.032684	-3.5162354
1493695465420	-1.0467072	-6.0867615	1.9905853
1493695465420	-3.7452087	-5.4373474	5.08107
1493695465420	-3.7667542	-7.7499695	5.613556
1493695465420	-3.71846	-9.787277	2.7599792
1493695465420	-1.3883667	-10.011078	2.721283
1493695465420	-1.5570831	-12.290955	1.5035248
1493695465420	1.1621857	-12.037903	2.1574707
1493695465420	1.9508057	-10.62561	6.894058
1493695465420	2.8753052	-9.6028595	-0.35424805
1493695465420	0.47242737	-6.848404	0.005340576
1493695465420	-0.63098145	-6.6101074	-3.931961
1493695465420	-3.9906616	-8.023422	-1.8017578
1493695465420	-2.9309387	-9.248779	0.47946167
1493695465420	-1.2456512	-9.439377	0.7150116
1493695465420	-1.1588593	-10.193878	0.0740509
1493695465420	-1.2382965	-10.935593	-3.27771
1493695465422	-0.35520935	-11.82695	-4.993683
1493695465422	1.3604889	-12.545502	-1.40625
1493695465422	0.917511	-12.486221	2.4822693
1493695465422	-0.76719666	-12.073517	0.08734131
1493695465422	0.7374573	-13.018219	-2.3572693
1493695465423	1.8695068	-13.484894	-3.8126068
1493695465423	2.0109558	-13.659592	-5.4561157
1493695465423	3.3390656	-14.504272	-4.7455597
1493695465423	3.8696594	-14.239304	-2.843338
1493695465423	1.4624023	-13.640991	-2.9651184
1493695465423	-2.4700165	-13.226181	-0.82810974
1493695465423	-4.29599	-12.078201	3.756836
1493695465423	-4.2696533	-10.8671875	5.8827057
1493695465423	-7.818619	-12.5538025	3.0010834
1493695465423	-10.872238	-16.52391	-1.3600616
1493695465423	-7.0598907	-16.03508	-1.9469604
1493695465423	-1.1543274	-12.495438	-0.622406
1493695465423	4.4770813	-10.137299	0.94577026
1493695465423	4.0098267	-8.887436	0.9376221
1493695465423	-0.6230316	-7.123764	1.0839996
1493695465423	-3.1641998	-5.1458435	1.937561
1493695465423	-3.353424	-3.6566467	2.7417603
1493695465423	-3.2265778	-2.993042	2.877716
1493695465423	-3.1259766	-3.6163177	1.7769928
1493695465423	-2.9853058	-4.1347504	1.8892365
1493695465423	-3.2497864	-3.4413147	2.4760742
1493695465423	-3.1387634	-2.2350922	2.6582184
1493695465423	-2.8683624	-1.8480988	1.9694519
1493695465423	-2.4883423	-3.5136719	-0.6101837
1493695465423	-1.7103424	-9.238205	-10.977905
1493695465423	-2.977127	-16.933945	-16.80104
1493695465423	-4.7446747	-19.474823	-19.396072
1493695465423	-2.227127	-15.650894	-9.934357
1493695465423	-1.09021	-7.0031433	-4.651825
1493695465423	-1.573761	-2.0809174	-2.9761047
1493695465423	-7.1787567	-9.2113495	-2.4458923
1493695465423	-5.6103516	-12.869415	5.263672
1493695465423	-5.549408	-12.207275	5.643692
1493695465423	-2.1172638	-11.81929	-4.9605255
1493695465423	-3.9535065	-7.796234	3.8505402
1493695465423	-3.1159363	-5.613434	5.077484
1493695465423	-3.910965	-6.555481	6.030182
1493695465423	-1.4795227	-6.5224304	7.464386
1493695465423	-1.3266144	-8.758896	4.23761
1493695465423	-1.6928711	-10.436218	-0.591568
1493695465423	-0.26922607	-12.005035	3.0331573
1493695465423	2.982483	-13.9470825	3.4134827
1493695465424	5.9945526	-14.576355	-1.0029907
1493695465424	3.337967	-11.464752	-6.4829865
1493695465424	-0.86087036	-9.813644	-1.0983582
1493695465424	-2.008728	-8.323868	-0.9898529
1493695465424	-2.3858337	-7.4865417	-0.08488464
1493695465424	-1.4527283	-7.2285156	1.2189789
1493695465424	-0.74928284	-8.106201	1.6863098
1493695465424	-0.6647186	-9.331284	2.155014
1493695465424	-0.55641174	-10.389832	0.94059753
1493695465424	-0.16488647	-11.031662	-1.8819275
1493695465424	0.94177246	-11.621368	-5.757431
1493695465424	0.9698181	-12.450378	-5.644333
1493695465424	-0.05529785	-11.695023	-0.34986877
1493695465424	0.82147217	-11.361877	0.33399963
1493695465424	1.9805145	-12.022629	-3.1723022
1493695465424	1.2827454	-13.8602295	-4.6597443
1493695465424	1.270935	-15.0815735	-3.4271393
1493695465424	1.7069092	-15.169022	-1.7423706
1493695465424	-0.44866943	-14.563034	-1.6599274
1493695465424	-3.6616821	-13.6692505	0.15135193
1493695465424	-5.267807	-13.128525	4.1493073
1493695465424	-6.4546967	-12.611908	6.6039276
1493695465424	-7.876892	-12.718369	4.7458344
1493695465424	-6.9650116	-14.490128	-1.9987183
1493695465424	-3.3723602	-15.095627	-3.6970978
1493695465424	1.7757263	-13.161835	0.7016144
1493695465424	3.7654724	-12.527466	0.4467926
1493695465424	1.8810883	-9.860519	3.1262817
1493695465424	-2.8356018	-6.395584	2.9982758
1493695465424	-3.83313	-3.7990875	2.2657013
1493695465424	-3.4838562	-2.8306885	2.545517
1493695465424	-3.8534698	-3.4915009	2.6161346
1493695465424	-3.33609	-4.2776794	2.2599182
1493695465424	-2.8779907	-4.080368	2.5525513
1493695465424	-2.7198486	-2.5634766	2.8345947
1493695465424	-2.7348938	-0.944046	2.8770294
1493695465424	-1.7983551	-1.0942688	1.5718079
1493695465424	-0.7761688	-4.875992	-2.5769043
1493695465424	-1.3620148	-15.686981	-16.98529
1493695465424	-4.4589996	-19.207382	-19.722397
1493695465424	-0.9422302	-19.474823	-9.529434
1493695465424	-1.2912598	-9.525482	-4.24559
1493695465425	-1.4024048	0.13475037	-0.7986603
1493695465425	-5.7373962	0.13763428	-3.5741272
1493695465425	-11.603943	-8.528244	4.8635254
1493695465425	-8.513535	-14.7009735	7.8538666
1493695465425	-1.3543701	-19.266815	-8.154221
1493695465425	0.95910645	-8.704849	6.5994873
1493695465425	-2.476532	-5.7095795	6.0830994
1493695465425	-1.6450348	-5.810257	6.071167
1493695465425	-2.169098	-7.9660187	4.9187927
1493695465425	-3.3229218	-10.256454	2.2580261
1493695465425	-0.55152893	-9.917007	3.3153381
1493695465425	-1.9715271	-12.827774	0.48716736
1493695465425	1.0757751	-12.71904	0.24017334
1493695465425	6.0878754	-11.6171875	-0.6988373
1493695465425	2.685913	-9.075592	-1.1389923
1493695465425	-0.4096985	-8.247238	-0.2308197
1493695465425	-2.484558	-7.8074493	-1.3805237
1493695465425	-1.8101654	-7.7895813	-0.41131592
1493695465425	-0.92323303	-8.749115	0.6941681
1493695465425	-0.11604309	-9.242538	1.3356018
1493695465425	0.073272705	-9.794434	1.4481354
1493695465425	0.049682617	-10.731842	-2.3237762
1493695465425	0.15673828	-11.158051	-4.6154633
1493695465425	0.8354187	-11.3004	-3.6913147
1493695465425	0.7392273	-11.673965	-1.0901947
1493695465425	0.561676	-11.9384	0.2384491
1493695465425	0.7815094	-11.868332	-1.1392517
1493695465425	0.62957764	-11.655228	-2.592743
1493695465425	-0.5467377	-11.757217	-3.65596
1493695465425	-1.4078369	-12.87262	-4.175537
1493695465425	0.12289429	-14.667007	-2.8797302
1493695465425	0.3922882	-14.722214	-2.7436066
1493695465425	-1.0428772	-13.063293	-0.9335327
1493695465425	-1.567749	-12.119827	4.0591583
1493695465425	-2.4321594	-11.949417	5.952835
1493695465425	-5.892044	-12.942947	5.8139343
1493695465425	-8.237549	-16.519684	-0.517395
1493695465425	-6.2240753	-17.22438	-3.371399
1493695465425	-2.3066711	-13.843491	-0.0332489
1493695465425	3.786438	-11.06279	-0.57058716
1493695465425	4.455353	-10.782974	1.6275635
1493695465425	1.0033264	-9.321213	3.8529053
1493695465425	-2.8531036	-6.0116577	3.5535736
1493695465426	-3.605957	-3.9913177	3.796936
1493695465426	-3.4368286	-3.5419006	3.173645
1493695465426	-3.448227	-3.9216766	2.7899933
1493695465426	-3.6300812	-3.6138763	2.4509277
1493695465426	-3.6830292	-1.7350311	2.326477
1493695465426	-3.2352448	0.14924622	2.519455
1493695465426	-2.2926788	-0.19377136	2.4483032
1493695465426	-1.2124786	-3.6828613	-0.39808655
1493695465426	-0.73306274	-10.322891	-10.919769
1493695465426	-2.5469055	-18.434143	-18.814102
1493695465426	-1.2904663	-19.474823	-18.349457
1493695465426	-0.8961334	-14.335022	-5.226822
1493695465426	-1.5418243	-4.865509	-3.3211212
1493695465426	-1.9083862	-0.03816223	-3.0133667
1493695465426	-8.385452	-7.2610626	-1.6924286
1493695465426	-6.4436035	-11.70343	9.364487
1493695465426	-5.488617	-14.083923	1.9134674
1493695465426	-2.163681	-14.930176	-5.2459106
1493695465426	-2.1863403	-6.444687	5.064331
1493695465426	-3.2228088	-5.9070435	5.374649
1493695465426	-3.828064	-8.3367	5.358383
1493695465426	-1.9434967	-9.498856	2.780136
1493695465426	-0.28263855	-10.013229	3.0356293
1493695465426	2.0197449	-10.678055	5.0137634
1493695465426	1.5548859	-13.31691	1.7507019
1493695465426	1.8398895	-13.570389	0.06628418
1493695465426	1.516098	-9.984634	-5.5294952
1493695465426	-1.4223785	-9.394302	-2.8234558
1493695465426	-2.8581085	-8.605148	-0.38687134
1493695465426	-2.9636078	-7.693878	0.26263428
1493695465426	-1.8784637	-7.671997	1.0962219
1493695465426	-0.585968	-8.52417	1.3803406
1493695465426	0.5119629	-9.180664	2.194397
1493695465426	0.74198914	-9.581039	2.6399689
1493695465426	-0.25624084	-10.406754	0.09565735
1493695465426	-0.62994385	-11.34227	-4.189438
1493695465426	0.5171509	-12.118881	-8.538513
1493695465426	1.561203	-12.286179	-5.6985626
1493695465426	1.5706635	-11.705734	0.9860687
1493695465426	1.685791	-11.326828	1.8741913
1493695465426	1.8117371	-11.69928	-2.4656067
1493695465426	0.8060303	-13.067291	-4.6660614
1493695465427	-0.97317505	-14.655685	-3.980011
1493695465427	-1.5948334	-15.371323	-3.452179
1493695465427	-1.8338165	-13.939011	-2.2916718
1493695465427	-2.6022186	-12.16571	1.2009277
1493695465427	-3.8214264	-11.800644	4.1705475
1493695465427	-6.074692	-12.589096	5.4585724
1493695465427	-7.028885	-14.194473	2.2843628
1493695465427	-5.791504	-16.059189	-2.356308
1493695465427	-3.196228	-14.91008	-1.3730927
1493695465427	6.169403	-12.234146	1.5101929
1493695465427	6.497635	-11.340698	1.6037903
1493695465427	0.40844727	-8.866211	2.4493408
1493695465427	-2.5914001	-6.0919495	3.360733
1493695465427	-3.7892303	-4.5101624	3.6398773
1493695465427	-4.289459	-3.4118805	3.0149536
1493695465427	-4.4813995	-3.242035	2.4980469
1493695465427	-3.9793854	-3.2364197	1.8714294
1493695465427	-3.8388062	-2.1971588	1.8461304
1493695465427	-3.328659	-0.28295898	2.201767
1493695465427	-2.623413	-0.787735	1.7763519
1493695465427	-1.4337158	-3.9585114	-1.102951
1493695465427	0.414505	-10.452225	-11.277496
1493695465427	-2.0967255	-18.616455	-18.858582
1493695465427	-2.5144196	-19.474823	-17.758423
1493695465427	-1.7148895	-15.243164	-5.6780396
1493695465427	-1.5024261	-6.5511627	-4.3964996
1493695465427	-3.55513	-4.4693604	-4.9040527
1493695465427	-7.3870544	-13.705215	-5.756424
1493695465427	-4.060623	-13.960022	13.575623
1493695465427	-4.3189087	-8.291382	2.9223785
1493695465427	-3.9271393	-5.053482	-0.6481323
1493695465427	-3.5730133	-4.799942	4.4568176
1493695465427	-3.685608	-7.512192	6.554367
1493695465427	-4.190674	-9.263565	5.3281555
1493695465427	-3.852539	-10.494705	2.0212708
1493695465427	-1.2001648	-11.238251	2.7968903
1493695465427	1.4711456	-12.475098	5.425064
1493695465427	3.9747925	-13.952728	2.9048767
1493695465427	5.703964	-13.347565	-0.25975037
1493695465427	2.7618103	-10.993042	-6.182358
1493695465427	-1.8394623	-9.313736	-1.5470581
1493695465427	-3.4393768	-8.203598	-2.5398102
1493695465428	-3.8694305	-6.971634	-1.2281952
1493695465428	-2.1650848	-7.687027	0.43113708
1493695465428	-0.50831604	-9.075272	0.79974365
1493695465428	0.7334595	-9.550018	0.81674194
1493695465428	1.4112396	-9.527222	1.1787109
1493695465428	1.1197205	-9.912781	-0.9042969
1493695465428	1.2400665	-10.654297	-3.010376
1493695465428	2.0709229	-11.645081	-4.9452667
1493695465428	1.764328	-12.41864	-3.0497437
1493695465428	0.103500366	-11.710571	0.22618103
1493695465428	-0.08291626	-10.89946	0.23632813
1493695465428	0.6578064	-11.123611	-1.2713623
1493695465428	-0.21540833	-13.05603	-2.535843
1493695465428	-1.2274933	-15.315598	-2.8921661
1493695465428	-1.2064514	-16.154892	-1.1423798
1493695465428	-2.7976532	-14.889542	-2.0334625
1493695465428	-4.7638245	-12.311615	-0.108047485
1493695465428	-5.1785736	-10.585098	3.8433228
1493695465428	-5.8839874	-10.622437	5.764572
1493695465428	-6.776245	-11.932343	3.338623
1493695465428	-6.464493	-15.104111	-4.027542
1493695465428	-3.2256317	-15.366074	-2.567688
1493695465428	1.7148743	-13.001389	2.215866
1493695465428	5.739395	-12.504135	0.3307495
1493695465428	1.7022095	-10.796814	0.94473267
1493695465428	-3.2321472	-6.996414	2.38089
1493695465428	-4.3033905	-4.3707733	2.8268585
1493695465428	-3.7914276	-3.1823883	3.723816
1493695465428	-3.4378967	-3.1651917	3.5328522
1493695465428	-3.068573	-3.7819977	2.0236053
1493695465428	-2.727234	-3.405426	1.0429077
1493695465428	-2.0605927	-0.94825745	1.1874237
1493695465428	-1.4338226	0.05630493	1.6000519
1493695465428	-0.5904846	-2.10701	-0.31428528
1493695465428	0.64697266	-7.88562	-6.9773865
1493695465428	-1.7270203	-18.560852	-18.72078
1493695465428	-3.256607	-19.474823	-18.701828
1493695465428	-1.1073456	-18.479126	-7.8953094
1493695465428	-1.7763214	-7.8085938	-3.9313965
1493695465428	-1.5730591	-0.45359802	-2.1829224
1493695465428	-8.421356	-4.337082	-4.2829285
1493695465428	-11.479828	-13.142883	4.5927124
1493695465428	-5.449112	-13.216232	6.589203
1493695465429	-1.7995758	-14.386902	-10.113129
1493695465429	-1.0451508	-6.836212	5.771164
1493695465429	-2.073822	-5.6495667	3.7572784
1493695465429	-2.5045319	-7.120163	5.7664795
1493695465429	-3.540985	-9.35321	4.380768
1493695465429	-2.239853	-10.492966	1.2756805
1493695465429	0.50123596	-11.267166	5.15683
1493695465429	2.205658	-12.9461975	5.125595
1493695465429	2.9523468	-12.942841	2.3383026
1493695465429	2.0581207	-11.557388	-1.8173676
1493695465429	-0.07148743	-9.718826	-6.6224823
1493695465429	-3.0692596	-9.2760315	-1.1178436
1493695465429	-3.562561	-8.369324	-1.1766815
1493695465429	-2.544098	-7.411499	-0.16877747
1493695465429	-1.5371246	-7.5115967	1.1631012
1493695465429	-0.111572266	-8.13092	1.5205994
1493695465429	0.541687	-9.147812	1.7479706
1493695465429	0.31932068	-10.535751	1.1603241
1493695465429	0.076538086	-11.409073	-1.3864136
1493695465429	0.6182556	-11.209213	-4.0690155
1493695465429	0.9241028	-11.506241	-4.9817963
1493695465429	0.21203613	-11.58522	-3.369049
1493695465429	0.30433655	-10.9657135	-1.210846
1493695465429	2.4292145	-10.543304	1.0699463
1493695465429	3.3774872	-11.066086	1.1964111
1493695465429	0.50465393	-12.70462	-4.2214203
1493695465429	-1.5343323	-14.25415	-4.594925
1493695465429	-1.3241119	-15.187561	-1.361908
1493695465429	-2.2963257	-14.106598	-1.7373047
1493695465429	-3.8542175	-12.522705	0.017089844
1493695465429	-4.9152374	-12.176529	2.7691956
1493695465429	-5.11644	-12.067825	4.8182373
1493695465429	-7.000946	-13.494705	4.0367584
1493695465429	-7.051071	-15.829803	-0.0050201416
1493695465429	-4.4631195	-15.929489	-2.084381
1493695465429	-1.6861725	-13.53334	-1.0769196
1493695465429	7.255432	-11.281174	0.846344
1493695465429	4.799881	-11.2447815	3.298935
1493695465429	-1.5568695	-7.9487	2.3798676
1493695465429	-4.222046	-5.063751	2.6352692
1493695465429	-4.014984	-4.0733795	3.2637787
1493695465429	-3.655243	-3.691803	2.8731384
1493695465429	-3.5526428	-3.642685	2.2591248
1493695465429	-3.2447357	-3.2753754	2.0514984
1493695465430	-3.5381012	-1.5867767	2.1788025
1493695465430	-2.8224945	0.18069458	2.2489014
1493695465430	-2.2054443	0.088150024	2.0093994
1493695465430	-0.6828003	-2.9611359	-1.454483
1493695465430	-0.09777832	-10.621292	-13.007904
1493695465430	0.7535553	-19.474823	-19.722397
1493695465430	-0.71958923	-19.474823	-19.722397
1493695465430	0.8513336	-13.934235	-4.13649
1493695465430	-1.4118042	-0.60813904	-0.83070374
1493695465430	-2.5735168	4.8408356	-2.5874481
1493695465430	-9.229218	-7.6409607	0.7714386
1493695465430	-7.6387177	-13.700439	10.060776
1493695465430	-3.390625	-16.842606	-9.86496
1493695465430	0.24613953	-10.912003	4.425644
1493695465430	-2.521698	-6.433502	5.932724
1493695465430	-3.630127	-6.8948364	5.1418915
1493695465430	-4.14328	-8.955582	5.641266
1493695465430	-2.7476196	-9.713409	4.234146
1493695465430	-0.9743347	-9.882751	3.0906677
1493695465430	0.6221771	-10.9626465	4.612213
1493695465430	1.4385681	-12.735184	2.911316
1493695465430	2.5632935	-12.7664795	-0.30204773
1493695465430	1.350296	-10.954681	-6.8880615
1493695465430	-2.0166779	-9.582382	-1.7172699
1493695465430	-3.2610931	-8.78334	-0.6999817
1493695465430	-2.3562164	-8.098328	-1.7705383
1493695465430	-0.7601166	-7.547653	0.23574829
1493695465430	0.18244934	-7.6169586	1.4711456
1493695465430	0.46644592	-8.062561	1.1057281
1493695465430	-0.042037964	-8.955536	1.7863007
1493695465431	-0.53852844	-10.251419	1.5338287
1493695465431	-0.077178955	-10.90242	-1.0982971
1493695465431	0.77545166	-11.370728	-3.9109497
1493695465431	0.72891235	-12.094162	-4.865082
1493695465431	-0.5219269	-12.13205	-2.4688568
1493695465431	-0.07003784	-11.724731	0.041366577
1493695465431	1.3975372	-11.786667	0.101257324
1493695465431	1.5459442	-12.431061	-2.1102753
1493695465431	-0.5707855	-13.056976	-3.8636627
1493695465431	-1.6945953	-14.423767	-3.7532806
1493695465431	-0.28596497	-14.437881	-2.4938965
1493695465431	-0.7004547	-12.810974	-1.5130615
1493695465431	-2.859665	-11.793915	1.5718079
1493695465431	-4.0669403	-11.443787	4.3749847
1493695465431	-5.244446	-11.334198	4.4559937
1493695465431	-7.5621185	-13.919968	2.578064
1493695465431	-6.984375	-16.445358	-0.56022644
1493695465431	-2.4956207	-15.102249	-1.6768951
1493695465431	0.70225525	-11.927994	-0.34977722
1493695465431	7.661331	-11.204514	0.8987274
1493695465431	2.056488	-11.259155	1.828064
1493695465431	-2.524002	-7.7133636	2.082672
1493695465431	-4.1806335	-5.428711	3.0057526
1493695465431	-4.2988434	-4.146164	3.2638397
1493695465431	-4.7777557	-3.4979858	2.945984
1493695465431	-4.6270294	-3.3461914	1.7718658
1493695465431	-3.813736	-3.2593842	1.8871002
1493695465431	-3.4968414	-1.5574341	2.4521027
1493695465431	-2.9679413	-0.16593933	2.2901154
1493695465431	-2.454956	-0.66763306	1.6659546
1493695465431	-1.3783112	-5.010895	-2.3126068
1493695465431	1.0579834	-14.920975	-17.289703
1493695465431	-2.117218	-19.474823	-19.626343
1493695465431	-3.5105438	-19.031403	-16.02452
1493695465431	-0.983963	-9.524826	-4.3484497
1493695465431	-1.6678467	0.02897644	-2.270874
1493695465431	-3.0585022	1.7615356	-1.2780151
1493695465431	-7.748825	-10.815857	-0.4225464
1493695465431	-5.1684875	-17.896729	5.834717
1493695465431	-2.8663177	-14.724106	-5.4752045
1493695465431	0.11238098	-7.4912415	2.5293884
1493695465431	-2.3873749	-5.273697	4.4115753
1493695465432	-3.7408905	-7.147812	4.3190002
1493695465432	-3.790039	-8.943787	5.6891174
1493695465432	-3.5697784	-10.410278	4.8895874
1493695465432	-1.1175995	-10.992569	2.6573029
1493695465432	1.266037	-11.756821	4.498047
1493695465432	2.764328	-12.81839	3.5635986
1493695465432	2.5333557	-12.305786	-0.97935486
1493695465432	0.28684998	-10.439529	-7.2940216
1493695465432	-1.3331299	-8.91481	0.32899475
1493695465432	-3.2756653	-8.630188	1.2234802
1493695465432	-3.514038	-7.586212	-0.18882751
1493695465432	-2.338684	-7.1082153	-0.035827637
1493695465432	-0.7891083	-7.498459	0.39276123
1493695465432	0.33213806	-8.560303	0.40260315
1493695465432	0.7671509	-9.890091	1.119751
1493695465432	1.014267	-10.845032	0.45167542
1493695465432	1.5838013	-10.835892	-1.5025024
1493695465432	1.704071	-11.074554	-2.351715
1493695465432	-0.31692505	-11.740356	-2.5074615
1493695465432	-1.9284668	-11.576431	-3.0847778
1493695465432	-0.0036773682	-11.420624	-1.8475647
1493695465432	2.4874725	-11.814377	0.2230072
1493695465432	3.2519684	-12.920349	-1.3375702
1493695465432	1.0060577	-12.798126	-2.0760498
1493695465432	-1.3879242	-13.545868	-2.450348
1493695465432	-2.050232	-13.078918	-3.556839
1493695465432	-3.7259064	-11.850098	-3.7482758
1493695465432	-5.4815063	-11.639191	-1.7949677
1493695465432	-5.5270386	-12.68927	3.5141754
1493695465432	-6.3002777	-14.047226	7.439743
1493695465432	-7.275955	-15.058151	4.701294
1493695465432	-6.265564	-15.9096985	-2.8283234
1493695465432	-2.62706	-13.995117	-1.6936798
1493695465432	3.6356964	-11.23233	2.4674835
1493695465432	2.9417572	-10.046799	0.7506561
1493695465432	-0.540802	-8.940552	-0.7693634
1493695465432	-3.1742706	-7.3479156	0.6775818
1493695465432	-2.909378	-4.937622	0.9945221
1493695465432	-3.9723969	-2.5601044	2.6595764
1493695465432	-5.043106	-1.3070679	2.3521576
1493695465432	-5.0564575	-1.4426727	1.3458099
1493695465432	-4.4160614	-1.5593262	1.2171936
1493695465433	-4.9628143	-1.1781311	1.2996521
1493695465433	-3.2912445	-1.4306946	3.2071228
1493695465433	-3.0622864	-4.614197	2.4624329
1493695465433	-0.46650696	-10.369904	0.9931488
1493695465433	1.6937408	-18.906296	-9.065628
1493695465433	3.5583038	-19.474823	-19.0672
1493695465433	1.6442871	-18.020935	-10.281006
1493695465433	1.8985138	-9.29837	1.6320496
1493695465433	-5.270706	-13.742798	0.07206726
1493695465433	-4.796509	-17.230347	-3.9189453
1493695465433	-2.2492523	-12.946884	0.45838928
1493695465433	-3.1697693	-5.0686035	4.6740265
1493695465433	-1.6816559	-2.407257	7.863159
1493695465433	-7.156021	-8.615112	7.786789
1493695465433	-9.065323	-12.5896	8.292191
1493695465433	-7.616211	-12.965881	7.414383
1493695465433	-4.75766	-11.216888	6.769684
1493695465433	-1.9271088	-10.610413	3.9444122
1493695465433	-0.45977783	-10.778503	2.4262085
1493695465433	1.5933685	-10.38826	5.8885803
1493695465433	3.4981995	-9.924118	8.711609
1493695465433	3.1103363	-9.552368	8.055313
1493695465433	2.8055115	-9.032959	5.5616913
1493695465433	2.7585754	-8.8750305	3.1111298
1493695465433	2.983368	-9.145172	2.0908356
1493695465433	4.350754	-9.6219635	0.19560242
1493695465433	3.9010162	-9.842453	0.021194458
1493695465433	2.9059906	-9.722336	1.5719299
1493695465433	3.444809	-10.303848	1.4673767
1493695465433	5.2020264	-11.4144745	0.31188965
1493695465433	6.0400543	-11.631226	-2.1204224
1493695465434	3.6542664	-10.71843	-5.170746
1493695465434	0.9371948	-10.093399	-8.082962
1493695465434	-0.24591064	-11.022812	-8.44519
1493695465434	-0.2372284	-13.072098	-4.0421295
1493695465434	0.20028687	-13.199509	2.823166
1493695465434	-3.9214478	-10.831696	4.019928
1493695465434	-8.414093	-10.248215	-0.13639832
1493695465434	-9.828659	-11.78157	0.51327515
1493695465434	-10.762009	-12.984375	-1.7944946
1493695465434	-9.920822	-13.507782	-2.3623962
1493695465434	-3.1884308	-14.440842	-2.3291779
1493695465434	-1.9574585	-13.448181	-2.7127228
1493695465434	-2.977707	-10.604263	-1.457962
1493695465434	-3.620041	-8.188843	-0.41459656
1493695465434	-3.6564941	-7.0314484	-0.0012969971
1493695465434	-2.8384552	-6.359268	-0.010848999
1493695465434	-1.9141693	-6.136612	-0.6673889
1493695465434	-1.8213806	-5.773407	-0.93170166
1493695465434	-1.8366852	-5.9964447	-1.4758453
1493695465434	-1.5896454	-4.0570374	-1.5848694
1493695465434	-0.91641235	-2.694748	-1.7174835
1493695465434	-0.9069824	-3.7347565	-2.8105621
1493695465434	-0.0730896	-4.559845	-4.018097
1493695465434	0.800827	-4.242325	-5.1556244
1493695465434	1.0278778	-5.3058624	-8.671997
1493695465434	0.7073059	-8.0221405	-12.678528
1493695465434	0.5119934	-10.873047	-13.198242
1493695465434	-1.9718018	-11.374634	-10.529373
1493695465434	-6.094757	-9.487808	-8.923065
1493695465434	-9.879868	-7.871933	-7.20166
1493695465434	-12.781845	-6.537781	-3.3571167
1493695465434	-12.313568	-7.7444153	-1.0617065
1493695465434	-5.757263	-6.7244415	1.7855682
1493695465434	-0.5642853	-7.715317	0.831131
1493695465434	-1.1884918	-8.804459	1.97406
1493695465434	-0.5233154	-9.283829	6.871002
1493695465434	-1.3108063	-10.193161	2.5071564
1493695465434	-1.2446594	-11.945602	-3.7790527
1493695465434	-3.3283691	-11.195251	-0.7227478
1493695465434	-3.6904755	-9.342697	1.1302795
1493695465434	-3.7591248	-10.296967	0.63749695
1493695465434	-1.5195923	-11.151749	1.519043
1493695465434	3.1934814	-12.620148	0.29795837
1493695465435	5.7224274	-13.171829	-1.1054688
1493695465435	1.7172852	-11.6107025	0.17332458
1493695465435	-1.1821594	-9.806274	0.4358673
1493695465435	-2.3627472	-8.663544	0.15026855
1493695465435	-2.8873138	-8.046402	-0.8076172
1493695465435	-2.465149	-7.699951	-0.7852936
1493695465435	-0.9618988	-8.224426	-0.109375
1493695465435	-0.012268066	-8.777954	1.0904083
1493695465435	0.87280273	-8.89093	2.2324982
1493695465435	0.68048096	-9.346207	2.3368988
1493695465435	-0.21325684	-10.549164	-1.3122406
1493695465435	-1.1080017	-12.084061	-5.8823547
1493695465435	-1.2609558	-12.87561	-4.501297
1493695465435	-0.79525757	-12.850357	1.187561
1493695465435	-0.7288666	-12.590027	1.4661102
1493695465435	0.41401672	-12.229584	-1.391983
1493695465435	1.3747406	-11.63327	-2.3002472
1493695465435	0.6688385	-10.95166	-3.051941
1493695465435	-0.6726532	-11.559128	-4.121277
1493695465435	0.3768921	-13.362228	-3.0242767
1493695465435	0.8738098	-14.341675	-1.8225555
1493695465435	-1.1396332	-13.42865	-1.3208923
1493695465435	-3.6216736	-12.451584	1.9405975
1493695465435	-3.4320526	-11.857651	6.2248535
1493695465435	-6.4711	-12.636444	7.574692
1493695465435	-8.683975	-13.661667	2.5870667
1493695465435	-8.402084	-15.969681	-4.300476
1493695465435	-4.0436554	-14.190628	-0.67645264
1493695465435	-0.7245941	-12.081055	0.21690369
1493695465435	8.527405	-9.955551	-0.34420776
1493695465435	4.6508484	-9.894791	2.7496948
1493695465435	-1.5731354	-7.057541	2.7313843
1493695465435	-3.322525	-4.4910126	1.779953
1493695465435	-3.6235352	-3.5371246	1.8385773
1493695465435	-3.0271301	-2.9392548	1.976944
1493695465435	-3.1274414	-3.4562225	1.0365143
1493695465435	-3.484787	-2.1678314	1.1162567
1493695465435	-2.8200226	-1.0220642	1.8714142
1493695465435	-1.9016724	-0.84251404	2.0753326
1493695465435	-0.78131104	-1.3599396	1.2303925
1493695465435	-0.48908997	-4.5913086	-0.9707184
1493695465435	0.42163086	-11.832733	-9.747238
1493695465435	0.36213684	-19.474823	-19.722397
1493695465436	1.7423553	-18.94754	-17.312561
1493695465436	0.5736542	-14.156631	-3.7080994
1493695465436	-1.8184509	-3.9508057	-2.387436
1493695465436	-4.8305054	-0.7608795	-1.589035
1493695465436	-11.077835	-9.056549	0.2097168
1493695465436	-8.336487	-13.029449	3.7345886
1493695465436	-3.9679718	-12.855713	-1.4589233
1493695465436	-1.5543671	-10.723007	-0.28379822
1493695465436	-2.4326324	-5.55925	5.3456726
1493695465436	-3.1046448	-5.322754	4.5281677
1493695465436	-2.951355	-7.101837	4.6281586
1493695465436	-2.360138	-9.21463	3.7999725
1493695465436	-2.0209198	-11.607101	3.503189
1493695465436	-0.204422	-12.883621	3.6130981
1493695465436	2.067276	-13.323883	2.1302185
1493695465436	2.990219	-11.742264	3.2563019
1493695465436	1.6621246	-10.28389	-1.1163483
1493695465436	-1.7051544	-9.7357025	-4.9349976
1493695465436	-4.0863647	-8.779938	-3.3478088
1493695465436	-3.4580994	-7.929947	-2.1288147
1493695465436	-1.8607025	-7.491211	0.56944275
1493695465436	-1.1295929	-8.040604	1.9545593
1493695465436	-0.69781494	-8.378738	2.003296
1493695465436	-0.7034149	-8.652145	1.0602264
1493695465436	-1.0333862	-9.530884	-0.18055725
1493695465436	-1.1607971	-10.521103	-0.79771423
1493695465436	-0.06692505	-11.231094	-2.1398163
1493695465436	1.1627197	-12.263123	-3.3653564
1493695465436	0.5801697	-12.171494	-3.636261
1493695465436	1.3778687	-11.448944	-1.7827301
1493695465436	3.5664978	-11.887192	0.055511475
1493695465436	2.7248993	-12.781616	-1.6959229
1493695465436	-0.39482117	-13.852676	-4.427643
1493695465436	-1.1530762	-15.149597	-3.6370087
1493695465436	-0.62605286	-14.654343	-2.5632782
1493695465436	-1.5260468	-12.496872	-0.04937744
1493695465436	-3.2860413	-12.044022	2.2180023
1493695465436	-4.8644714	-11.891739	4.769348
1493695465436	-6.871704	-12.632019	3.7142944
1493695465436	-8.265884	-15.382767	1.7339172
1493695465436	-6.397278	-15.821304	-1.217926
1493695465437	-0.78660583	-13.317749	-1.8471832
1493695465437	7.532257	-11.598801	-0.4375763
1493695465437	5.184311	-11.859177	0.88305664
1493695465437	-0.13977051	-7.8961945	1.4682312
1493695465437	-2.341095	-5.0599213	3.2306824
1493695465437	-2.8600159	-3.8214722	3.1019135
1493695465437	-3.068695	-3.2977905	2.9857025
1493695465437	-3.5860138	-3.2169342	2.4391327
1493695465437	-3.8058624	-3.6653137	1.5730133
1493695465437	-3.7088928	-3.2880554	2.1845703
1493695465437	-3.6481323	-1.5583344	2.5402222
1493695465437	-3.0540466	-0.97621155	2.1445923
1493695465437	-2.613861	-2.3955536	0.7460327
1493695465437	-1.193924	-8.8350525	-6.9862976
1493695465437	-1.4440002	-19.156647	-19.722397
1493695465437	-3.9408417	-19.474823	-18.275024
1493695465437	-1.4562225	-16.9684	-10.592148
1493695465437	-0.8051605	-5.624161	-3.963913
1493695465437	-3.5303192	-1.2024841	-1.1412506
1493695465437	-7.826111	-9.186356	-3.5074615
1493695465437	-5.9144287	-14.65741	1.5801239
1493695465437	-2.3067627	-12.348373	3.2061462
1493695465437	-1.0090637	-8.143814	-0.4823761
1493695465437	-3.174286	-6.088974	2.702713
1493695465437	-4.8809967	-6.501251	5.1354218
1493695465437	-5.0265045	-7.97493	4.4415436
1493695465437	-3.7140656	-9.181625	3.0791168
1493695465437	-1.7468414	-10.540161	1.6745605
1493695465437	1.0232391	-12.279526	3.2177124
1493695465437	4.5078735	-14.660934	7.6322327
1493695465437	6.222824	-13.8085785	1.2912903
1493695465437	1.9902191	-10.906189	-5.838196
1493695465437	-2.813507	-9.740707	-3.6713562
1493695465437	-5.3492126	-8.854233	-3.749817
1493695465437	-4.736801	-7.8948364	-1.4028015
1493695465437	-1.840805	-7.153946	1.234375
1493695465437	-0.41445923	-7.355423	2.4614105
1493695465437	-0.037399292	-8.188248	3.2538605
1493695465437	-0.37516785	-9.459244	1.3955841
1493695465437	-0.8773804	-10.542221	-0.2661438
1493695465437	-0.30413818	-11.05722	-2.0711365
1493695465437	0.9525604	-11.217651	-4.943207
1493695465437	2.2447662	-12.026566	-5.47464
1493695465437	0.958725	-12.208801	-1.3587036
1493695465438	-0.16271973	-11.596817	0.5079956
1493695465438	1.4195404	-10.852966	0.44171143
1493695465438	2.5411072	-11.451096	-1.9953918
1493695465438	1.2711945	-13.293961	-4.2499695
1493695465438	0.39137268	-13.94281	-1.864563
1493695465438	-0.5617676	-14.972977	-2.062149
1493695465438	-1.7602844	-13.260895	-3.137329
1493695465438	-2.958374	-11.935654	0.9796753
1493695465438	-4.1566467	-11.306412	3.29393
1493695465438	-4.643814	-11.1091	5.6474
1493695465438	-7.67247	-13.355133	3.2641907
1493695465438	-7.333679	-16.027481	-0.7987213
1493695465438	-5.2559967	-16.124924	-3.1568604
1493695465438	0.6756134	-12.839279	0.088912964
1493695465438	10.584885	-11.572113	-1.555481
1493695465438	2.7111206	-12.302933	2.459381
1493695465438	-2.2690125	-7.342926	1.153717
1493695465438	-3.8379822	-4.7803497	3.039505
1493695465438	-4.8008575	-3.7567902	3.3590698
1493695465438	-4.4103546	-3.160965	3.6943512
1493695465438	-4.2243195	-3.8994293	3.1538544
1493695465438	-3.9640656	-3.4058075	2.5967102
1493695465438	-3.4576416	-1.6174927	2.7052155
1493695465438	-2.8144531	-0.012756348	2.4197845
1493695465438	-2.230484	-0.43623352	1.435257
1493695465438	-0.8925171	-4.9997406	-4.5848083
1493695465438	0.39682007	-13.9717865	-16.771667
1493695465438	-2.6175537	-19.474823	-19.225784
1493695465438	-1.8695526	-18.054947	-16.303024
1493695465438	-0.35144043	-11.159958	-4.632141
1493695465438	-2.6352386	-4.1090546	-2.840271
1493695465438	-6.2939606	-6.9205475	-1.3548889
1493695465438	-6.018326	-14.218552	2.9930573
1493695465438	-1.9586487	-13.759811	5.296341
1493695465438	-2.2112427	-8.807892	-1.8824921
1493695465438	-3.8478394	-5.5836487	-0.45570374
1493695465438	-5.525818	-5.999939	4.6443787
1493695465438	-4.621216	-7.3419952	5.9451294
1493695465438	-3.7685547	-8.073502	4.4289246
1493695465438	-2.344864	-8.877686	2.6046143
1493695465438	-0.36875916	-10.730637	2.0643768
1493695465438	1.3633728	-13.098633	2.9898224
1493695465438	4.1870117	-13.201721	5.4334106
1493695465439	5.0587463	-12.467606	4.236145
1493695465439	1.0578461	-11.093033	-5.660919
1493695465439	-3.243225	-10.25325	-8.760223
1493695465439	-4.121826	-9.72522	-4.809311
1493695465439	-2.2951813	-8.492538	-1.1697693
1493695465439	-0.32351685	-8.030823	1.111145
1493695465439	0.3542633	-8.628204	1.2625885
1493695465439	0.2927704	-8.947983	1.7215118
1493695465439	-0.25274658	-9.200653	1.8988342
1493695465439	-0.55578613	-9.771561	0.84187317
1493695465439	0.58631897	-9.959763	-2.041809
1493695465439	2.34021	-11.158447	-5.1698303
1493695465439	2.0954132	-12.010147	-3.404129
1493695465439	0.9426422	-11.889206	-0.54745483
1493695465439	1.824707	-11.486954	0.7690582
1493695465439	1.3881226	-11.873047	-1.434555
1493695465439	-1.8967285	-13.460434	-6.1134796
1493695465439	-1.7258759	-15.104416	-4.4340363
1493695465439	0.090270996	-15.645981	-1.9879608
1493695465439	-1.0839539	-13.494324	-2.8031464
1493695465439	-2.5534058	-11.873398	1.0953674
1493695465439	-3.316269	-11.461273	5.1906586
1493695465439	-3.9398956	-10.314285	6.160904
1493695465439	-7.217819	-12.369553	4.0488586
1493695465439	-8.187332	-18.031204	-8.234207
1493695465439	-4.28537	-15.55513	-0.71647644
1493695465439	3.5350647	-12.591263	1.9559326
1493695465439	8.625717	-11.861069	-3.5685425
1493695465439	2.0368958	-9.962524	3.2814484
1493695465439	-3.1608276	-6.0225677	2.1424713
1493695465439	-3.9506378	-4.3033447	2.6667175
1493695465439	-3.423172	-2.7888641	4.1760864
1493695465439	-3.6618958	-2.9140472	3.8929596
1493695465439	-3.19458	-3.4595337	2.8039398
1493695465439	-3.0171356	-2.7935638	2.0495148
1493695465439	-2.9883423	-0.62171936	1.8797302
1493695465439	-2.2436676	-0.14170837	1.7062683
1493695465439	-0.81573486	-3.2404022	-1.4266968
1493695465439	0.76864624	-11.07872	-9.856079
1493695465439	-0.45544434	-19.474823	-19.655975
1493695465439	-3.1190948	-18.903046	-16.455841
1493695465439	-0.8802948	-14.624405	-6.147949
1493695465440	-1.2420807	-5.1826324	-3.3570251
1493695465440	-2.7033386	-0.38227844	-1.997757
1493695465440	-6.9627533	-4.7600555	-2.6688232
1493695465440	-6.3962555	-14.452209	2.7235413
1493695465440	-2.445465	-16.366653	3.19841
1493695465440	-3.3793488	-11.849991	-5.559662
1493695465440	-4.327423	-6.3816223	0.7414856
1493695465440	-5.0371094	-5.4574585	4.3202972
1493695465440	-3.586853	-6.7257843	4.257492
1493695465440	-2.4173431	-7.7446136	4.685852
1493695465440	-1.7585297	-9.810471	4.0398407
1493695465440	-0.45373535	-12.437256	3.8974304
1493695465440	2.0900574	-14.236755	4.764847
1493695465440	3.3566284	-13.80365	5.885132
1493695465440	1.9538574	-11.429398	-1.32164
1493695465440	-0.40170288	-9.38237	-6.0395203
1493695465440	-2.8553314	-8.9483185	-3.5139923
1493695465440	-3.9209442	-8.388138	-2.0168304
1493695465440	-2.369278	-7.331909	0.5996399
1493695465440	-0.5032501	-7.652405	1.2862091
1493695465440	0.40602112	-8.309982	1.6551056
1493695465440	0.51779175	-8.69989	3.5072937
1493695465440	-0.4380951	-9.942047	0.6405487
1493695465440	-0.76638794	-11.148392	-2.1106873
1493695465440	0.14871216	-11.413269	-4.5315857
1493695465440	1.3302002	-12.66275	-5.584839
1493695465440	0.06529236	-12.630112	-3.1904144
1493695465440	-0.0927887	-11.01622	-0.085250854
1493695465440	2.9306946	-10.796494	0.65182495
1493695465440	2.648117	-11.801392	-3.5793762
1493695465440	-0.31054688	-13.805344	-6.795822
1493695465440	0.67819214	-14.787872	-3.5091095
1493695465440	-0.51130676	-14.737076	-2.6079407
1493695465441	-1.8774567	-13.152115	-1.2106934
1493695465441	-2.7512054	-12.033966	1.8327637
1493695465441	-2.6577148	-12.584686	4.1185303
1493695465441	-5.119446	-13.136597	3.941101
1493695465441	-8.5885315	-16.980957	0.74320984
1493695465441	-5.8631287	-17.225372	-1.0870667
1493695465441	-1.7413635	-13.0598755	-1.6477814
1493695465441	5.6052704	-10.030106	0.35061646
1493695465441	6.135803	-9.692291	0.5532837
1493695465441	-0.4688568	-7.7338715	1.9148254
1493695465441	-2.8144531	-5.854782	2.137558
1493695465441	-3.153244	-4.457855	2.355484
1493695465441	-2.923584	-3.249878	2.58284
1493695465441	-3.3703003	-3.6774292	2.6624908
1493695465441	-3.1308594	-4.5125732	1.5326996
1493695465441	-3.298874	-4.152588	2.1138458
1493695465441	-3.627411	-2.6040344	2.3616486
1493695465441	-3.1367645	-1.2943115	2.2209473
1493695465441	-2.8220215	-2.209259	0.90400696
1493695465441	-2.5741272	-7.201706	-4.7388
1493695465441	-1.8895264	-14.951813	-15.02565
1493695465441	0.0741272	-19.474823	-19.441193
1493695465441	-0.017562866	-17.362595	-14.924164
1493695465441	-1.1358185	-9.513824	-4.540741
1493695465441	-2.2932281	-1.3565369	-1.0781708
1493695465441	-4.701126	-3.3583832	-2.515976
1493695465441	-5.3925323	-14.690094	1.2592316
1493695465441	-0.93218994	-17.038727	5.2493134
1493695465441	-0.8950348	-9.9557495	0.4141693
1493695465441	-2.2623596	-4.1333466	-1.5646667
1493695465441	-4.9582367	-4.719742	3.9200745
1493695465441	-5.4202576	-7.7361298	6.5737305
1493695465441	-4.570404	-9.307785	5.3941345
1493695465441	-3.1515808	-9.908447	2.6490936
1493695465441	-0.70706177	-10.580872	2.6352692
1493695465441	1.9275818	-12.385284	4.4296722
1493695465441	3.2585144	-13.331314	4.7875977
1493695465441	4.538208	-12.60054	-1.9854431
1493695465441	2.0997467	-10.730881	-5.153656
1493695465442	-2.1998596	-9.435242	-2.8819275
1493695465442	-4.0901184	-8.680939	-1.759018
1493695465442	-3.1270905	-7.873123	0.18632507
1493695465442	-1.3282471	-7.5523834	0.93418884
1493695465442	0.15805054	-7.618927	0.4704132
1493695465442	0.39231873	-8.221588	0.16151428
1493695465442	-0.12109375	-9.248657	1.3628235
1493695465442	-0.58210754	-10.659592	0.11506653
1493695465442	0.3045807	-10.951279	-1.4304352
1493695465442	1.4378815	-11.224182	-3.8473053
1493695465442	1.4687195	-11.907684	-3.6474304
1493695465442	0.5029602	-11.822708	-1.1515503
1493695465442	1.3309174	-12.080109	1.3629761
1493695465442	1.6256866	-12.934341	-0.16448975
1493695465442	-0.39585876	-13.661697	-3.2881775
1493695465442	-2.5372162	-13.932983	-5.6106415
1493695465442	-0.8275757	-13.480621	-3.7341309
1493695465442	0.9355316	-13.426559	-0.571579
1493695465442	-0.22409058	-11.971161	-2.0152435
1493695465442	-3.0624237	-11.520554	2.8381195
1493695465442	-3.8155365	-11.267487	5.175186
1493695465442	-5.827408	-11.3594055	5.487015
1493695465442	-8.468521	-13.827881	1.3450012
1493695465442	-7.5695496	-17.033447	-3.9039764
1493695465442	-3.0777283	-15.076492	-1.3142853
1493695465442	4.2061157	-12.944641	0.5289612
1493695465442	6.599106	-12.167603	0.23428345
1493695465442	1.809967	-9.092758	2.7208557
1493695465442	-2.8215637	-5.6618195	3.0586395
1493695465442	-3.2720184	-3.7883148	3.328247
1493695465442	-3.6582947	-3.3240051	3.4429321
1493695465442	-3.925644	-3.080124	3.332199
1493695465442	-4.095093	-3.122757	2.4681702
1493695465442	-3.7340546	-2.5426178	2.4951324
1493695465442	-3.6279907	-0.8618164	2.8233948
1493695465442	-3.277954	-0.32540894	2.3557434
1493695465442	-2.7401123	-2.5075989	0.78497314
1493695465442	-1.9731903	-7.7951202	-5.9078064
1493695465442	-2.2179718	-16.66182	-19.437546
1493695465442	-2.843399	-19.474823	-18.039932
1493695465442	-1.2975769	-15.716812	-10.497559
1493695465442	-1.1620483	-4.8462067	-2.2159424
1493695465443	-2.684555	1.2286224	-1.1266785
1493695465443	-7.8503876	-6.2148438	-1.5855103
1493695465443	-5.5672913	-16.554886	-0.5193634
1493695465443	0.8905182	-16.006607	2.613678
1493695465443	0.81941223	-6.813629	0.55244446
1493695465443	-1.3271942	-1.0883789	-0.67222595
1493695465443	-3.8988342	-3.6529388	4.1129913
1493695465443	-4.6137543	-7.008148	5.9430847
1493695465443	-4.117279	-8.859146	5.7483063
1493695465443	-4.2166443	-11.150894	4.302475
1493695465443	-2.1509857	-13.237579	2.1093292
1493695465443	1.467392	-13.729034	2.6114807
1493695465443	3.3323364	-12.095947	5.005493
1493695465443	4.0991516	-11.222061	2.3931122
1493695465443	1.5819244	-10.355682	-5.030533
1493695465443	-2.4943542	-10.418442	-5.1889343
1493695465443	-4.221573	-9.431854	-3.9058228
1493695465443	-2.8676147	-8.009644	-1.8334045
1493695465443	-1.0991364	-7.891144	0.4884491
1493695465443	0.10559082	-8.177429	0.7554779
1493695465443	0.67276	-8.220444	1.3629761
1493695465443	0.66864014	-8.244232	1.4571228
1493695465443	-0.42904663	-9.070038	1.242981
1493695465443	-0.6988983	-9.665527	-0.7029724
1493695465443	0.32029724	-10.547119	-3.7343903
1493695465443	0.58203125	-11.649109	-3.9608154
1493695465443	-1.4532013	-11.525848	-1.8253784
1493695465443	1.2150574	-11.329285	0.7490387
1493695465443	3.122345	-11.644287	1.9452515
1493695465443	2.352005	-13.174057	-2.8645172
1493695465443	-2.1789093	-15.199417	-5.5333405
1493695465443	-0.9994812	-15.479126	-3.6150208
1493695465443	0.5183258	-14.707123	-2.4860992
1493695465443	-2.1155853	-13.7034	-5.2697754
1493695465443	-2.355362	-12.917267	1.5769501
1493695465443	-4.1442413	-12.453766	4.763214
1493695465443	-5.5832367	-12.924774	6.8060913
1493695465443	-6.8130493	-12.75502	3.708725
1493695465443	-6.66304	-14.5546875	-2.2967834
1493695465443	-3.0343475	-14.696594	-4.109665
1493695465443	3.1391144	-12.377228	-1.059082
1493695465443	9.971603	-10.695572	2.89888
1493695465444	1.5716705	-9.323151	1.968399
1493695465444	-1.695694	-5.9637604	2.7682495
1493695465444	-3.1769867	-4.3258057	2.827011
1493695465444	-3.3195953	-3.6770935	2.7639313
1493695465444	-3.8214417	-3.5776672	2.6256256
1493695465444	-3.8620758	-4.0318604	1.9230194
1493695465444	-3.6086273	-3.6251678	2.145401
1493695465444	-3.6845703	-1.9455261	2.5525818
1493695465444	-3.291809	-0.5603485	2.4491425
1493695465444	-2.752121	-1.2739716	1.5274658
1493695465444	-2.1238708	-5.404114	-2.5243988
1493695465444	-2.154831	-13.501694	-11.766724
1493695465444	-2.6139984	-19.474823	-19.722397
1493695465444	-1.550705	-18.382507	-14.272339
1493695465444	-0.55973816	-11.3263855	-5.6581573
1493695465444	-0.41056824	-0.5083008	-1.686615
1493695465444	-3.9867096	-1.2666016	-0.91877747
1493695465444	-8.255188	-11.65097	0.4258728
1493695465444	-6.341675	-16.74173	0.7075653
1493695465444	-0.94151306	-13.298599	-1.1966858
1493695465444	0.20152283	-7.076233	2.741623
1493695465444	-2.942505	-5.2940216	5.6056366
1493695465444	-5.03508	-6.8597565	6.07518
1493695465444	-4.5786285	-8.117691	5.8105316
1493695465444	-3.2158966	-9.129959	3.7107239
1493695465444	-2.918808	-10.507233	0.3505249
1493695465444	-1.7902222	-11.938232	0.6248627
1493695465444	1.3121643	-12.946121	3.0647278
1493695465444	3.7001038	-13.044464	7.2388916
1493695465444	4.2737427	-12.034607	-2.3742676
1493695465444	0.7253418	-10.189682	-4.438919
1493695465444	-2.3234863	-9.184769	-2.8878021
1493695465444	-2.782486	-8.275757	-1.9080658
1493695465444	-1.4266052	-8.232742	0.04637146
1493695465444	0.19181824	-8.317902	0.18424988
1493695465444	0.48472595	-8.470169	0.76297
1493695465444	-0.09046936	-8.746689	0.4981079
1493695465444	-1.5466614	-9.776779	0.23086548
1493695465444	-0.9035492	-10.542725	-2.1374512
1493695465444	0.57803345	-10.572983	-4.0086823
1493695465444	1.7631378	-12.050568	-2.2266235
1493695465444	-1.2460632	-11.38414	0.2593689
1493695465445	0.28541565	-10.22406	-0.6269684
1493695465445	3.7332916	-11.373825	-1.7557373
1493695465445	4.0200195	-14.173111	-5.5542297
1493695465445	-0.20339966	-14.555191	-1.4727936
1493695465445	-2.4084625	-14.714493	-5.3405914
1493695465445	0.37724304	-14.444931	-3.2206116
1493695465445	-0.1847992	-13.297195	-2.1146393
1493695465445	-2.673294	-13.402603	2.6512299
1493695465445	-5.6499786	-13.607254	3.2595825
1493695465445	-8.517471	-14.948883	5.4954376
1493695465445	-9.535614	-15.944214	3.3835144
1493695465445	-5.001648	-14.412308	-0.6653595
1493695465445	0.35339355	-11.173019	-2.1080017
1493695465445	8.790405	-10.320602	-0.85165405
1493695465445	5.3913727	-12.570892	-1.6703339
1493695465445	0.15640259	-9.67247	0.58410645
1493695465445	-2.1890106	-6.3171234	3.1527405
1493695465445	-3.8850098	-3.8549194	3.175415
1493695465445	-4.5221405	-2.6659698	3.619751
1493695465445	-5.0043793	-2.6875153	2.7940369
1493695465445	-4.5802155	-3.2077332	1.628128
1493695465445	-4.064499	-2.9334564	2.106018
1493695465445	-3.7275696	-2.0828247	2.6636963
1493695465445	-3.4934235	-1.4130707	2.720047
1493695465445	-3.4782867	-2.207016	1.3382874
1493695465445	-2.3811188	-6.3476105	-3.0699768
1493695465445	0.05937195	-14.468155	-12.66008
1493695465445	-0.24250793	-19.474823	-19.722397
1493695465445	-1.2419891	-16.742096	-12.512329
1493695465445	-1.0947571	-7.096466	-3.7320404
1493695465445	-1.5585632	3.0698853	-0.91500854
1493695465445	-5.633026	-0.9003906	-1.7592926
1493695465445	-8.192795	-13.317627	-1.0149536
1493695465445	-2.5374603	-18.96907	0.25476074
1493695465445	0.72976685	-13.433426	-0.5520325
1493695465445	-1.6645203	-6.3040314	1.5644989
1493695465445	-5.060837	-5.2339783	3.0801392
1493695465445	-5.2766876	-7.2489777	4.345566
1493695465445	-4.080307	-8.434219	4.9776917
1493695465445	-2.6033478	-9.16127	4.2864075
1493695465445	-1.7833862	-10.321869	2.0812683
1493695465445	1.0142365	-11.353317	3.1741943
1493695465445	3.435196	-12.826736	5.307251
1493695465445	4.907852	-12.901306	-2.2516174
1493695465446	1.8040771	-10.683609	-4.970581
1493695465446	-3.3225708	-9.93161	-2.1262817
1493695465446	-4.176956	-8.962845	-2.2892761
1493695465446	-2.8447113	-7.699005	0.6411896
1493695465446	-0.36997986	-7.540573	1.3800201
1493695465446	0.94189453	-8.025024	1.0108643
1493695465446	1.0708923	-8.586365	3.6560822
1493695465446	0.052627563	-10.067322	-1.7661438
1493695465446	-1.0371246	-11.13739	-2.4152832
1493695465446	0.004852295	-11.20076	-4.0584106
1493695465446	1.5657959	-10.781128	-5.9349365
1493695465446	1.4080658	-11.875229	-1.8594513
1493695465446	-1.0165558	-11.4735565	1.4615021
1493695465446	-0.13278198	-10.638824	-0.58122253
1493695465446	1.6726685	-11.361313	-1.8694
1493695465446	3.6020203	-13.554352	-3.7162476
1493695465446	1.6755524	-14.051987	-1.9661407
1493695465446	-3.7626953	-13.8953705	-2.702301
1493695465446	-3.2303772	-14.863327	-4.1206512
1493695465446	-1.4420319	-14.194046	0.23852539
1493695465446	-2.0583649	-13.939743	2.3681183
1493695465446	-2.5743713	-13.008636	4.6276855
1493695465446	-5.117279	-13.479355	4.776413
1493695465446	-8.786636	-15.42421	0.37934875
1493695465446	-6.077896	-14.740723	-1.8371582
1493695465446	-1.167511	-10.413071	0.44029236
1493695465446	8.294739	-8.411331	0.57917786
1493695465446	3.6799622	-9.611618	-0.31925964
1493695465446	0.9013977	-6.90921	2.039734
1493695465447	-2.1322937	-5.5924683	2.5302582
1493695465447	-4.610153	-4.227722	2.480896
1493695465447	-5.2065277	-3.452011	2.3324127
1493695465447	-4.5695496	-3.3299408	1.5769501
1493695465447	-3.5858002	-2.7382507	1.1260223
1493695465447	-3.2179565	-1.6353455	1.2397461
1493695465447	-2.4533234	-1.1377869	1.6748962
1493695465447	-2.0282288	-1.5930481	1.3242493
1493695465447	-1.6697235	-3.2182465	-0.78471375
1493695465447	-0.7955322	-8.106644	-7.0534363
1493695465447	1.8387909	-15.711899	-15.856308
1493695465447	2.5366364	-19.474823	-18.930756
1493695465447	1.0175171	-17.114868	-11.675964
1493695465447	-0.21607971	-7.2480774	-3.9420624
1493695465447	-4.088562	-0.11735535	-1.8676605
1493695465447	-9.577026	-7.0727386	0.2555542
1493695465447	-8.637634	-14.123779	3.6407013
1493695465447	-2.6071472	-13.861847	-6.778183
1493695465447	1.2265167	-10.055542	-1.2457428
1493695465447	-0.250412	-6.4665375	5.5909424
1493695465447	-2.640747	-5.654175	5.063202
1493695465447	-3.5723114	-6.335037	5.24411
1493695465447	-3.124176	-7.908493	4.6737366
1493695465447	-1.4287109	-9.310455	3.756012
1493695465447	-2.2872772	-12.469147	1.1164246
1493695465447	2.1725006	-13.366669	1.9546356
1493695465447	3.5013123	-12.612747	5.4531555
1493695465447	2.6200256	-10.646912	3.5312042
1493695465447	0.56944275	-9.2161255	-6.6422424
1493695465447	-3.1234436	-8.978119	-4.0126038
1493695465447	-3.6973114	-8.263382	-2.3708038
1493695465447	-2.0954132	-7.650635	0.39578247
1493695465447	-0.7713318	-8.088959	1.3874664
1493695465447	0.24586487	-9.024017	1.7445374
1493695465447	0.28656006	-9.984787	1.4563293
1493695465447	-0.52523804	-10.725204	0.87893677
1493695465447	-0.34628296	-11.05542	-1.0054932
1493695465447	1.6961517	-11.344498	-4.665741
1493695465447	2.8503418	-13.091507	-4.081848
1493695465447	1.3752441	-12.268906	-1.7200928
1493695465447	0.035095215	-12.185318	-1.132843
1493695465447	2.3705597	-12.095245	0.119781494
1493695465448	1.2663727	-12.677002	-2.7133942
1493695465448	-1.6371155	-14.006622	-6.909683
1493695465448	-2.4734497	-14.906662	-2.1303558
1493695465448	-2.9666595	-15.074158	-1.4936676
1493695465448	-3.0906982	-12.764877	-0.5505829
1493695465448	-3.5404816	-11.6306305	1.896225
1493695465448	-2.6594849	-11.162552	5.883194
1493695465448	-4.9177094	-12.6996765	4.6458893
1493695465448	-7.1542664	-15.910385	0.3821106
1493695465448	-4.870926	-17.051086	-2.8759308
1493695465448	1.2342072	-13.734848	0.24307251
1493695465448	8.691696	-11.560684	2.1424103
1493695465448	4.4205017	-11.253357	1.8612366
1493695465448	-1.5848236	-7.2928925	1.7225342
1493695465448	-3.0669403	-4.3261414	2.538742
1493695465448	-3.7541199	-2.9964142	3.2350311
1493695465448	-3.711609	-2.6023865	3.6420593
1493695465448	-3.7903748	-3.0618744	2.5861053
1493695465448	-3.3711243	-3.3037262	1.9333954
1493695465448	-3.123352	-2.1253815	2.2641907
1493695465448	-2.740097	-0.46070862	2.412033
1493695465448	-2.3104095	-0.8333893	1.5764465
1493695465448	-1.8084564	-4.6103516	-1.5859985
1493695465448	-1.3552704	-13.600143	-12.128967
1493695465448	-3.1866302	-19.474823	-19.722397
1493695465448	-2.787674	-19.474823	-12.421661
1493695465448	-1.7193451	-12.605255	-4.4760437
1493695465448	-2.0417633	-1.778122	-1.4800262
1493695465448	-6.9028015	-1.5878296	-3.182602
1493695465448	-10.466248	-10.223328	-2.3117065
1493695465448	-3.8353577	-14.625473	3.63031
1493695465448	0.08087158	-12.786255	0.72943115
1493695465448	-0.16925049	-7.4939117	1.7125549
1493695465448	-1.595932	-5.6790314	4.4733276
1493695465448	-3.8493347	-7.7988434	6.0694427
1493695465448	-4.1305847	-9.460236	5.5345306
1493695465448	-3.3509827	-10.707199	3.9276428
1493695465448	-0.121536255	-11.161819	3.166748
1493695465448	1.804657	-12.890152	3.0198212
1493695465448	3.283554	-12.738358	3.4470215
1493695465448	4.1812286	-11.386734	-0.044433594
1493695465448	-0.11883545	-9.929749	-3.8842163
1493695465448	-3.4206085	-10.230698	-2.1730804
1493695465448	-5.041382	-9.452942	-1.5919647
1493695465449	-3.3131714	-7.4996033	-0.65574646
1493695465449	-1.5538788	-7.0488586	-0.067474365
1493695465449	0.042297363	-7.21727	-0.09326172
1493695465449	0.5615387	-7.940384	0.64360046
1493695465449	0.2446289	-8.607254	3.2868958
1493695465449	-0.2185669	-10.124771	0.91148376
1493695465449	-0.013214111	-11.014252	-0.17893982
1493695465449	1.4965515	-11.853104	-3.7656708
1493695465449	2.8724823	-12.9086	-6.365265
1493695465449	1.9314728	-12.0811	-3.8828735
1493695465449	1.955246	-11.925842	-0.45074463
1493695465449	2.879898	-11.693344	2.2663116
1493695465449	1.6498566	-12.418091	-2.2470398
1493695465449	-1.4100494	-13.587677	-7.6243896
1493695465449	-2.1752777	-14.829315	-2.094925
1493695465449	-1.9021149	-15.731827	-2.0088043
1493695465449	-2.4297028	-12.885895	-1.4423981
1493695465449	-3.1468506	-11.291336	2.4923096
1493695465449	-3.8722992	-11.077209	4.3547516
1493695465449	-5.861252	-12.259781	4.4814453
1493695465449	-7.6776123	-15.765244	0.38412476
1493695465449	-5.600464	-16.848007	-1.8438263
1493695465449	-1.9883728	-14.254623	-1.0547028
1493695465449	3.54187	-11.428467	0.21937561
1493695465449	7.159668	-10.791458	1.1537476
1493695465449	0.6530609	-9.757935	2.3087616
1493695465449	-3.1065674	-6.1692963	2.5983276
1493695465449	-4.039032	-4.1035004	3.0881042
1493695465449	-3.9274597	-3.6776733	3.018814
1493695465449	-3.6081848	-3.8981476	2.6265564
1493695465449	-3.329605	-4.093399	2.0137787
1493695465449	-3.1884308	-3.0056305	2.1608124
1493695465449	-3.0435944	-1.313736	2.3960114
1493695465449	-2.704193	-0.6954193	2.0397644
1493695465449	-2.024765	-2.5482178	0.27801514
1493695465449	-1.2194366	-7.8803406	-6.687744
1493695465449	-0.6280365	-15.833405	-16.059708
1493695465449	-0.9279938	-19.474823	-19.722397
1493695465449	-1.1836548	-16.704391	-10.9831085
1493695465449	-1.1331177	-6.4428406	-1.8113708
1493695465449	-1.3569794	2.611786	-1.1201019
1493695465450	-7.0225525	-3.4174347	-2.9517212
1493695465450	-9.294022	-14.11586	0.60302734
1493695465450	-4.456726	-18.152786	-2.8118134
1493695465450	-0.4502716	-11.204956	-1.4628906
1493695465450	-2.2493286	-4.2029114	1.709732
1493695465450	-3.8464813	-4.6140747	4.770691
1493695465450	-4.9568176	-9.044617	5.538254
1493695465450	-4.850189	-10.959534	5.42247
1493695465450	-3.696167	-12.086273	2.184372
1493695465450	0.4437561	-12.278671	3.1959076
1493695465450	3.908493	-12.636719	5.3822327
1493695465450	4.8690643	-13.827179	7.3550873
1493695465450	4.054016	-12.646606	-7.537277
1493695465450	-0.9834442	-10.160599	-3.1241608
1493695465450	-4.3041534	-10.264786	-1.7490845
1493695465450	-4.3454742	-8.247147	0.20533752
1493695465450	-3.0963745	-6.81546	-0.19511414
1493695465450	-1.5377197	-6.327896	-0.2781372
1493695465450	-0.026107788	-7.252945	-0.59710693
1493695465450	0.31515503	-7.6674805	0.4394989
1493695465450	0.37976074	-8.224747	1.6533661
1493695465450	-0.6069031	-9.577423	1.85495
1493695465450	-0.04875183	-10.360245	-0.30036926
1493695465450	1.3190765	-10.177231	-3.9990234
1493695465450	2.0691528	-11.295578	-5.7540894
1493695465450	1.0059509	-12.395691	-3.5375214
1493695465450	-0.9302368	-11.938156	-2.078888
1493695465450	0.34623718	-11.566284	-0.07118225
1493695465450	2.5132294	-12.023651	0.32867432
1493695465450	1.4259796	-13.251495	-3.7333832
1493695465450	-1.5127869	-13.599457	-4.1363373
1493695465450	-1.4324188	-14.4431305	-4.049576
1493695465450	1.210556	-14.0946045	-2.3651733
1493695465450	-0.16523743	-13.33786	-0.46281433
1493695465450	-2.8742828	-12.78125	3.3055115
1493695465451	-5.363388	-12.719681	4.072754
1493695465451	-7.5448456	-13.53302	3.164795
1493695465451	-8.6826935	-15.444244	1.1361542
1493695465452	-4.8107147	-14.371857	-0.5699158
1493695465452	-0.16583252	-11.76239	-0.9749603
1493695465452	4.4465637	-10.568359	0.53726196
1493695465452	4.74028	-10.6944275	1.3862152
1493695465452	-0.14561462	-9.259216	1.5842285
1493695465452	-2.4302063	-6.454422	2.472458
1493695465452	-3.6984406	-4.9906464	2.9502106
1493695465452	-4.0529785	-4.234833	2.992096
1493695465452	-4.350601	-3.8421478	2.3852081
1493695465452	-4.1267853	-3.414734	2.1958618
1493695465452	-3.8492584	-2.335556	2.454193
1493695465452	-3.2824554	-0.8724823	2.411728
1493695465452	-2.692688	-0.29656982	2.0931244
1493695465452	-2.3700104	-2.159729	0.12449646
1493695465452	-1.48349	-8.033264	-7.9490356
1493695465452	-0.2622528	-16.684189	-17.268463
1493695465452	-3.0417786	-19.474823	-19.722397
1493695465452	-2.7398071	-16.098953	-9.3367
1493695465452	-1.5782318	-5.5196686	-2.6743011
1493695465452	-2.929657	2.3435516	-1.4732208
1493695465452	-8.567429	-5.005005	-0.8091736
1493695465452	-8.186539	-15.358475	3.3191833
1493695465452	-2.0799255	-14.54776	-2.5604553
1493695465452	0.6938019	-7.719574	3.0020294
1493695465452	-2.5089722	-5.7965393	3.6246796
1493695465452	-4.4630737	-7.543747	5.187439
1493695465452	-4.653015	-9.481491	5.331604
1493695465452	-3.2950897	-10.141785	5.3513184
1493695465452	-1.4738312	-10.640259	3.6219482
1493695465452	1.1213379	-11.049744	3.990036
1493695465452	2.329712	-13.352798	3.9582367
1493695465452	4.790756	-13.292053	4.4991913
1493695465452	4.2265625	-11.902557	-5.892517
1493695465452	-1.7097931	-9.929901	-3.578308
1493695465452	-3.9637756	-10.291183	-1.5597382
1493695465452	-3.8708954	-8.701553	-1.3695984
1493695465452	-3.3338776	-7.2163544	-0.66815186
1493695465452	-1.0121307	-6.8569183	0.69039917
1493695465452	0.3448639	-7.4861755	-0.26835632
1493695465452	1.2871246	-8.449844	0.32115173
1493695465452	1.0245514	-9.326477	1.0786285
1493695465452	0.030883789	-10.069321	0.2672119
1493695465452	0.6864929	-9.893204	-1.2612762
1493695465453	2.2020264	-10.301315	-3.9979706
1493695465453	2.69635	-11.692062	-4.137924
1493695465453	0.48908997	-11.737366	-1.392334
1493695465453	0.58891296	-11.324799	-0.20993042
1493695465453	2.262558	-11.355103	0.7006378
1493695465453	0.60343933	-12.046707	-2.7829895
1493695465453	-2.8279572	-13.394226	-5.5365906
1493695465453	-1.4203339	-15.195831	-3.3202515
1493695465453	0.63941956	-16.031403	-2.284912
1493695465453	-0.41755676	-14.058212	-2.610733
1493695465453	-1.6835022	-12.113327	0.5644226
1493695465453	-4.3978424	-11.795746	3.759903
1493695465453	-6.486328	-12.855576	5.5605927
1493695465453	-8.372467	-15.254562	3.5321198
1493695465453	-5.805771	-15.941071	-1.0336304
1493695465453	-1.4763184	-14.392029	-2.572876
1493695465453	6.3093414	-11.901306	-1.5614319
1493695465453	8.787659	-11.738937	-0.06211853
1493695465453	2.1017761	-10.70578	2.4546509
1493695465453	-2.1084747	-6.874176	2.917389
1493695465453	-4.1915283	-4.2533417	3.45018
1493695465453	-3.9543762	-3.115387	3.3190155
1493695465453	-3.3017426	-3.596527	2.551834
1493695465453	-3.083496	-4.1832123	1.7690125
1493695465453	-2.9342804	-3.7321472	1.8077087
1493695465453	-2.889206	-2.0269165	2.3959808
1493695465453	-2.714798	-0.51130676	2.4983673
1493695465453	-2.1241608	-0.95098877	1.8320923
1493695465453	-2.0523224	-4.871002	-1.7643585
1493695465453	-3.6348877	-14.319519	-14.490067
1493695465453	-3.458191	-19.01976	-19.722397
1493695465453	-0.34609985	-19.474823	-11.800262
1493695465453	-1.0273743	-10.853088	-2.93013
1493695465453	-2.6147614	0.39404297	0.50161743
1493695465453	-8.919022	-2.594223	-2.1317902
1493695465453	-11.607346	-11.959427	-2.7128143
1493695465453	-0.9616699	-16.97966	-0.23051453
1493695465453	1.798645	-11.590134	3.074997
1493695465453	-1.0005798	-3.6789398	1.1919708
1493695465453	-2.4907074	-3.6036682	3.9992523
1493695465453	-5.706558	-9.623154	6.508377
1493695465454	-4.6574097	-10.38652	5.05455
1493695465454	-3.3427582	-10.98436	4.309494
1493695465454	-1.8908386	-12.3564	1.1774445
1493695465454	3.5186615	-12.579758	5.087509
1493695465454	3.5299683	-14.303513	5.1740265
1493695465454	5.6371155	-12.47377	-3.1542969
1493695465454	1.591629	-10.641449	-7.8471375
1493695465454	-5.416504	-10.604706	2.3514557
1493695465454	-4.1454315	-8.669022	-0.8286438
1493695465454	-4.4879	-7.153076	-0.46665955
1493695465454	-2.3838654	-6.4649353	-0.6832886
1493695465454	-0.75245667	-7.029602	-0.28424072
1493695465454	0.6228943	-7.6408386	0.8648987
1493695465454	1.135849	-8.287735	2.0922394
1493695465454	0.12013245	-9.047775	1.6549225
1493695465454	0.13108826	-9.270828	1.2522125
1493695465454	0.81059265	-10.31041	-2.2077637
1493695465454	2.7059784	-11.855576	-7.671768
1493695465454	2.9260406	-13.672333	-7.6135406
1493695465454	1.7035217	-13.022522	-2.5117035
1493695465454	1.7235107	-11.858658	0.085861206
1493695465454	2.9651642	-12.591278	0.21916199
1493695465454	2.0563965	-14.794861	-2.653656
1493695465454	-0.38137817	-15.536407	-3.9688873
1493695465454	-0.40589905	-15.852173	-3.1654663
1493695465454	1.062027	-15.225586	0.060913086
1493695465454	-0.14578247	-13.569122	1.0894928
1493695465454	-2.2280731	-12.659409	1.5958252
1493695465454	-4.63855	-12.605621	2.7153625
1493695465454	-4.9595795	-12.721237	6.2577057
1493695465454	-5.1009216	-13.34108	6.9210663
1493695465454	-3.6790466	-14.922928	3.5745087
1493695465454	-0.22567749	-15.138443	-1.4789276
1493695465454	3.645813	-14.036743	-0.05342102
1493695465454	4.0074463	-12.636032	2.3465729
1493695465454	0.03677368	-8.882263	1.6803284
1493695465454	-3.0797882	-4.4840393	2.8097992
1493695465454	-4.5376434	-3.1055908	3.5559998
1493695465454	-4.6259003	-3.6044312	4.070389
1493695465454	-4.904251	-4.376938	3.8456879
1493695465454	-5.3572693	-4.0173798	3.5042267
1493695465454	-5.2650604	-2.6483154	3.8812408
1493695465455	-4.7361603	-1.7068481	3.6646729
1493695465455	-4.4331512	-0.90335083	2.729477
1493695465455	-3.9575195	-1.5896759	-0.3465271
1493695465455	-2.6495209	-5.781708	-8.910461
1493695465455	-1.1992645	-14.366638	-15.08078
1493695465455	-8.395721	-18.891022	-18.89096
1493695465455	-4.8083344	-18.798279	-12.443405
1493695465455	-1.5157776	-11.617004	-5.255478
1493695465455	-0.8955841	-4.2741547	-2.6034698
1493695465455	-6.7986603	-3.6002045	-5.8316956
1493695465455	-11.205093	-9.113525	-5.521454
1493695465455	-5.713394	-17.834824	-1.0349731
1493695465455	1.758606	-10.894302	4.799698
1493695465455	0.3456421	-3.1910706	6.720352
1493695465455	-1.316864	-1.6999817	1.0914764
1493695465455	-5.1957855	-6.327942	5.4161377
1493695465455	-4.3041077	-9.675858	4.5332184
1493695465455	-4.177597	-11.730789	4.327759
1493695465455	-4.556961	-12.871246	1.9421234
1493695465455	1.4964294	-12.756378	1.9653625
1493695465455	4.7375946	-14.481979	3.947754
1493695465455	6.941635	-13.293381	2.138321
1493695465455	3.3970184	-10.450531	-4.3156586
1493695465455	-2.4547272	-9.644943	-0.31121826
1493695465455	-4.049057	-8.789124	-0.81144714
1493695465455	-4.9231873	-7.9823914	-0.768692
1493695465455	-2.9158325	-6.735306	0.34266663
1493695465455	-0.79190063	-7.150711	0.979126
1493695465455	0.9112091	-7.841095	1.7541046
1493695465455	1.7149963	-9.085068	1.5445557
1493695465455	1.1664276	-10.47493	-0.7055664
1493695465455	1.3248901	-11.006561	-1.0950623
1493695465455	2.0178528	-10.746414	-3.3431396
1493695465455	2.213913	-11.3424225	-4.045532
1493695465455	0.77645874	-11.904251	-2.780899
1493695465455	-0.277359	-11.749359	-1.275711
1493695465455	1.7597046	-11.583374	-0.350708
1493695465455	1.1156311	-12.577621	-1.9476776
1493695465455	-0.8793793	-13.794205	-5.160034
1493695465455	-0.97010803	-15.712662	-5.253006
1493695465455	-0.04612732	-15.62999	-3.0030975
1493695465455	-1.9706268	-13.520874	-2.9220428
1493695465455	-4.870514	-12.624908	-0.5667877
1493695465455	-5.6586456	-12.861084	3.7327576
1493695465456	-6.1217194	-12.882721	5.3908844
1493695465456	-7.4874573	-14.164444	3.2393188
1493695465456	-6.537094	-15.827591	-0.14758301
1493695465456	-2.9718933	-14.970322	-1.9656525
1493695465456	6.099289	-12.086899	-0.5852356
1493695465456	8.282181	-11.143509	1.0932465
1493695465456	2.1970215	-9.11644	2.2008972
1493695465456	-1.5476685	-5.989731	2.4053955
1493695465456	-2.8296967	-4.0947723	3.2154388
1493695465456	-2.99115	-2.8017426	3.5077972
1493695465456	-3.3188477	-3.292923	2.7583466
1493695465456	-2.91156	-3.5525818	2.1619263
1493695465456	-3.09198	-2.193222	2.199173
1493695465456	-3.3688965	-0.2590027	2.3799438
1493695465456	-3.2627716	0.1767273	2.4095001
1493695465456	-2.7941132	-1.3505096	1.0561218
1493695465456	-2.184906	-6.5364227	-5.4353485
1493695465456	0.51493835	-16.981262	-17.029526
1493695465456	-2.3848114	-19.474823	-19.722397
1493695465456	-1.8128662	-17.708527	-9.838608
1493695465456	-0.9651642	-4.9164734	-3.7342834
1493695465456	0.21290588	4.5293427	-1.5350647
1493695465456	-6.464203	-2.558136	-3.607666
1493695465456	-7.6131897	-16.625046	0.25263977
1493695465456	-2.0991821	-19.299576	-0.89131165
1493695465456	1.3822327	-11.348297	1.4055023
1493695465456	-2.7818909	-3.475418	2.3026886
1493695465456	-5.8774414	-3.2848663	3.7710724
1493695465456	-6.307831	-7.3108826	6.690506
1493695465456	-5.1650543	-8.87027	5.6105804
1493695465456	-3.289383	-9.893631	5.7450867
1493695465456	-3.7511902	-11.536285	-0.21369934
1493695465456	0.47283936	-11.816467	2.6219177
1493695465456	4.219467	-13.248474	5.5345306
1493695465456	5.0312805	-14.307983	8.9205475
1493695465456	3.2763672	-11.202911	-7.3808746
1493695465456	-1.9737396	-9.25621	-3.000702
1493695465456	-4.206482	-9.078766	-3.593048
1493695465456	-4.06691	-7.9349976	-1.8114777
1493695465456	-1.6955109	-7.363739	0.36932373
1493695465456	-0.075805664	-7.663452	0.96307373
1493695465456	0.38731384	-7.897766	1.9440002
1493695465457	-0.22480774	-8.912903	2.0885773
1493695465457	-0.6141968	-9.758575	-0.31877136
1493695465457	-0.08824158	-10.615723	-2.2460327
1493695465457	0.7991638	-12.325043	-4.4136353
1493695465457	1.1321106	-12.992386	-4.0939636
1493695465457	0.49943542	-11.834854	-1.4781189
1493695465457	2.1416473	-11.581985	0.9075012
1493695465457	3.244217	-12.429932	-0.7416229
1493695465457	0.94177246	-13.961395	-3.6193695
1493695465457	-0.8497772	-14.684296	-4.028015
1493695465457	-0.25769043	-14.336853	-3.220169
1493695465457	-0.21742249	-13.878464	-3.6434479
1493695465457	-1.6963806	-13.259293	-1.7871094
1493695465457	-3.427353	-12.880997	3.281067
1493695465457	-4.7936707	-12.831345	6.30661
1493695465457	-7.5396576	-13.391983	4.9302063
1493695465457	-9.144287	-15.112381	-0.66767883
1493695465457	-6.52829	-14.938538	-3.3674011
1493695465457	-1.2685089	-12.582336	-1.6589355
1493695465457	5.9121704	-11.685532	-0.06843567
1493695465457	5.0473785	-10.81012	1.0563507
1493695465457	0.3501892	-7.658066	2.1655579
1493695465457	-2.7408905	-5.0095367	3.1420593
1493695465457	-4.08432	-3.729721	3.1219177
1493695465457	-4.4099274	-3.2304077	2.7554169
1493695465457	-4.1855927	-3.5010223	1.8135834
1493695465457	-3.5147705	-3.6538544	1.5905304
1493695465457	-3.2528992	-2.6086426	2.4610443
1493695465457	-2.7758026	-1.1973267	2.5085602
1493695465457	-2.3635864	-0.88591003	2.026291
1493695465457	-2.2408142	-2.3569183	0.5007019
1493695465457	-2.2110443	-7.6441803	-6.9328613
1493695465457	-2.0831146	-17.614243	-17.784988
1493695465457	-3.909546	-19.474823	-19.722397
1493695465457	-2.0401154	-17.50151	-9.394272
1493695465457	-2.0864868	-4.539383	-3.4456482
1493695465457	-2.3733978	4.7417755	-1.1680603
1493695465457	-9.645828	-4.4736023	-0.09712219
1493695465457	-9.912781	-14.403641	4.688568
1493695465457	-2.269165	-18.562744	-1.4432831
1493695465457	2.9322968	-13.765884	0.24586487
1493695465457	-0.03642273	-5.5794067	7.5309906
1493695465458	-2.5624237	-5.5646973	4.7738495
1493695465458	-4.6574097	-8.222107	5.8056335
1493695465458	-3.3455048	-9.160507	4.5176544
1493695465458	-2.8454285	-10.170822	2.3712616
1493695465458	-0.26426697	-11.088196	-0.5833893
1493695465458	2.3011627	-13.0407715	3.282364
1493695465458	5.11203	-14.5612335	3.5027618
1493695465458	2.399475	-11.061523	-4.508667
1493695465458	-2.3883514	-9.580093	-0.5082092
1493695465458	-3.700943	-8.919586	-1.1431732
1493695465458	-4.03331	-8.161774	-1.9131775
1493695465458	-2.0846252	-7.7182617	-1.5324097
1493695465458	0.20445251	-7.814514	0.2776184
1493695465458	1.2534637	-8.1380005	0.44540405
1493695465458	1.0115967	-8.642578	1.5146484
1493695465458	0.0717926	-9.012695	3.2835083
1493695465458	-0.86535645	-10.001572	0.1736908
1493695465458	-0.8198395	-10.931198	-2.1510925
1493695465458	0.37539673	-12.16684	-5.5711823
1493695465458	0.8293152	-13.041534	-5.38974
1493695465458	0.1187439	-11.994812	-1.967804
1493695465458	1.6114502	-11.456863	0.6163788
1493695465458	3.4526062	-12.3038025	-0.10597229
1493695465458	2.2519226	-13.9254	-4.6577454
1493695465458	-0.18441772	-14.223099	-5.1608887
1493695465458	-1.0602722	-13.889084	-3.2984161
1493695465458	-0.40751648	-13.699661	-2.641861
1493695465458	0.1602478	-12.753464	0.6599579
1493695465458	-0.74487305	-12.409897	4.255768
1493695465458	-3.667801	-13.139954	4.3759155
1493695465458	-8.212814	-15.748779	1.8486633
1493695465458	-9.146484	-16.915436	-0.48526
1493695465458	-6.3199463	-14.077621	-1.7176361
1493695465458	-1.936966	-10.862656	-0.6536865
1493695465458	4.4444885	-9.671661	0.72657776
1493695465458	5.039917	-10.16687	1.4863892
1493695465458	0.27877808	-8.782166	2.0838165
1493695465458	-2.5845795	-5.803879	3.2914886
1493695465458	-3.6336975	-3.6960907	3.4088593
1493695465458	-3.887497	-3.0136108	2.9186401
1493695465458	-3.828659	-3.1162415	2.1762238
1493695465458	-3.4670563	-3.221161	1.772232
1493695465458	-3.3990936	-2.3463593	2.058014
1493695465459	-2.964508	-0.9503479	2.1280365
1493695465459	-2.6866608	-1.3896484	1.8264313
1493695465459	-2.471115	-3.9060059	-0.5471039
1493695465459	-1.9839172	-10.320267	-13.716705
1493695465459	-4.3226013	-18.400085	-19.222473
1493695465459	-7.1505127	-19.474823	-18.575897
1493695465459	-3.495926	-13.760773	-7.583008
1493695465459	-2.180832	-3.490448	-2.6412659
1493695465459	-5.0214233	2.6844482	-1.7474365
1493695465459	-10.177063	-5.4371796	-3.745758
1493695465459	-6.567978	-14.151947	1.1001434
1493695465459	2.0919952	-18.337173	1.7461243
1493695465459	0.5201416	-10.374298	0.8336334
1493695465459	-0.96784973	-5.152832	2.5729523
1493695465459	-4.106781	-6.125	3.4364471
1493695465459	-4.7903595	-8.090485	5.687042
1493695465459	-2.7807617	-9.504669	6.9316254
1493695465459	-1.9494934	-10.285507	3.211258
1493695465459	-1.7721863	-11.964294	-1.2805481
1493695465459	3.8716125	-14.518494	4.591202
1493695465459	5.87059	-14.290466	6.4891205
1493695465459	3.0223694	-10.608368	-5.479706
1493695465459	-1.947464	-9.022858	-1.2190857
1493695465459	-4.7818756	-9.0017395	-2.249298
1493695465459	-5.0637054	-8.974777	-3.5323792
1493695465459	-2.7041016	-8.10704	-1.4537659
1493695465459	-0.5765991	-7.892029	0.54496765
1493695465459	0.46321106	-8.320404	-0.11091614
1493695465459	0.47209167	-8.703583	-0.6562195
1493695465459	0.27789307	-9.304199	-0.45004272
1493695465459	0.3753662	-9.840027	0.09492493
1493695465459	0.8249817	-9.846573	-0.17919922
1493695465459	1.4667511	-10.475388	-1.12677
1493695465459	2.2910156	-11.121796	-1.3706818
1493695465459	2.8008118	-11.671371	-2.8469086
1493695465459	3.2050629	-12.653519	-3.6464996
1493695465459	3.7523193	-13.638138	-1.175415
1493695465459	1.9110565	-13.711884	-1.3749237
1493695465460	-1.9261475	-13.6262665	-5.2070313
1493695465460	-3.1012726	-14.56514	-5.5414124
1493695465460	-1.498703	-14.658813	-3.7185059
1493695465460	-0.8274231	-12.803452	-0.43147278
1493695465460	-1.8374939	-11.8624115	4.1443024
1493695465460	-3.8999329	-12.263977	5.3571167
1493695465460	-8.037659	-15.164963	2.070938
1493695465460	-10.068359	-18.317123	-0.8158417
1493695465460	-7.3812103	-16.389267	-0.58265686
1493695465460	-2.954361	-12.420822	-0.066085815
1493695465460	5.080124	-10.106033	-0.849411
1493695465460	6.0556183	-10.051498	3.60437
1493695465460	-0.28179932	-7.9250336	3.5574646
1493695465460	-4.125229	-4.4891205	2.8316803
1493695465460	-4.7046356	-3.219574	2.9555817
1493695465460	-4.4288025	-3.1245422	2.4249725
1493695465460	-3.9008942	-3.515854	1.6108856
1493695465460	-2.9900818	-3.8131561	1.2845764
1493695465460	-2.07872	-2.351059	2.251831
1493695465460	-1.0029602	-0.6911621	1.9789886
1493695465460	-0.503891	-0.7335205	1.7083588
1493695465460	-0.5913696	-2.8937683	-0.44937134
1493695465460	-0.2835083	-8.626526	-12.337906
1493695465460	-4.9673767	-18.888397	-19.37909
1493695465460	-6.923004	-19.474823	-19.722397
1493695465460	-2.463913	-17.391922	-6.8517
1493695465460	-2.2158813	-4.305298	-2.7585297
1493695465460	-3.7303162	4.0987396	-1.5688629
1493695465460	-12.030411	-3.0042114	-1.8050537
1493695465460	-13.27388	-12.27243	0.683197
1493695465460	-5.795685	-16.54364	-3.5959015
1493695465460	4.6620026	-15.882462	4.7227173
1493695465460	4.600662	-7.8488464	7.8849792
1493695465460	-0.76171875	-6.29158	5.052994
1493695465461	-2.2096405	-8.120819	6.151535
1493695465461	-2.665039	-10.238861	5.2125244
1493695465461	-1.2066803	-10.834213	3.5611877
1493695465461	0.5261383	-11.78157	2.971222
1493695465461	2.1073456	-13.727295	0.22790527
1493695465461	3.0039063	-13.841934	-6.01503
1493695465461	0.57466125	-9.931122	-3.0050964
1493695465461	-3.1746368	-9.053864	0.4724121
1493695465461	-3.5937195	-8.559555	-0.09854126
1493695465461	-2.954132	-8.269913	-1.536499
1493695465461	-1.5988617	-7.5458374	-0.7914734
1493695465461	-0.18162537	-7.0935364	-0.21142578
1493695465461	0.84088135	-7.4718323	-0.2932434
1493695465461	0.94947815	-8.468201	0.050598145
1493695465461	0.47216797	-9.647186	0.78926086
1493695465461	0.5065918	-10.380936	0.30377197
1493695465461	1.5349121	-10.668732	-1.3253479
1493695465461	2.3121948	-11.870926	-3.084488
1493695465461	1.5243073	-12.6813965	-4.6335297
1493695465461	0.13349915	-12.238998	-3.932663
1493695465461	1.476471	-12.036728	1.1906128
1493695465461	1.8758087	-12.621658	2.198761
1493695465461	-1.9852295	-13.374115	-6.013077
1493695465461	-2.5048523	-14.164047	-7.399826
1493695465461	0.76083374	-14.931335	-2.2803192
1493695465461	1.353836	-13.992203	-1.2750397
1493695465461	0.23435974	-11.991104	0.91334534
1493695465461	-1.1278381	-11.676926	3.7351227
1493695465461	-3.6860657	-12.803818	3.9153137
1493695465461	-7.815857	-15.829376	2.2715302
1493695465461	-8.48587	-17.585175	0.47729492
1493695465461	-5.597931	-14.937668	-0.60920715
1493695465461	-1.8947754	-11.615875	-0.28105164
1493695465461	5.404663	-10.355682	-0.6936035
1493695465461	5.0550385	-10.485992	2.2565765
1493695465461	0.22280884	-8.298477	2.8575897
1493695465461	-2.6736755	-5.311737	3.2087708
1493695465461	-3.2960968	-3.482071	3.4309845
1493695465461	-3.2327423	-2.937561	3.557434
1493695465461	-3.3124084	-3.304306	2.8362274
1493695465461	-3.2577972	-3.3227997	1.8334045
1493695465461	-3.205902	-1.7767792	2.377655
1493695465462	-2.9844208	-0.16764832	2.3164063
1493695465462	-2.5147095	-0.5989685	1.8130646
1493695465462	-1.5194702	-4.5751953	-2.4301453
1493695465462	-1.2127991	-14.211029	-18.458542
1493695465462	-6.9986267	-19.21025	-19.722397
1493695465462	-5.241043	-19.474823	-11.044815
1493695465462	-2.7247162	-10.921036	-4.7621307
1493695465462	-1.7305756	-0.96702576	-1.8371124
1493695465462	-4.291687	2.7719116	-3.5567474
1493695465462	-10.210831	-9.05957	-5.429413
1493695465462	-5.9067535	-17.754517	0.56640625
1493695465462	1.9223938	-15.544479	2.5335083
1493695465462	-0.60131836	-7.514496	0.91415405
1493695465462	-4.136429	-4.5690613	-0.35713196
1493695465462	-4.503189	-5.965927	4.01947
1493695465462	-3.9301758	-8.210785	5.1716766
1493695465462	-2.9794312	-10.04834	5.662842
1493695465462	-2.327011	-12.097519	3.2904663
1493695465462	1.3096771	-12.252762	4.4684906
1493695465462	3.0656586	-13.691025	4.1166077
1493695465462	4.0772705	-12.145142	1.5001373
1493695465462	2.8042145	-10.037979	-6.035492
1493695465462	-1.3856506	-9.124374	-2.6051483
1493695465462	-3.9303894	-9.879364	-1.2507477
1493695465462	-4.431061	-9.242706	-2.496582
1493695465462	-2.7556458	-8.250076	-0.7604675
1493695465462	-0.4986725	-7.496414	1.6382751
1493695465462	0.66212463	-7.540436	0.9644928
1493695465462	0.45750427	-8.415497	0.36535645
1493695465462	-0.4192505	-10.027298	-0.82133484
1493695465462	-0.15640259	-10.435303	-1.4808044
1493695465462	0.69718933	-10.223633	-2.3983917
1493695465462	1.7311401	-11.012695	-2.900299
1493695465462	1.622406	-11.795319	-2.3985443
1493695465462	-0.17218018	-11.433426	-2.485611
1493695465462	0.70899963	-11.346985	-1.5046234
1493695465462	3.2663116	-12.933212	0.46640015
1493695465462	3.3008118	-14.279327	-1.3282013
1493695465462	-0.47373962	-14.343201	-3.8558655
1493695465462	-2.130249	-15.048996	-4.5960083
1493695465462	-0.8442993	-14.360764	-2.8446503
1493695465462	-0.6560211	-12.685547	1.4371033
1493695465462	-3.3018036	-11.970978	3.7730408
1493695465463	-5.6548004	-13.138916	3.1046753
1493695465463	-7.510803	-15.592636	3.0065155
1493695465463	-6.421921	-15.256149	1.3085785
1493695465463	-3.561432	-12.847595	-1.2084503
1493695465463	-0.15718079	-10.930847	-1.9878693
1493695465463	4.0309753	-10.521561	0.40937805
1493695465463	3.310608	-10.514587	2.2890625
1493695465463	-0.46955872	-8.51683	2.4794617
1493695465463	-3.023346	-5.742325	2.9306335
1493695465463	-3.8671417	-4.67453	2.831726
1493695465463	-3.8235016	-4.4101257	2.6816406
1493695465463	-3.8927917	-4.260605	2.270584
1493695465463	-3.6093903	-3.8141327	2.184204
1493695465463	-3.844223	-2.6738892	2.3807678
1493695465463	-3.2707825	-1.2488098	2.1827087
1493695465463	-2.7276154	-0.81427	1.6456757
1493695465463	-2.644989	-2.4894104	-0.07279968
1493695465463	-1.7378693	-7.7405243	-7.06073
1493695465463	0.79911804	-19.278763	-19.511658
1493695465463	-7.6010437	-19.449982	-19.227737
1493695465463	-3.4775543	-18.629456	-6.8476715
1493695465463	-1.7702179	-6.7459564	-4.9377136
1493695465463	-1.3218384	1.0076141	-1.6777802
1493695465463	-7.1235657	-1.1207733	-2.1711426
1493695465463	-10.198425	-12.305832	1.1643677
1493695465463	-3.8637543	-14.959747	5.970993
1493695465463	-0.56643677	-14.264023	-5.261078
1493695465464	0.054031372	-7.970291	3.778595
1493695465464	-2.422989	-6.33519	3.9712067
1493695465464	-3.416626	-6.934433	4.299011
1493695465464	-3.4735565	-8.779953	5.6929474
1493695465464	-3.3013306	-10.066345	4.9322205
1493695465464	-1.2774353	-11.095322	1.9301147
1493695465464	1.1279297	-12.759689	2.3915405
1493695465464	5.176422	-13.828827	1.7061462
1493695465464	4.846756	-12.541946	-3.6965637
