accelerometer_timestamp	accelerometer_x_data	accelerometer_y_data	accelerometer_z_data
1493856318910	-0.27355957	5.651474	6.704178
1493856318910	0.379776	5.857712	7.722931
1493856318930	0.14953613	5.514267	7.637253
1493856318950	-0.53204346	5.008026	7.221405
1493856318970	-0.62745667	4.4638824	6.88266
1493856318991	-1.1251678	3.5879364	6.2702484
1493856319009	1.0053864	3.9082642	4.8994293
1493856319029	2.3690643	4.1039734	5.6995087
1493856319049	2.1947174	3.1042786	6.6125946
1493856319069	1.4822388	2.7397919	6.066498
1493856319089	1.300003	1.9091797	5.100647
1493856319109	1.351593	1.2364349	3.8370209
1493856319149	0.83158875	-0.022125244	0.89912415
1493856319168	1.4213257	-1.143753	2.2605438
1493856319188	2.3739624	-2.03714	4.4728394
1493856319208	2.085205	-2.9865875	4.6358643
1493856319228	2.9700623	-3.6225586	4.653717
1493856319248	4.877594	-4.174301	4.926941
1493856319267	7.1551666	-4.2706604	6.886093
1493856319287	10.718445	-3.785614	9.675186
1493856319307	14.05661	-3.0883331	13.039749
1493856319327	17.638397	-1.9833221	14.700745
1493856319347	19.461044	-0.35049438	12.494858
1493856319368	19.461044	0.174469	10.025879
1493856319387	19.461044	0.89852905	7.7597504
1493856319407	19.05072	1.276474	6.0079346
1493856319427	16.650223	0.12963867	3.430359
1493856319446	13.297028	0.0284729	-0.7889099
1493856319466	11.094513	0.07449341	-3.6545258
1493856319486	10.4109955	1.6791992	-9.604797
1493856319507	7.8187103	-0.27920532	-2.0141602
1493856319526	5.652252	-0.9205017	2.674286
1493856319546	4.0517426	-2.150772	1.8768921
1493856319566	5.235092	-2.456604	0.58070374
1493856319586	9.765427	-1.8236694	2.8740082
1493856319605	14.491379	-1.7407684	4.1797485
1493856319625	12.540924	-2.8686676	4.1730804
1493856319645	6.7408752	-3.6304321	2.1309052
1493856319665	5.3127136	-6.1627655	0.53045654
1493856319685	6.0924225	-8.935623	3.0859528
1493856319705	8.344284	-8.89772	2.934204
1493856319724	7.5789948	-8.238434	2.1763916
1493856319744	6.568207	-6.368332	2.1914368
1493856319764	6.4664764	-4.641693	1.6655884
1493856319784	6.435837	-5.8878326	1.6885529
1493856319804	4.4923553	-10.037018	3.014206
1493856319823	4.925537	-13.104996	4.497162
1493856319843	7.0528107	-11.833435	3.4871979
1493856319863	2.0351105	-9.150436	0.08610535
1493856319883	1.4129333	-7.7445374	-0.53440857
1493856319903	4.889801	-7.817383	1.899765
1493856319923	5.468933	-7.8680115	2.8070374
1493856319943	3.071045	-8.773483	2.4435425
1493856319963	-1.2117615	-10.708298	2.33992
1493856319983	0.44166565	-10.458984	2.0929565
1493856320002	2.5404053	-9.2872925	2.3943787
1493856320022	1.8624878	-8.786652	2.3603973
1493856320042	1.5125427	-8.576935	1.7665405
1493856320062	1.3768616	-8.024399	1.6461487
1493856320082	1.532608	-6.8838043	1.757843
1493856320102	0.12844849	-6.8090515	3.5030212
1493856320122	2.4199371	-2.2776031	1.9176483
1493856320141	3.8141174	0.29232788	0.81993103
1493856320161	0.55303955	-2.4978485	2.6176758
1493856320181	1.4275665	-6.060074	0.28952026
1493856320201	1.3688507	-16.496445	-0.90779114
1493856320221	0.17308044	-19.474823	-5.251129
1493856320241	-1.0554657	-12.882248	-0.27581787
1493856320260	4.093994	-10.683243	-0.20683289
1493856320280	8.07312	-12.402237	-2.3236237
1493856320300	7.822708	-18.366913	-3.2737732
1493856320320	2.8250732	-13.472244	-2.1875916
1493856320340	0.028305054	-11.031601	-3.6351166
1493856320360	1.4428864	-10.10376	-4.168213
1493856320380	2.087799	-9.010422	-3.6549072
1493856320399	2.7048798	-8.953583	-4.0572968
1493856320419	2.6826324	-9.542282	-3.6355133
1493856320439	3.3433075	-10.037796	-1.6537781
1493856320459	2.5561218	-10.106018	-0.6977844
1493856320479	2.2980652	-10.42392	0.80422974
1493856320499	2.9606476	-9.77948	1.1643066
1493856320519	6.128235	-9.355545	0.6515045
1493856320559	6.2661133	-9.399155	-0.8154144
1493856320578	5.085022	-9.557419	-1.4912567
1493856320598	2.7005157	-10.400391	-1.1704559
1493856320618	2.1057587	-10.326462	0.13623047
1493856320638	2.2348175	-10.533813	0.6463928
1493856320658	2.817749	-10.14061	0.72613525
1493856320677	1.6157379	-10.405884	-2.3546906
1493856320697	0.65478516	-10.085342	0.076812744
1493856320717	0.45916748	-9.31517	-0.3094635
1493856320737	-0.4445343	-8.759781	-0.76213074
1493856320757	-0.5458069	-8.728821	-1.1096344
1493856320778	-0.2548828	-8.370819	-1.1674347
1493856320797	-0.27142334	-8.110855	-1.2224731
1493856320817	-0.12936401	-7.489868	-1.643753
1493856320836	0.71725464	-7.089615	-1.8825989
1493856320856	1.3372955	-7.025955	-2.5416107
1493856320876	1.5867462	-7.2632294	-3.3154907
1493856320896	1.4464264	-8.056213	-4.3389893
1493856320916	1.4885559	-8.644638	-5.788971
1493856320936	1.6971893	-9.285614	-6.997864
1493856320956	1.16539	-10.284836	-7.2083893
1493856320976	0.8636627	-10.727585	-7.470566
1493856320996	1.0896149	-9.644913	-7.47641
1493856321015	1.2776794	-7.3753204	-6.8847504
1493856321035	0.524765	-6.550583	-6.8671265
1493856321055	-0.42817688	-10.956238	-7.7507324
1493856321075	0.11584473	-17.445007	-6.2855225
1493856321095	1.1053772	-15.75621	-1.7869568
1493856321115	-0.03565979	-8.6289215	1.477768
1493856321134	-1.4414825	-5.2602234	3.873413
1493856321154	-0.47129822	-6.278015	5.4691315
1493856321174	1.8195801	-9.012695	6.514618
1493856321194	2.9277802	-11.124451	2.8725586
1493856321214	2.9621735	-11.813904	-0.9805603
1493856321234	2.3231964	-11.202591	-0.36691284
1493856321253	1.4615326	-10.0954895	0.6672516
1493856321273	1.0218353	-9.031067	0.50460815
1493856321293	1.5068359	-8.233017	0.26341248
1493856321313	2.2836914	-8.610153	0.6950226
1493856321333	3.272812	-9.711838	1.0440979
1493856321353	4.2712555	-9.97905	0.064086914
1493856321373	3.7789764	-9.495346	-1.172348
1493856321392	2.9579163	-8.781006	-1.3530273
1493856321412	2.28096	-8.252457	-0.40151978
1493856321432	1.8537598	-8.092438	0.83470154
1493856321452	1.619751	-8.751907	1.6785889
1493856321472	1.2725372	-9.2725525	1.7521362
1493856321492	1.1215363	-9.6489105	1.9408417
1493856321512	1.2042999	-10.445282	1.3222961
1493856321532	1.894867	-11.562561	-0.2658081
1493856321551	2.9478607	-11.641632	-1.8162994
1493856321571	4.5588226	-11.131836	-1.4401703
1493856321591	5.1561584	-10.130875	0.0019836426
1493856321611	3.8426666	-9.735382	0.60575867
1493856321631	3.1202545	-10.307922	-0.042404175
1493856321651	3.1130066	-10.625061	0.23039246
1493856321671	4.0113983	-10.135132	0.5072937
1493856321690	6.187317	-10.3528595	0.6595154
1493856321710	7.572983	-11.215149	-0.46054077
1493856321730	6.0345	-11.483353	-1.5748291
1493856321750	2.557129	-11.252457	-0.5437622
1493856321770	-0.033813477	-10.465134	1.0301208
1493856321790	-2.336197	-11.850204	2.2180328
1493856321809	-3.7866058	-15.493439	1.8965607
1493856321829	-5.147888	-19.138565	1.4937134
1493856321849	-4.5601196	-17.94513	-0.19589233
1493856321869	-3.1771545	-14.624817	-1.2622986
1493856321889	-1.5914459	-12.617981	-1.3157806
1493856321909	1.3142395	-11.246246	-0.2542572
1493856321929	4.2986298	-9.220291	-1.1651306
1493856321949	4.1347504	-7.6182404	0.07501221
1493856321988	3.8001099	-6.601822	1.8360443
1493856322008	1.5522766	-5.7971497	2.058258
1493856322028	-0.6233673	-4.1505737	3.1906586
1493856322048	-1.3209991	-3.1768951	2.375946
1493856322068	-1.7974548	-2.8754578	2.0100555
1493856322088	-2.2544098	-2.6538086	1.4535065
1493856322109	-1.961792	-4.0307465	0.13108826
1493856322128	-1.552536	-5.4444275	-1.0751343
1493856322148	-0.043518066	-7.7365265	-4.8392487
1493856322168	1.9417725	-11.850204	-11.05246
1493856322188	2.184372	-14.600891	-9.281494
1493856322207	-0.08128357	-11.929916	-10.67926
1493856322227	-0.7216797	-9.345627	-8.743851
1493856322247	-0.033813477	-9.208237	-6.495468
1493856322267	0.12081909	-9.309296	-6.181076
1493856322287	-1.472229	-8.377197	-7.165573
1493856322307	-4.049652	-11.439758	-9.410248
1493856322327	-3.3355865	-18.416946	-9.661041
1493856322346	0.11273193	-14.393158	-2.833313
1493856322366	0.5579834	-3.077301	4.49942
1493856322385	-3.5962524	-1.7277374	5.543518
1493856322406	-2.9808502	-6.4681244	2.514511
1493856322426	-0.19224548	-11.610962	5.8552704
1493856322445	1.9470215	-13.722122	4.085434
1493856322465	6.238205	-13.822098	2.1623535
1493856322486	5.8111267	-12.580994	0.3482666
1493856322505	3.8121033	-11.217712	0.5067291
1493856322525	2.618988	-10.74057	1.0014648
1493856322545	1.4952545	-9.832825	1.1280823
1493856322565	0.98680115	-8.611053	0.7732544
1493856322584	0.848938	-8.496445	-0.41952515
1493856322605	0.15461731	-9.450745	-1.3748932
1493856322624	0.80311584	-9.596863	-1.6417694
1493856322644	2.5547638	-8.66243	-0.5249481
1493856322664	2.9219513	-8.170166	1.389328
1493856322683	2.1074371	-8.120773	1.4488068
1493856322704	1.5343933	-8.137756	0.054229736
1493856322724	2.129364	-8.929489	-1.617981
1493856322744	3.3438263	-10.41954	-2.8092194
1493856322763	4.2826385	-10.345215	-1.9016571
1493856322783	3.3276367	-10.344315	-0.22488403
1493856322803	1.050003	-11.3585205	0.74760437
1493856322823	0.72691345	-11.658005	0.142807
1493856322843	2.5285187	-11.105957	-0.58447266
1493856322863	4.142914	-10.445007	0.018203735
1493856322883	4.7940063	-10.96759	0.8060913
1493856322902	5.220154	-12.365921	-0.69662476
1493856322922	6.6107483	-12.939636	-1.7838135
1493856322942	7.3071747	-11.918335	-2.112564
1493856322962	5.9504547	-10.668381	-2.9530334
1493856322982	2.8463287	-9.623169	-2.0279999
1493856323002	0.96232605	-10.307404	0.5319977
1493856323022	0.24259949	-13.794006	2.4966888
1493856323041	-1.3057251	-16.821182	3.5209503
1493856323061	-1.3702393	-16.739517	0.849411
1493856323081	0.39323425	-15.071045	-1.7953339
1493856323101	0.71925354	-14.116043	-1.5566406
1493856323121	4.0816956	-12.846756	4.6327667
1493856323141	5.922287	-9.301102	-0.3257599
1493856323160	4.905258	-8.385162	-0.096450806
1493856323180	3.785202	-6.0587463	1.4541473
1493856323200	2.7648315	-4.143738	3.3070831
1493856323220	0.7362671	-3.1216125	3.855545
1493856323240	-1.3465576	-2.8554688	4.0718384
1493856323260	-2.573578	-3.3027954	3.5539246
1493856323280	-2.8368073	-3.3764038	2.5114136
1493856323299	-2.4050598	-3.7671661	1.2302856
1493856323319	-1.913559	-4.749588	-0.69892883
1493856323338	-1.0131836	-7.7320557	-3.0621033
1493856323359	-0.8826599	-13.602692	-11.548431
1493856323379	2.1753845	-19.058258	-11.422638
1493856323419	1.8769684	-14.799484	-12.355316
1493856323438	0.4680786	-9.8255005	-8.519684
1493856323458	0.7943268	-8.745956	-6.032318
1493856323478	-0.90345764	-6.435089	-5.726715
1493856323498	-2.6336365	-5.6058044	-7.4504547
1493856323518	-3.4163055	-11.466263	-10.098145
1493856323538	1.4635162	-17.99562	-6.778244
1493856323558	1.4320374	-13.199295	3.1602325
1493856323578	-2.3337097	-6.3983917	6.6278076
1493856323598	-6.1492157	-5.1996155	2.4398193
1493856323617	-1.9345398	-7.42749	4.8375397
1493856323637	2.8774872	-10.624298	7.355789
1493856323657	5.4207306	-14.258408	3.49971
1493856323678	8.196686	-13.744507	0.6863861
1493856323697	7.373398	-13.710617	-0.9533844
1493856323717	4.0298157	-11.2017975	0.7832489
1493856323737	0.76524353	-8.969788	0.44187927
1493856323757	-1.0711975	-8.044159	0.115600586
1493856323777	-0.091033936	-8.009354	-0.054367065
1493856323795	0.030822754	-8.939636	-0.05215454
1493856323817	0.42715454	-9.121277	-1.7338257
1493856323836	0.1407013	-9.044998	0.2564392
1493856323856	1.2619781	-8.200729	0.39846802
1493856323876	2.3294983	-7.7666626	0.19755554
1493856323895	1.9555969	-7.957535	-0.49084473
1493856323916	1.8671265	-8.588608	-0.5026703
1493856323936	2.5828247	-9.343597	0.5215759
1493856323956	3.9844208	-10.010696	0.0025177002
1493856323975	3.975235	-10.348022	-0.5149994
1493856323995	2.3505554	-11.167038	-0.6483307
1493856324015	1.5331573	-12.305695	-0.5620117
1493856324035	3.0448608	-12.445938	-0.4718933
1493856324055	4.4486237	-11.621353	-0.39840698
1493856324075	5.0172577	-11.118576	-0.49302673
1493856324094	6.1432037	-11.991638	-0.7524719
1493856324115	7.475052	-12.755844	-1.2219391
1493856324134	7.2480774	-11.976776	-2.3064575
1493856324154	4.2120056	-10.406128	-2.2884064
1493856324174	2.0759277	-9.21109	-0.84617615
1493856324193	1.5414581	-10.331436	1.5201416
1493856324214	0.5517731	-13.125534	3.4822693
1493856324233	-1.0065765	-16.192673	2.9299622
1493856324253	-1.8621979	-17.768967	0.41531372
1493856324273	-1.5267181	-16.316757	-0.75904846
1493856324293	-1.441803	-14.082916	-0.52342224
1493856324313	-1.296463	-12.8233185	-0.16545105
1493856324333	2.9523163	-9.992035	0.8112793
1493856324353	5.2286377	-8.13031	0.13941956
1493856324372	4.9557343	-7.2121735	0.78770447
1493856324392	3.6485748	-6.1855774	1.9856873
1493856324412	2.1598053	-4.622055	3.6710358
1493856324432	-0.54623413	-3.421524	4.0888367
1493856324452	-2.720169	-2.4284058	3.602005
1493856324472	-2.8865814	-2.2782745	2.720108
1493856324493	-2.64357	-2.8968658	1.8797455
1493856324511	-2.302948	-4.2379913	1.2730408
1493856324531	-1.7674103	-8.104218	-3.942566
1493856324551	1.095932	-13.759247	-12.863815
1493856324571	1.9075012	-17.73639	-12.593506
1493856324591	-0.9164276	-12.41185	-8.7686
1493856324611	-1.4697571	-8.659225	-6.704132
1493856324631	-1.0227203	-8.345505	-4.8925323
1493856324650	-1.7112579	-7.46257	-5.4664
1493856324670	-3.2888184	-7.349167	-8.265228
1493856324690	-1.8589478	-14.627258	-12.430283
1493856324710	1.9115448	-17.138763	-4.3450623
1493856324730	1.8213348	-9.86731	5.7662964
1493856324749	-4.1684723	-5.391876	5.8208313
1493856324770	-6.7866516	-7.3261414	1.4937134
1493856324789	-1.0517273	-9.033859	8.306702
1493856324809	2.0154266	-12.310104	6.8671417
1493856324848	4.786087	-14.980835	2.4728851
1493856324869	7.5259705	-13.511551	1.7515564
1493856324889	6.890442	-13.236588	1.1342316
1493856324909	3.809967	-10.85495	0.31907654
1493856324928	0.8399048	-9.132828	0.26034546
1493856324948	0.48794556	-7.9080505	0.28434753
1493856324969	0.47850037	-8.610535	-0.51678467
1493856324988	0.2875061	-10.378006	-0.34883118
1493856325008	2.5858765	-10.063522	-1.6238708
1493856325028	2.8840485	-8.652481	0.056854248
1493856325048	1.7391815	-7.802841	0.480484
1493856325068	1.367218	-6.8114624	0.07098389
1493856325087	1.1635284	-6.8421783	-0.83110046
1493856325107	1.5870667	-7.7851563	-0.70529175
1493856325128	2.9982452	-8.557266	0.30107117
1493856325147	3.7873535	-9.471817	-0.5502167
1493856325167	2.9104156	-10.182968	-0.78401184
1493856325187	1.3517303	-11.178345	-0.64697266
1493856325205	2.0207214	-11.886383	-0.56214905
1493856325226	3.5532837	-11.464645	-0.015487671
1493856325246	4.598358	-11.093994	0.33372498
1493856325266	4.733017	-11.385284	-0.3094635
1493856325286	6.516876	-12.055008	-0.43063354
1493856325305	8.037262	-12.764313	-0.09275818
1493856325326	7.484131	-12.156998	-1.6906586
1493856325346	3.9201508	-11.562836	-3.7686462
1493856325365	0.5241699	-10.748016	-2.5175476
1493856325385	0.097229004	-10.62323	0.84443665
1493856325405	-0.35238647	-12.811722	3.5576324
1493856325425	-2.0153809	-16.655075	2.9472198
1493856325445	-2.5075226	-18.99672	0.7570801
1493856325465	-1.1563721	-17.380081	-0.79859924
1493856325485	-0.86972046	-14.455612	-0.8882141
1493856325504	-1.2974548	-13.532455	0.5435486
1493856325527	2.623352	-10.772842	0.23939514
1493856325547	5.4828033	-7.9431915	-0.6937256
1493856325566	3.460312	-7.1730804	0.93196106
1493856325587	2.6686707	-5.697342	2.3590393
1493856325605	1.2915802	-4.582718	3.267807
1493856325629	-0.5816345	-2.9130096	3.3529816
1493856325647	-2.1704865	-1.9091644	2.9490204
1493856325670	-2.9612732	-1.8235321	2.4941864
1493856325688	-2.739685	-2.1700287	2.060257
1493856325707	-1.6733856	-3.1821136	1.6395416
1493856325728	-0.5845947	-5.615341	0.07122803
1493856325747	0.9814453	-11.36911	-8.734482
1493856325769	2.947052	-17.572083	-13.202759
1493856325789	1.7175598	-16.372467	-12.730408
1493856325807	-0.109558105	-11.207611	-9.520264
1493856325825	0.34657288	-9.427689	-6.454666
1493856325850	-0.4958496	-9.593033	-6.517395
1493856325868	-2.5377655	-11.871887	-8.366943
1493856325888	-1.3476868	-17.17723	-9.584869
1493856325909	-0.012771606	-14.398697	-2.7797241
1493856325926	-0.61087036	-5.1918335	3.8756256
1493856325946	-4.293976	-2.0191193	7.6706543
1493856325966	-4.844757	-6.2421417	1.9706573
1493856325985	0.91522217	-11.032837	6.1945496
1493856326005	4.6465454	-14.389191	8.205551
1493856326031	6.9821014	-14.239273	1.9542542
1493856326043	6.4036713	-11.334442	-0.8321686
1493856326061	2.9977264	-10.538925	-0.6207886
1493856326082	1.1599426	-9.996765	1.2009735
1493856326103	0.79837036	-8.866241	1.1289673
1493856326122	1.0369263	-7.025894	0.58462524
1493856326142	0.524704	-8.537659	0.046066284
1493856326162	2.4568024	-9.988342	-0.63438416
1493856326184	2.7802734	-9.672104	-1.9533386
1493856326203	3.6398773	-8.290054	-0.50871277
1493856326221	3.3050995	-8.288788	0.5967102
1493856326243	3.0290222	-8.026566	0.3799286
1493856326265	2.5503845	-8.108475	-0.5309601
1493856326289	2.9461517	-8.244385	-0.53256226
1493856326322	3.3755646	-9.20874	-1.0276794
1493856326344	3.6436005	-9.514709	-1.0171204
1493856326365	2.7925873	-10.082916	0.82373047
1493856326383	1.5516052	-11.673416	0.48786926
1493856326404	1.4780731	-12.445297	0.14944458
1493856326421	5.50325	-11.776093	0.6492157
1493856326443	6.2339478	-10.965897	-0.47747803
1493856326462	4.343445	-11.050354	-1.530365
1493856326480	5.919815	-12.585739	-0.5990143
1493856326499	6.901413	-13.454941	-0.48464966
1493856326530	6.0766144	-12.019043	-1.8435059
1493856326539	2.9385834	-10.9835205	-3.620407
1493856326559	0.29556274	-10.002411	-1.396286
1493856326579	0.03677368	-11.080307	1.1187134
1493856326599	-1.0244751	-14.334045	3.0812836
1493856326620	-2.9032593	-17.088959	2.6727905
1493856326641	-2.642929	-17.042969	-0.6985321
1493856326660	-0.54093933	-14.801804	-2.4032593
1493856326682	-0.25352478	-13.223648	-0.5958252
1493856326703	2.0578613	-11.806641	2.0293427
1493856326720	5.715805	-9.007828	-0.9289398
1493856326742	4.2052765	-8.343994	1.1407013
1493856326760	3.2011414	-7.0158386	2.0327759
1493856326782	1.3359375	-5.5634003	2.898407
1493856326801	-0.61753845	-3.5591278	2.8478546
1493856326820	-2.017624	-2.2856445	2.7449036
1493856326842	-2.7393494	-2.4309845	2.0545807
1493856326859	-2.3086395	-2.6207733	1.4282379
1493856326881	-1.657547	-3.1931152	0.54255676
1493856326899	-1.0633698	-4.271286	-0.9887848
1493856326922	-0.49848938	-6.738266	-6.085022
1493856326941	-0.33815002	-10.482178	-11.1633
1493856326960	0.15290833	-14.678131	-12.484741
1493856326979	1.0173492	-15.493195	-12.085876
1493856326999	1.6708527	-12.22551	-8.549896
1493856327016	0.4768219	-8.405411	-6.6785126
1493856327041	-4.6753235	-8.528763	-7.769562
1493856327055	-5.662796	-15.327988	-8.415176
1493856327075	-2.3213348	-17.1436	-3.376358
1493856327095	0.45565796	-9.753098	1.4434052
1493856327115	-0.17710876	-4.050812	5.955368
1493856327135	-1.4894409	-6.3506317	5.320389
1493856327155	-0.38272095	-10.20137	6.341324
1493856327178	2.0872498	-12.116913	7.2140656
1493856327196	5.536377	-13.104599	3.3983307
1493856327220	6.740219	-12.618988	1.0750275
1493856327236	4.743149	-11.311203	-0.41755676
1493856327258	2.7271423	-9.860519	0.61538696
1493856327280	1.5154572	-8.767715	1.229538
1493856327298	0.5825958	-7.9276123	-0.78707886
1493856327317	0.5410614	-7.862015	-0.43167114
1493856327335	1.0871124	-9.112961	-1.4197998
1493856327355	2.2441864	-9.647278	-1.7939758
1493856327379	3.9258118	-8.733627	0.049453735
1493856327395	4.11821	-7.750534	1.0866241
1493856327412	2.397522	-7.8426514	0.50709534
1493856327435	1.8356018	-8.261383	-0.42266846
1493856327454	3.3031769	-8.537384	-0.7315979
1493856327478	4.2517242	-9.479553	-0.08552551
1493856327494	5.0723114	-10.531189	0.047714233
1493856327513	4.4772797	-11.041046	-0.5128174
1493856327535	2.4797668	-11.283478	-1.0882721
1493856327552	2.460785	-11.260498	-1.3619995
1493856327573	3.7716522	-10.977753	0.8370056
1493856327591	3.883072	-10.888763	-0.23674011
1493856327611	4.482147	-10.796448	-0.9888458
1493856327632	5.883133	-11.198608	-0.60354614
1493856327652	6.980255	-12.464966	-0.3448944
1493856327694	6.974167	-12.229691	-1.2588501
1493856327711	2.3080597	-11.72406	-2.7509766
1493856327731	-0.49697876	-10.272736	-0.627594
1493856327753	-0.682724	-11.757187	3.1166382
1493856327770	-1.6460114	-15.373413	3.9466705
1493856327793	-3.4311523	-19.41452	1.6590576
1493856327811	-2.504837	-18.8443	-0.7578125
1493856327829	-0.9144745	-14.782715	-1.4434814
1493856327854	-0.7118225	-13.451584	-0.20391846
1493856327870	0.12597656	-12.549881	1.5474396
1493856327892	5.6486053	-8.12236	1.1959076
1493856327910	4.238434	-7.3917236	0.53427124
1493856327930	2.8929749	-6.0781555	2.1461487
1493856327953	1.2509613	-5.5077667	3.6356354
1493856327969	-0.4771576	-4.3412323	3.7905579
1493856327990	-1.6401215	-2.5056152	2.9716492
1493856328012	-2.118576	-1.960144	2.470398
1493856328027	-2.1124878	-2.2263641	1.78302
1493856328051	-1.3885956	-2.8366241	1.4197998
1493856328070	6.713867E-4	-4.5232544	0.5262146
1493856328088	0.5983429	-8.528381	-5.044998
1493856328110	0.7413635	-14.402878	-13.346771
1493856328127	0.38478088	-16.920044	-12.7964325
1493856328151	-0.46568298	-13.553162	-10.927109
1493856328169	-0.807312	-10.482391	-7.4386444
1493856328185	-1.2010803	-8.847855	-5.1909943
1493856328206	-3.289322	-7.6996	-5.2023315
1493856328225	-3.8780365	-11.39682	-6.613922
1493856328246	-2.3787842	-15.430374	-5.205826
1493856328266	-1.5055542	-13.227478	-1.0071869
1493856328286	-0.27090454	-8.643005	2.247223
1493856328306	0.55703735	-6.483658	5.1984406
1493856328324	0.8741913	-8.216202	6.245285
1493856328347	3.0890503	-10.318207	7.6612396
1493856328367	4.6028137	-11.426697	6.0931396
1493856328386	5.2812653	-12.118866	0.74360657
1493856328406	4.671219	-11.9861145	-1.029541
1493856328425	2.2483673	-10.857788	1.5836487
1493856328448	-0.50891113	-9.260483	1.3949738
1493856328465	-1.9680023	-7.8287964	0.4728241
1493856328487	-1.8046875	-7.7905884	0.2591095
1493856328524	0.10014343	-9.165909	-0.60050964
1493856328525	2.5381165	-9.485352	0.54447937
1493856328547	4.647339	-8.961075	1.7361603
1493856328570	5.235977	-8.333923	0.65185547
1493856328584	4.341385	-8.0816345	-1.9982605
1493856328605	4.228943	-8.673477	-2.1574707
1493856328625	4.702774	-9.474152	-0.07266235
1493856328644	3.8473358	-9.9227295	0.3764038
1493856328664	2.871994	-10.189804	-0.081451416
1493856328682	1.964447	-10.705444	-0.42488098
1493856328701	1.545929	-11.337067	-0.10734558
1493856328721	2.1754913	-10.781784	0.70002747
1493856328741	3.8044434	-10.446167	0.7361603
1493856328762	4.1842346	-10.881638	-0.15164185
1493856328781	3.7411957	-10.56749	-0.78045654
1493856328802	5.103836	-10.713333	-1.6289063
1493856328821	6.715988	-11.4534	-0.88453674
1493856328842	7.1053314	-12.35762	-1.7797089
1493856328863	4.716324	-11.990967	-2.4142303
1493856328880	1.1968689	-10.285309	-1.2593231
1493856328903	-0.700943	-11.16983	1.9132996
1493856328923	-1.2521667	-13.926422	3.7322693
1493856328942	-2.6841278	-17.016449	2.797577
1493856328964	-3.2959137	-17.982758	0.09120178
1493856328985	-1.7300262	-15.822311	-2.1691895
1493856329016	-1.4565735	-14.14386	-1.870636
1493856329036	-0.1897583	-13.110886	1.2915344
1493856329041	6.886688	-8.46611	-0.40600586
1493856329078	3.7134094	-7.7571106	0.4197235
1493856329099	3.3567963	-6.719513	2.3740387
1493856329120	2.2294312	-5.700775	3.639511
1493856329138	1.30896	-3.8639526	3.5954132
1493856329164	-1.0511627	-2.967331	3.1635284
1493856329183	-1.1946716	-3.502594	2.7926483
1493856329199	-1.523941	-3.455902	2.2440948
1493856329223	-1.5964966	-3.8785095	0.92881775
1493856329239	-1.3695526	-4.3894653	-0.2459259
1493856329263	-1.0771942	-6.767166	-4.0197906
1493856329278	-1.0034943	-11.234726	-11.929138
1493856329303	-0.9559021	-15.553055	-13.136261
1493856329318	-1.2097168	-15.672119	-12.463516
1493856329338	-0.12312317	-10.844391	-8.126587
1493856329360	-0.50408936	-8.45163	-5.9738007
1493856329377	-4.0993805	-10.252472	-6.901886
1493856329402	-5.011795	-17.643417	-7.2126465
1493856329422	-0.15142822	-16.187057	-2.0045624
1493856329437	0.39601135	-7.538788	3.8002777
1493856329462	-1.0271606	-4.386078	5.9452667
1493856329477	-2.544693	-8.08551	5.061722
1493856329500	0.6938782	-11.334503	7.1610107
1493856329518	4.4661255	-12.742416	6.001343
1493856329537	6.737686	-12.469803	1.2477417
1493856329557	4.923416	-11.697266	-0.3242035
1493856329579	2.3207245	-10.327667	0.04168701
1493856329599	1.1682434	-9.165787	1.495758
1493856329619	0.8395386	-8.893814	1.496933
1493856329639	0.58203125	-8.517334	1.2118073
1493856329658	0.8237457	-9.124573	0.97457886
1493856329678	1.6466827	-9.361084	0.6808624
1493856329699	2.3711548	-9.380554	0.058654785
1493856329719	2.6772614	-8.974869	-0.610199
1493856329739	2.6453857	-8.201187	0.49710083
1493856329760	3.0637512	-7.3134613	0.19107056
1493856329778	4.3364716	-7.080368	-1.8317261
1493856329800	5.2857666	-8.521759	-1.3114624
1493856329820	4.637192	-10.240097	-0.6159668
1493856329838	3.3557434	-10.737701	0.7309265
1493856329860	1.5962524	-10.89978	1.1460419
1493856329879	0.56944275	-11.351746	0.34779358
1493856329899	3.311615	-11.404861	0.72143555
1493856329919	6.1957703	-10.971115	0.15208435
1493856329940	5.4937744	-11.102951	-0.41407776
1493856329959	4.303314	-11.755646	-1.3398132
1493856329977	5.477173	-12.219589	-1.409378
1493856329997	6.3115845	-12.887375	-1.5727234
1493856330020	6.4282074	-13.073395	-2.031128
1493856330034	4.136368	-12.113144	-2.3517609
1493856330064	0.5281677	-10.198273	-0.39831543
1493856330083	-1.175705	-10.641022	2.5933685
1493856330093	-2.0780945	-13.885147	3.3847198
1493856330111	-3.5674133	-17.35199	1.7333679
1493856330131	-2.7487793	-17.756851	-0.63916016
1493856330151	-0.8508148	-15.1371	-1.6970978
1493856330171	-0.34777832	-13.291153	-0.3681183
1493856330191	2.9359436	-11.421295	3.016922
1493856330211	4.744568	-8.901077	-0.7694702
1493856330232	4.50029	-7.824341	0.8762665
1493856330251	3.1549988	-6.0179443	2.5531464
1493856330273	1.9503937	-4.352234	3.3996277
1493856330290	-0.16952515	-2.8878784	3.7201996
1493856330314	-1.797226	-2.9053192	3.6242065
1493856330333	-2.6646423	-3.3326263	3.3298187
1493856330351	-2.772934	-3.7092133	2.2445526
1493856330370	-2.8828278	-4.03479	1.1112366
1493856330390	-2.2116241	-4.9966583	-0.14100647
1493856330414	-1.153656	-7.9060516	-3.7800598
1493856330433	0.18527222	-14.230362	-13.475723
1493856330450	1.3048553	-19.276825	-13.339966
1493856330474	-0.36160278	-13.618271	-11.01593
1493856330511	-0.24995422	-8.746445	-7.1359406
1493856330539	0.13722229	-8.448914	-5.039398
1493856330550	-2.4512177	-8.456055	-6.6558685
1493856330570	-5.5613556	-13.737488	-7.3442535
1493856330590	-2.1321106	-16.346634	-4.501892
1493856330612	-1.2882843	-12.918823	2.3706207
1493856330634	-0.23706055	-7.4288635	5.262802
1493856330650	-1.5908203	-6.4970245	5.27063
1493856330672	0.117630005	-9.164261	5.980438
1493856330691	4.4038086	-11.405899	9.58638
1493856330712	6.728256	-12.144806	4.7687073
1493856330733	5.6472626	-11.888382	-3.1737213
1493856330753	2.4809723	-10.589157	0.11949158
1493856330771	1.0279999	-9.715729	1.988327
1493856330792	-0.7265625	-9.171936	0.77467346
1493856330813	-0.72798157	-7.8761444	-0.27305603
1493856330831	0.33129883	-8.34375	-0.064071655
1493856330850	2.4366455	-9.60585	-0.1209259
1493856330872	3.4690094	-9.692902	0.23999023
1493856330890	4.160507	-8.975616	-0.29856873
1493856330912	3.6657104	-7.9088287	-0.39770508
1493856330932	2.3113556	-8.357544	0.10949707
1493856330950	3.3508759	-8.798706	-0.90727234
1493856330972	4.214386	-9.17337	-0.91362
1493856330988	3.8665771	-9.876297	-0.61712646
1493856331018	2.8602142	-10.296173	0.3478241
1493856331027	1.5963287	-10.912521	0.22290039
1493856331051	1.1468658	-11.464096	-0.4094696
1493856331066	3.0442047	-11.413132	-0.22833252
1493856331086	5.1812286	-10.610306	0.105041504
1493856331107	5.331375	-10.488846	-0.47859192
1493856331127	4.4558105	-11.530121	-1.5585632
1493856331145	5.0159607	-12.572784	-1.7345123
1493856331170	6.2109985	-12.976059	-1.5856628
1493856331189	5.9910126	-12.166626	-2.2094269
1493856331210	3.2603607	-10.888702	-2.090393
1493856331230	-0.008346558	-10.770233	0.23643494
1493856331247	-1.2381439	-13.1017	2.8088226
1493856331269	-2.814148	-16.423416	3.5654297
1493856331289	-3.3893127	-17.201431	1.2932129
1493856331309	-1.4936371	-15.174683	-1.862915
1493856331329	-0.8079071	-13.639938	-2.009018
1493856331346	1.6402283	-12.197052	2.267456
1493856331367	4.1799774	-9.911179	1.000885
1493856331388	4.0068054	-9.160202	0.83810425
1493856331408	3.7719421	-7.299759	2.704605
1493856331429	1.2405548	-5.803787	3.1298218
1493856331447	-0.22329712	-3.992569	3.2475586
1493856331468	-1.6755676	-3.3695374	3.308197
1493856331488	-2.552414	-3.5014954	3.125946
1493856331505	-2.7020264	-3.5464325	2.5986328
1493856331523	-2.2543793	-3.913086	1.3022614
1493856331543	-1.8240509	-4.5046387	0.3076172
1493856331563	-1.2781677	-6.1635284	-1.8442535
1493856331583	-0.7551727	-10.419006	-9.86821
1493856331602	-0.19815063	-15.474213	-12.253281
1493856331623	-0.68174744	-16.569519	-12.637085
1493856331645	-0.7595825	-12.1935425	-9.5542755
1493856331662	0.62690735	-9.580902	-6.380905
1493856331683	-2.1520538	-8.613953	-6.463608
1493856331701	-6.985916	-13.645737	-5.8432617
1493856331723	-3.0042572	-15.021896	-4.8063507
1493856331744	-2.1786041	-13.139954	-0.49980164
1493856331762	-0.21681213	-6.9353333	4.8436584
1493856331784	-3.0619202	-6.89415	4.345703
1493856331802	-1.6204224	-9.332443	4.153076
1493856331824	1.4450684	-11.493988	6.398407
1493856331843	6.948929	-10.6501465	6.138794
1493856331887	6.9765015	-9.624649	3.3926392
1493856331902	4.3583984	-10.878479	-2.445282
1493856331925	2.2991638	-10.740311	0.20774841
1493856331941	0.13821411	-10.356064	1.6704559
1493856331962	-0.7642822	-8.307358	0.08799744
1493856331984	-0.79774475	-7.9783173	0.024276733
1493856332002	0.046020508	-9.903198	0.3005066
1493856332031	2.9553375	-9.816635	-0.54927063
1493856332039	3.9516296	-9.283905	-0.57966614
1493856332064	3.559021	-8.147156	0.10839844
1493856332079	3.2733154	-8.149414	0.47738647
1493856332099	2.696228	-8.276581	0.026992798
1493856332119	2.8986511	-8.395905	-0.43615723
1493856332140	2.860443	-9.0416565	-0.65763855
1493856332157	3.062027	-10.486053	-0.4567871
1493856332182	2.7036438	-11.053238	-0.96772766
1493856332202	2.4482727	-10.505798	-0.94688416
1493856332221	1.1695557	-11.378311	-0.93200684
1493856332241	1.9852142	-11.897568	-0.44592285
1493856332260	4.8861237	-11.407379	0.7113342
1493856332282	5.704712	-11.145187	0.09083557
1493856332301	3.6079407	-11.281845	-1.741806
1493856332322	3.8680115	-12.126511	-1.6483612
1493856332341	5.2722626	-12.927811	-1.601944
1493856332361	5.317749	-11.799881	-2.586731
1493856332381	3.1809387	-10.699158	-2.532013
1493856332400	0.5375366	-10.800568	-1.1012268
1493856332421	-1.0646667	-12.477936	2.3247375
1493856332440	-2.7146454	-15.3828125	3.23201
1493856332461	-4.2606506	-17.106796	2.4782562
1493856332480	-2.9234467	-15.597397	-0.7270813
1493856332500	-1.0696564	-13.595154	-1.8108215
1493856332518	1.3219452	-12.431091	0.45858765
1493856332550	4.839569	-10.41687	0.9939728
1493856332555	5.2231445	-9.076904	0.6571045
1493856332575	3.3989868	-8.01503	1.6324463
1493856332593	1.7983093	-6.01355	2.463623
1493856332613	0.3811798	-4.4343567	3.054596
1493856332633	-0.94555664	-3.2870178	2.945694
1493856332653	-1.8531342	-3.0818024	3.2363434
1493856332677	-2.1398163	-3.2112427	2.7992249
1493856332696	-2.0138702	-3.5343018	1.5221558
1493856332713	-1.8180237	-4.156418	-0.017669678
1493856332736	-1.5148926	-5.6941986	-1.51297
1493856332755	-1.6754608	-9.219696	-5.753647
1493856332777	-1.8041382	-15.032242	-11.342056
1493856332796	-0.8488922	-18.033264	-13.447144
1493856332817	-0.28529358	-14.621902	-10.818039
1493856332835	0.14303589	-10.855667	-6.578766
1493856332854	-1.1439209	-7.968689	-5.270218
1493856332881	-3.555069	-6.773361	-6.7895355
1493856332897	-4.0646057	-11.824509	-7.327774
1493856332916	-1.7855682	-14.321136	-1.4711151
1493856332939	-0.6332092	-11.965759	3.1905975
1493856332953	-1.1754761	-8.407776	3.7322693
1493856332976	-1.1769409	-7.9638367	4.283249
1493856332998	0.9673157	-9.015472	6.863632
1493856333013	4.8243256	-10.608475	8.071121
1493856333038	5.1488647	-11.851776	2.4382172
1493856333052	2.9422607	-12.192352	-0.82006836
1493856333071	1.9878693	-10.517929	0.8807678
1493856333092	-0.25286865	-10.361191	1.5969238
1493856333111	-1.5639954	-8.643448	0.3088379
1493856333132	-0.5792694	-8.322433	0.19999695
1493856333151	1.2460022	-9.031189	-0.13504028
1493856333172	3.4069977	-9.411011	-0.11140442
1493856333194	3.0275269	-9.069763	-0.8904114
1493856333214	3.657959	-8.56102	-0.741272
1493856333234	3.0238953	-8.023697	-0.21707153
1493856333272	2.3754883	-8.730194	-0.41996765
1493856333295	2.4030914	-9.575531	-1.1081085
1493856333295	2.926773	-9.793533	-0.9825134
1493856333337	2.7220154	-9.572174	-0.9641113
1493856333350	1.9934387	-9.573639	-0.2766571
1493856333369	1.5139618	-10.480942	1.2937775
1493856333389	-0.14204407	-11.969498	1.36232
1493856333408	0.79519653	-11.991653	-0.9123535
1493856333432	5.659073	-10.704926	0.42991638
1493856333447	5.863678	-10.415161	0.6678772
1493856333467	2.7376404	-11.317444	-1.0816498
1493856333489	4.5397034	-12.58194	-1.8542633
1493856333508	5.2391205	-13.170776	-1.7398376
1493856333528	5.088257	-12.309311	-2.5492096
1493856333549	4.197006	-11.4826355	-2.7143707
1493856333565	1.3097229	-10.806213	-0.69358826
1493856333586	-1.5754852	-10.592819	1.3407593
1493856333606	-3.0833282	-13.149857	2.9275818
1493856333631	-4.1021576	-15.808472	2.7802277
1493856333650	-3.8472443	-15.764603	0.33602905
1493856333671	-1.6326599	-13.561295	-2.2207794
1493856333690	-0.0020599365	-12.892471	-0.35743713
1493856333708	3.8898773	-11.700073	1.7476044
1493856333728	3.4424438	-9.682007	-0.8515625
1493856333751	2.1438293	-8.555252	0.41981506
1493856333770	2.5324402	-6.788742	1.9754486
1493856333791	1.0652313	-5.8539734	2.1434174
1493856333808	-0.1974945	-4.9129944	1.990921
1493856333828	-1.2476044	-4.7064514	2.7085724
1493856333850	-1.7986298	-4.6181793	2.677124
1493856333871	-1.7964172	-4.5054626	2.0231476
1493856333889	-1.8552399	-4.2628937	0.7361145
1493856333909	-1.870575	-4.450836	-0.31114197
1493856333930	-1.591629	-5.615616	-1.9825897
1493856333947	-1.5531158	-8.9804535	-7.1005096
1493856333968	-1.3462067	-13.89978	-11.488037
1493856333990	-1.1779785	-16.31369	-12.211533
1493856334009	-1.1908722	-14.275894	-10.117447
1493856334026	-1.2859802	-11.179321	-6.2526093
1493856334048	-3.5710144	-8.852127	-4.8612976
1493856334075	-5.968033	-10.944122	-5.7869873
1493856334084	-4.014435	-14.124847	-5.3093414
1493856334104	-1.8327026	-12.562866	-0.7052307
1493856334124	-0.30293274	-7.822769	4.869156
1493856334144	-1.584732	-6.9484863	6.314926
1493856334165	-1.6280365	-9.710419	6.0614624
1493856334187	2.3775482	-11.270157	8.915802
1493856334206	5.0116425	-12.097153	5.395874
1493856334223	4.95401	-12.22348	-1.962143
1493856334247	3.29747	-10.600327	-0.8707733
1493856334263	2.5852356	-9.380417	2.0021667
1493856334283	1.4826813	-8.454681	0.876709
1493856334306	0.19508362	-7.638443	-0.43858337
1493856334326	-0.1847992	-8.554306	-0.834671
1493856334347	1.2932739	-9.61998	-0.5922241
1493856334365	1.6109161	-10.291763	0.0778656
1493856334382	2.4312134	-9.422043	-0.29852295
1493856334404	2.5707855	-8.9322815	-1.4606018
1493856334424	2.1730957	-8.594986	-1.6465149
1493856334445	3.5051727	-9.235291	-1.4441223
1493856334464	3.8192139	-9.360947	0.113708496
1493856334481	2.3310547	-9.025803	0.56744385
1493856334504	1.0278015	-8.914246	0.55374146
1493856334521	0.69210815	-10.636932	1.5102386
1493856334539	1.017334	-11.91275	0.23196411
1493856334561	2.369049	-11.626923	-0.8644867
1493856334581	3.5761414	-10.971039	-0.31134033
1493856334600	4.021408	-10.352463	2.010025
1493856334622	3.3453064	-10.709274	0.9278717
1493856334642	2.8609314	-11.981415	-0.9252014
1493856334681	4.6908417	-13.571793	-0.2355957
1493856334700	4.7759857	-12.642258	-0.8088074
1493856334720	3.651245	-11.514679	-3.097351
1493856334742	0.6151123	-10.0229645	-2.6921692
1493856334761	-0.61221313	-10.004791	-0.4482727
1493856334780	-1.2257233	-11.588226	1.9224396
1493856334802	-3.218155	-14.088501	2.8722534
1493856334821	-4.651642	-16.499039	1.1611328
1493856334844	-2.2727814	-15.701309	-0.69444275
1493856334861	-0.24441528	-13.577728	-1.1380463
1493856334883	-0.046325684	-12.382492	-0.3445282
1493856334902	4.914276	-10.5086975	2.8500671
1493856334920	3.8731232	-9.177902	-0.31948853
1493856334941	2.7541199	-8.319702	0.65283203
1493856334960	2.4271088	-7.1107635	1.7173462
1493856334978	0.11054993	-5.3640747	2.4798431
1493856335001	-1.1687317	-3.346527	3.0417328
1493856335020	-2.1564484	-3.0726318	2.5304718
1493856335046	-2.8839722	-3.1473083	2.245285
1493856335058	-2.3424988	-3.6269684	1.4632263
1493856335076	-1.661499	-4.5544586	0.13580322
1493856335099	-0.86660767	-5.9854736	-1.4970703
1493856335118	-0.18588257	-8.945023	-5.4210052
1493856335137	-0.47019958	-14.016113	-11.071701
1493856335156	-0.77453613	-16.589203	-12.277435
1493856335177	-1.1208191	-13.369766	-10.29126
1493856335198	-1.208374	-9.764542	-6.4676514
1493856335219	-0.85087585	-8.570877	-4.4289703
1493856335239	-2.2367249	-7.886154	-4.3983765
1493856335259	-4.0980988	-9.902481	-5.366089
1493856335275	-4.3143463	-14.417404	-5.6013794
1493856335300	-2.4500732	-14.6857605	-1.8249054
1493856335319	-0.71673584	-10.953766	2.3566437
1493856335338	-0.99279785	-7.356827	3.2388458
1493856335359	-1.5871887	-6.987808	3.8496704
1493856335380	0.67097473	-8.332138	5.6193237
1493856335399	3.6805573	-10.328812	6.3978424
1493856335418	4.380371	-11.521835	3.2790833
1493856335440	4.4960175	-11.54866	0.075683594
1493856335457	3.642044	-11.227081	-0.39361572
1493856335476	1.137085	-10.343735	0.40638733
1493856335500	-1.1197968	-8.830124	0.062805176
1493856335516	-1.4244385	-8.172058	-0.109817505
1493856335543	-0.7381897	-9.405014	-0.099990845
1493856335553	0.43144226	-9.575287	0.6259155
1493856335576	1.8848114	-9.250793	0.6559143
1493856335593	3.1628876	-8.801239	0.050064087
1493856335613	3.6291046	-9.255722	-0.3065338
1493856335633	2.4116821	-9.254242	-0.7324219
1493856335653	2.1139374	-8.876709	-0.77812195
1493856335674	2.267395	-9.147247	-0.0934906
1493856335694	1.9845734	-9.895172	-0.07304382
1493856335715	1.5378265	-9.957718	-0.17982483
1493856335738	1.3645782	-9.735016	0.17236328
1493856335756	1.1899567	-10.77655	0.20339966
1493856335776	1.3190308	-11.583282	0.11503601
1493856335795	3.4422913	-11.095474	-0.22259521
1493856335815	5.0843506	-10.490463	0.1098938
1493856335835	2.7368622	-11.067963	-0.59391785
1493856335854	2.7209625	-12.23111	-0.49380493
1493856335875	4.181717	-13.189545	-0.40486145
1493856335895	4.8835907	-12.484879	-1.5514069
1493856335913	3.8224182	-11.864059	-3.7599182
1493856335936	0.86909485	-10.877731	-2.4004974
1493856335955	-0.46505737	-10.675842	-0.7293091
1493856335972	-2.2167053	-12.408951	1.1430817
1493856335991	-4.395523	-14.47261	2.92659
1493856336014	-5.9957123	-16.332153	2.0485382
1493856336035	-5.0634155	-16.132584	-0.28207397
1493856336070	-2.338501	-13.280884	-1.6387329
1493856336090	-1.5982666	-12.257385	-0.2389679
1493856336109	3.9253845	-11.16037	1.6183777
1493856336130	1.7235413	-9.9254	0.3250122
1493856336149	3.1565552	-8.236877	0.44451904
1493856336170	2.860077	-7.2177734	1.0342255
1493856336190	1.581604	-5.593216	2.2496796
1493856336211	-0.025009155	-3.5633545	2.1296997
1493856336230	-1.2113647	-2.6821747	1.872879
1493856336251	-1.8592987	-2.5232697	1.7218628
1493856336271	-2.2651825	-2.6095734	1.5342255
1493856336292	-2.0273285	-3.3938751	0.7241516
1493856336312	-1.7317963	-4.973938	-0.455719
1493856336329	-1.730957	-7.398117	-2.879715
1493856336353	-1.8253326	-12.816772	-9.941284
1493856336370	-2.4428406	-16.992676	-13.170288
1493856336391	-3.116623	-14.111725	-10.9765625
1493856336412	-2.6209717	-8.983337	-7.897064
1493856336429	-1.8309937	-8.374481	-5.532776
1493856336452	-2.8841095	-10.61763	-4.6589355
1493856336471	-6.411194	-15.001801	-5.5746765
1493856336491	-5.2288513	-17.958206	-6.0815735
1493856336511	-2.657608	-12.054535	-1.6285706
1493856336529	-1.568924	-5.503525	2.378662
1493856336555	-1.5475922	-4.000168	5.7608337
1493856336566	-1.2005005	-6.78891	4.4776154
1493856336589	1.704483	-10.446747	5.995453
1493856336606	4.5284576	-12.464996	5.828583
1493856336625	5.2677917	-12.143738	0.82780457
1493856336645	4.472397	-11.417191	-2.586975
1493856336667	2.5019226	-10.571487	-0.70503235
1493856336685	-0.02696228	-9.600494	0.4453125
1493856336709	-0.6684418	-8.378738	0.94918823
1493856336726	0.5246124	-8.093353	1.075058
1493856336749	1.0099945	-8.921799	-0.3597412
1493856336769	0.68336487	-9.503937	-1.0144196
1493856336787	1.019867	-9.211166	0.12998962
1493856336807	1.423172	-9.355667	0.7734833
1493856336826	2.1413574	-9.608124	0.5683899
1493856336850	2.4927216	-9.609634	0.35282898
1493856336869	2.7013245	-9.138733	-0.33322144
1493856336887	2.431137	-8.74942	-0.63946533
1493856336910	2.269989	-8.827057	0.49665833
1493856336925	1.6933136	-9.495377	0.9596863
1493856336947	0.7220764	-10.321915	0.6516876
1493856336969	0.22201538	-10.91098	-0.28242493
1493856336987	1.5164795	-11.1284485	-0.8589783
1493856337006	3.9366455	-10.992462	0.095336914
1493856337025	5.192032	-11.037155	1.0882568
1493856337045	3.744629	-11.405334	0.059188843
1493856337063	1.2743683	-11.657272	-2.4881592
1493856337095	2.589981	-11.88739	-2.061203
1493856337102	4.4250793	-12.296082	-2.4164734
1493856337121	4.498001	-12.090088	-3.156128
1493856337142	1.5534363	-11.603607	-2.401245
1493856337163	-1.8526306	-10.850693	-0.55288696
1493856337182	-3.4955292	-12.417282	1.5085907
1493856337203	-5.0928497	-15.386963	3.8247375
1493856337223	-6.796402	-17.463303	1.3257599
1493856337241	-4.456192	-15.613235	-1.1394653
1493856337264	-2.6705933	-13.182129	-2.4131622
1493856337281	-2.3405457	-12.039993	-0.31611633
1493856337302	2.324295	-10.640503	2.4415894
1493856337323	1.7909393	-9.23288	-0.22625732
1493856337346	0.6776428	-8.239395	-0.23202515
1493856337365	1.0316315	-6.948105	1.5231781
1493856337382	0.51560974	-5.8619385	1.9644165
1493856337405	-0.76919556	-3.9368134	2.27359
1493856337421	-1.6692963	-2.7301483	1.9548798
1493856337459	-1.8404999	-2.653885	1.1746674
1493856337479	-1.2124939	-2.958313	0.9557495
1493856337501	-0.75813293	-4.132843	-0.019104004
1493856337524	-0.58018494	-5.4091797	-1.3196716
1493856337540	-0.82595825	-7.17334	-2.6381683
1493856337565	-1.4429779	-11.289658	-9.942215
1493856337579	-3.0881805	-16.539612	-14.492371
1493856337598	-3.935608	-14.972519	-13.997452
1493856337618	-3.464157	-11.565247	-8.380386
1493856337638	-2.3561401	-9.696182	-3.1781464
1493856337662	-3.9266052	-8.951965	-3.1658936
1493856337679	-6.090332	-11.1658325	-4.821594
1493856337698	-5.428009	-14.727615	-5.075348
1493856337718	-4.1820526	-11.645798	0.33151245
1493856337738	-3.3203125	-6.9862213	1.0609436
1493856337759	-0.5441742	-5.410843	4.6246796
1493856337778	-0.43234253	-7.932785	5.2279663
1493856337798	1.5480499	-10.926483	5.750839
1493856337820	3.7388916	-12.298813	4.8302765
1493856337839	3.7628326	-11.679901	1.2276459
1493856337860	3.5955353	-10.749435	-0.84198
1493856337879	2.1801758	-10.812668	0.37963867
1493856337898	0.26332092	-10.369858	1.3269653
1493856337919	-0.9508667	-8.809235	0.08149719
1493856337938	-1.2536316	-8.043869	-0.32911682
1493856337959	-0.7314148	-8.967804	-0.10362244
1493856337980	0.083465576	-9.470917	-0.04472351
1493856337999	0.7272186	-9.22316	0.73265076
1493856338020	1.0345306	-9.086578	0.8391876
1493856338039	2.221161	-9.290756	0.68891907
1493856338055	3.3829956	-9.462524	-0.23182678
1493856338078	3.5279846	-9.440048	-0.9233551
1493856338101	3.0777893	-9.516281	-0.5933533
1493856338115	2.774414	-9.78952	0.24082947
1493856338135	2.1882477	-9.875305	0.7884979
1493856338154	0.7165375	-10.258926	0.96128845
1493856338174	-0.96875	-11.284973	0.59991455
1493856338192	-0.5920105	-11.533707	-0.6825714
1493856338212	2.5716095	-11.214401	-0.10169983
1493856338237	4.285904	-11.0464325	0.9976196
1493856338253	2.9194336	-11.024612	0.0667572
1493856338278	1.6474762	-11.331985	-1.2938843
1493856338296	2.6614227	-11.980972	-1.3456573
1493856338317	4.0597534	-12.633789	-1.7250366
1493856338332	3.9390717	-12.666702	-3.2294006
1493856338357	1.3365936	-11.824051	-3.2193909
1493856338372	-1.532898	-10.44809	-0.8950653
1493856338391	-2.3347626	-11.283371	2.2636566
1493856338416	-3.907669	-14.070114	3.5358276
1493856338438	-6.6567993	-17.147964	1.7919312
1493856338453	-5.684616	-16.738083	-0.97514343
1493856338475	-3.5701447	-13.624634	-2.166336
1493856338494	-3.3470917	-12.379822	-1.2592621
1493856338513	2.7897034	-11.069046	4.196228
1493856338534	3.1367493	-9.890671	0.39645386
1493856338553	2.5702972	-8.066803	0.33078003
1493856338576	2.6897125	-7.2770233	2.0840912
1493856338591	0.9953308	-5.342148	2.4561615
1493856338611	-0.37852478	-3.6184082	3.6553497
1493856338631	-1.4573517	-2.7832794	2.92836
1493856338650	-2.1178284	-2.1679382	2.4878845
1493856338671	-2.0435028	-2.557312	1.7760773
1493856338692	-1.79245	-3.5125885	0.27539063
1493856338712	-1.5961609	-4.6367035	-0.66537476
1493856338732	-1.8129578	-7.7005615	-4.148575
1493856338754	-3.1524963	-13.804169	-13.230988
1493856338773	-5.450165	-18.016586	-14.366364
1493856338790	-5.1582336	-13.281982	-10.7912445
1493856338833	-3.1931458	-9.424118	-6.1936493
1493856338834	-2.1304321	-8.897354	-3.4793549
1493856338873	-5.2785034	-7.913727	-4.568283
1493856338891	-7.7722626	-13.304169	-4.4389954
1493856338910	-6.0533295	-15.570999	-3.359253
1493856338933	-3.191162	-11.865845	0.0463562
1493856338950	0.07872009	-6.6034546	3.598404
1493856338973	-0.3565979	-6.916321	5.827835
1493856338992	-0.40167236	-9.050064	5.632004
1493856339011	2.2328033	-10.757523	7.2730865
1493856339032	3.3137207	-11.848236	5.301056
1493856339050	3.1887817	-11.427612	0.5631256
1493856339076	2.7522125	-11.300781	-1.772171
1493856339088	1.3618317	-10.892334	1.1002655
1493856339110	-0.6852875	-9.685867	0.6882324
1493856339128	-0.5340271	-7.9838104	-0.16394043
1493856339147	-0.3998413	-8.694809	0.46199036
1493856339168	-0.23835754	-9.292725	0.23117065
1493856339190	-0.34503174	-9.429703	-0.5805664
1493856339209	0.26374817	-9.262573	0.82006836
1493856339231	1.2496643	-9.241333	0.32977295
1493856339250	2.4495697	-8.838135	-0.7346344
1493856339271	2.7375946	-8.661163	-1.9942322
1493856339297	2.35289	-9.518829	-1.068222
1493856339306	1.8041534	-10.219925	-0.21672058
1493856339330	0.78060913	-10.288315	0.04725647
1493856339349	0.36227417	-10.434387	0.60224915
1493856339371	0.977478	-11.427155	1.1411896
1493856339389	1.8133087	-11.9144745	0.36561584
1493856339410	3.0252228	-11.767883	-1.4160004
1493856339430	3.4826202	-11.463516	-1.3040161
1493856339449	2.6488495	-11.784027	-1.0154114
1493856339468	2.8877869	-12.320938	-1.7996368
1493856339490	4.2826996	-13.019318	-1.878418
1493856339507	4.61084	-13.006363	-1.9657288
1493856339527	2.1319122	-12.045776	-2.3851318
1493856339550	-2.132553	-10.512558	-1.8850098
1493856339565	-3.7831573	-10.806915	1.3582916
1493856339584	-4.096512	-13.556488	4.1462708
1493856339604	-6.231064	-16.184479	3.2370605
1493856339624	-6.5816803	-16.665726	-0.19598389
1493856339643	-3.78273	-14.192337	-2.1158447
1493856339663	-2.7991486	-12.229065	-1.0696869
1493856339683	-0.37217712	-11.715622	2.9456787
1493856339707	1.2441559	-11.079361	0.75413513
1493856339728	2.3601532	-9.461578	0.06639099
1493856339743	2.5724182	-7.3780365	1.6888123
1493856339766	2.0278473	-5.3751526	2.3560486
1493856339785	0.40429688	-3.479187	2.996399
1493856339806	-0.6689453	-2.226181	2.8352509
1493856339826	-1.6960297	-1.6347809	2.615982
1493856339848	-2.0401	-2.0006409	1.931076
1493856339865	-1.829071	-2.8816833	0.79418945
1493856339886	-1.7067413	-4.9313354	-0.61431885
1493856339905	-2.5746307	-9.1532135	-5.1695557
1493856339924	-4.34729	-15.28746	-11.997833
1493856339946	-5.6461487	-16.997711	-12.728149
1493856339964	-5.71846	-12.139114	-9.349899
1493856339984	-3.859787	-9.278442	-5.7099457
1493856340005	-3.4795532	-9.292618	-3.651947
1493856340022	-5.610138	-8.201233	-3.673462
1493856340043	-8.398163	-13.381271	-5.7497864
1493856340061	-7.46019	-15.360367	-4.992508
1493856340089	-3.590744	-11.443192	0.93717957
1493856340101	-0.38816833	-5.378174	5.8685455
1493856340124	-1.5805359	-5.520569	5.9174957
1493856340141	-0.35961914	-8.442795	3.7043915
1493856340158	3.6483765	-11.648956	7.1469727
1493856340179	5.4328766	-13.080124	5.0828705
1493856340220	4.465927	-12.851852	-2.3117676
1493856340242	2.6669464	-11.803009	-2.3966522
1493856340261	0.9967499	-10.662186	1.6967773
1493856340283	-1.4485016	-9.336197	0.68873596
1493856340301	-1.6802979	-7.3144684	-0.26011658
1493856340319	-2.1566315	-8.261948	-0.48579407
1493856340343	-1.1178741	-8.83757	0.6554413
1493856340362	-0.5179138	-9.89711	-1.2268677
1493856340382	0.18707275	-9.248474	-0.028259277
1493856340402	1.6912384	-9.223907	0.5886078
1493856340421	2.5045776	-8.994217	0.039749146
1493856340442	1.210907	-8.88681	0.042800903
1493856340459	1.3666229	-9.242004	-0.516098
1493856340482	0.8797455	-9.735672	-0.043518066
1493856340500	0.7196655	-10.641708	-0.8786926
1493856340521	1.4145813	-10.723679	-1.7040405
1493856340541	1.80336	-11.550262	-0.16500854
1493856340559	1.0894623	-11.937393	0.34436035
1493856340589	1.878128	-11.534592	-0.10290527
1493856340596	4.0534515	-11.209518	-0.22862244
1493856340620	2.7637634	-11.817139	-0.6837311
1493856340638	2.068756	-12.260132	-1.0552673
1493856340656	3.253357	-12.811844	-0.8734741
1493856340676	3.2749329	-12.725174	-1.9896545
1493856340700	2.3031158	-12.0589905	-2.8491821
1493856340718	-0.20936584	-11.0564575	-1.8762665
1493856340742	-2.0757446	-10.292496	0.6949463
1493856340756	-3.187027	-11.873962	2.8240662
1493856340778	-4.964676	-14.694611	3.3509674
1493856340795	-6.5055084	-16.10942	1.5088806
1493856340814	-5.2124634	-14.927689	-0.6337433
1493856340833	-3.7716827	-13.134262	-1.5771179
1493856340852	-1.5968018	-12.09375	0.67533875
1493856340872	2.5439758	-10.9995575	1.4214172
1493856340892	3.187622	-9.900894	0.3496399
1493856340911	2.1517487	-8.22348	1.9022369
1493856340936	0.85783386	-6.0318604	2.596634
1493856340952	0.08963013	-4.421219	2.849701
1493856340975	-0.7829437	-3.5424652	2.9367828
1493856340998	-2.1050568	-3.1085968	2.9607086
1493856341014	-2.7832794	-3.17099	2.5373383
1493856341034	-2.7589417	-3.5529785	1.6012573
1493856341054	-2.5685883	-4.1521454	0.36351013
1493856341081	-2.3876495	-5.543503	-1.090622
1493856341097	-2.925827	-9.055405	-5.051483
1493856341113	-3.8770905	-15.335266	-10.149384
1493856341133	-4.1275635	-17.48201	-12.230301
1493856341152	-4.3694153	-12.385056	-10.228699
1493856341172	-3.5620575	-8.680649	-6.471985
1493856341192	-2.9611359	-8.128677	-3.49617
1493856341213	-3.4104767	-6.991394	-3.9501495
1493856341234	-6.26622	-10.580338	-4.9623413
1493856341252	-7.0341034	-15.139206	-4.9591064
1493856341273	-3.0489655	-14.210159	0.9581299
1493856341294	-0.920105	-9.01535	3.2627106
1493856341311	-0.49647522	-6.040268	4.933029
1493856341334	-0.1273346	-6.8975983	4.978409
1493856341355	2.2675323	-9.818558	6.1777496
1493856341374	2.9484863	-12.025986	5.0229797
1493856341393	2.8013153	-12.117081	1.1822968
1493856341414	3.0375214	-11.995163	-1.9939728
1493856341432	1.6060944	-10.87355	0.66345215
1493856341452	-0.8724823	-8.969818	0.8332977
1493856341475	-1.697525	-7.630615	0.38217163
1493856341492	-2.237732	-8.578644	-0.04121399
1493856341513	-0.58909607	-9.080505	0.5560608
1493856341531	0.37179565	-9.921249	-0.7273407
1493856341553	0.13856506	-9.023422	-0.10574341
1493856341575	1.5652466	-8.998169	-0.8162689
1493856341615	1.4665222	-9.002289	-0.002609253
1493856341638	1.3293457	-8.739578	-0.24539185
1493856341648	1.2519379	-8.958115	-0.10783386
1493856341668	1.0713348	-9.788773	0.68603516
1493856341688	0.74128723	-10.4760895	-0.40272522
1493856341712	1.4379272	-10.589035	-0.7501831
1493856341728	0.53015137	-11.629456	-0.57696533
1493856341750	-0.17819214	-12.323471	-0.70350647
1493856341768	2.1875153	-12.419708	-1.0373535
1493856341790	5.69812	-12.788803	-0.768692
1493856341809	3.3989716	-12.640549	-2.4320374
1493856341830	1.6572876	-12.621231	-2.7514496
1493856341852	2.7326508	-13.4158325	-1.7968445
1493856341871	3.3401031	-12.860855	-2.0259552
1493856341889	1.3140106	-11.425598	-1.6940765
1493856341911	-2.6500854	-10.169998	-1.1475067
1493856341929	-3.6926575	-11.399017	2.233261
1493856341946	-4.2122803	-14.270538	5.0176086
1493856341970	-6.203293	-15.740524	3.7726898
1493856341990	-6.5004883	-15.017029	-0.102386475
1493856342010	-4.2697296	-13.304489	-1.8789825
1493856342031	-3.4990845	-12.035416	-0.9615021
1493856342047	-0.93933105	-10.804047	0.5644684
1493856342069	3.0185547	-9.319214	0.30645752
1493856342085	1.8347931	-8.36792	0.6210327
1493856342106	1.996048	-7.493515	1.9464569
1493856342132	1.1215668	-5.615692	3.424179
1493856342147	-0.58213806	-3.4190674	3.5010223
1493856342164	-1.8588562	-2.7825165	2.9937592
1493856342184	-2.253067	-2.9294128	2.5035095
1493856342205	-2.2420197	-3.411148	1.6749725
1493856342228	-1.9805908	-4.1934814	0.64138794
1493856342250	-1.8079529	-5.844452	-0.7561798
1493856342268	-2.5748138	-9.981613	-5.285507
1493856342287	-4.2382507	-15.2144165	-11.200745
1493856342307	-5.659973	-14.754303	-12.146317
1493856342323	-5.968384	-10.208618	-9.5529175
1493856342348	-4.7450104	-8.649063	-6.0276337
1493856342369	-3.6363373	-9.2092285	-3.0333557
1493856342383	-4.656433	-9.033264	-3.643814
1493856342404	-6.0861053	-12.214249	-5.447464
1493856342423	-5.472763	-14.940491	-3.418808
1493856342447	-3.4207458	-12.128418	0.71235657
1493856342464	-0.93052673	-7.579651	4.758209
1493856342487	-1.0732727	-6.3242035	5.056717
1493856342507	-0.036636353	-7.7623596	5.674423
1493856342524	2.9960175	-10.458496	7.08786
1493856342546	3.5306702	-12.3085785	4.9058533
1493856342566	3.1089325	-12.699707	-0.6487274
1493856342584	3.0944214	-12.198547	-1.229599
1493856342608	1.6112518	-11.072418	1.2355194
1493856342622	-0.77923584	-9.027847	0.32254028
1493856342643	-2.1523895	-7.945511	0.628952
1493856342661	-2.3905487	-8.362488	0.05317688
1493856342681	-1.2027435	-8.996506	0.49179077
1493856342700	-1.0704956	-9.694733	0.22314453
1493856342722	0.52130127	-9.306213	0.5978699
1493856342741	2.2353973	-9.358948	-0.20709229
1493856342762	1.8890381	-8.462326	-0.3229828
1493856342780	1.8422089	-8.625641	-1.2717896
1493856342801	1.3946686	-9.669281	-0.26913452
1493856342822	1.0665283	-10.590164	0.27583313
1493856342842	0.62527466	-10.637711	-0.42669678
1493856342862	0.1565094	-10.63858	-0.5457611
1493856342878	0.25097656	-11.361649	-0.49118042
1493856342901	2.1007233	-11.20311	-0.2768097
1493856342922	4.046341	-11.136353	0.11193848
1493856342941	2.8708954	-10.947662	-0.004211426
1493856342979	1.715683	-11.9361725	-1.111084
1493856343000	3.9898834	-13.489334	-0.7770233
1493856343025	4.261612	-14.143112	-1.6547394
1493856343041	3.6520844	-13.107513	-2.3477783
1493856343061	-0.25767517	-12.13858	-3.1541443
1493856343079	-3.2966614	-10.77803	-0.9694214
1493856343099	-3.9624481	-11.672348	2.4482422
1493856343120	-5.1022797	-13.308685	3.6329346
1493856343139	-7.3724823	-15.591095	1.9677887
1493856343160	-6.679199	-15.552322	-1.0736694
1493856343174	-3.4966888	-13.33342	-1.7506866
1493856343195	-2.397766	-12.159653	-1.0338135
1493856343216	0.21031189	-12.213547	0.2584381
1493856343234	3.0395355	-10.689148	-1.011383
1493856343258	2.4067535	-8.853195	1.520401
1493856343275	2.3615417	-6.92688	1.2670746
1493856343295	1.64888	-5.6932373	2.678772
1493856343316	0.40270996	-3.7853394	3.0000763
1493856343337	-1.3363647	-2.4962158	3.032837
1493856343359	-2.250534	-2.3900452	2.7595062
1493856343378	-2.5610504	-2.594635	2.3056946
1493856343399	-2.4386292	-3.400711	1.2719727
1493856343414	-2.3871307	-5.1515045	-0.25798035
1493856343438	-2.8803864	-8.4461975	-3.5690002
1493856343459	-4.1119537	-13.620514	-9.363647
1493856343474	-5.3718414	-17.344498	-13.066437
1493856343498	-5.5486298	-15.346069	-11.397049
1493856343518	-3.9538574	-10.827454	-7.205368
1493856343534	-2.7690582	-9.267395	-4.6239777
1493856343558	-4.2339325	-7.7358856	-4.098648
1493856343577	-6.0165405	-7.5122986	-4.7317047
1493856343594	-6.216568	-9.980377	-3.7260284
1493856343612	-4.491455	-12.219788	-0.81422424
1493856343634	-2.4947052	-11.979263	1.6032562
1493856343653	-0.58088684	-9.218124	3.6331482
1493856343673	0.38653564	-7.837967	5.1690674
1493856343693	0.9378052	-8.471893	5.744446
1493856343715	2.5198212	-10.263321	6.111969
1493856343733	2.6437225	-11.690567	3.7144928
1493856343755	2.276474	-12.201935	-0.62602234
1493856343775	1.9325104	-11.66629	-0.551178
1493856343797	-0.19793701	-10.208542	0.924469
1493856343813	-2.0185852	-7.993088	-0.03491211
1493856343832	-2.4597626	-7.6424866	0.30218506
1493856343853	-1.5232697	-8.875916	0.4416809
1493856343872	0.42074585	-9.364502	0.59454346
1493856343895	1.2437897	-9.68837	1.0913086
1493856343914	2.1002197	-9.740189	0.39189148
1493856343934	1.9930115	-9.806519	-0.106903076
1493856343954	0.67666626	-9.468887	-1.0061951
1493856343978	0.39430237	-9.115128	-0.54940796
1493856343994	0.47579956	-9.843658	0.37898254
1493856344014	0.59103394	-10.795853	0.5849304
1493856344033	0.4838562	-10.843628	-0.20161438
1493856344053	0.36151123	-11.037018	-0.8315582
1493856344073	0.63345337	-11.74675	-1.0509644
1493856344092	1.9116669	-11.802185	-0.14379883
1493856344117	3.3881073	-11.532059	0.42303467
1493856344130	1.6348877	-11.516541	-1.2618408
1493856344149	0.8311615	-11.260788	-1.5228271
1493856344168	2.8855438	-11.593323	-1.26268
1493856344187	3.7640839	-13.003113	-1.8529816
1493856344207	3.8964233	-12.558624	-2.0829163
1493856344228	1.3656769	-12.03923	-1.3212433
1493856344248	-2.7815094	-10.695877	-1.2183075
1493856344270	-4.609009	-11.309677	2.68602
1493856344290	-5.2059784	-13.382156	4.010742
1493856344308	-7.385315	-15.5338745	3.137909
1493856344331	-6.6869965	-14.90889	-0.7059326
1493856344372	-3.1451569	-13.047928	-2.2041168
1493856344372	-2.5885468	-12.269119	-0.88217163
1493856344412	3.8889923	-11.2361145	2.832199
1493856344431	3.4624634	-11.000137	0.3601532
1493856344451	2.664566	-9.334518	0.83865356
1493856344471	1.2168732	-6.6433563	2.1155396
1493856344491	0.5212555	-4.5170746	3.3791504
1493856344512	-0.36169434	-3.2518005	3.1847992
1493856344531	-1.8244629	-3.0018158	3.219864
1493856344550	-2.805313	-3.1880188	3.017044
1493856344571	-2.8865662	-3.5641785	1.990036
1493856344588	-2.5473633	-4.1727905	0.5268402
1493856344614	-2.5417175	-5.508072	-1.0870361
1493856344626	-2.2109833	-8.673416	-4.173767
1493856344645	-3.025711	-14.151886	-10.430298
1493856344666	-4.4065094	-16.490814	-12.626389
1493856344686	-5.0008087	-12.16246	-10.670715
1493856344707	-4.5726166	-8.912704	-6.7213593
1493856344727	-3.6348877	-8.774475	-3.5838165
1493856344748	-3.9461975	-8.013672	-2.99115
1493856344770	-5.130707	-9.476868	-4.012375
1493856344789	-6.1883545	-14.964371	-3.6886597
1493856344810	-5.0013885	-14.97377	-1.1118622
1493856344829	-1.8460083	-10.128983	2.6799774
1493856344850	0.0393219	-6.1814575	5.479904
1493856344869	-0.2631073	-6.5588074	5.954605
1493856344887	1.5774231	-9.276932	6.9988556
1493856344907	2.9531708	-12.000336	5.401474
1493856344928	2.9519806	-12.523529	1.375473
1493856344949	3.1132507	-11.7487335	-1.4794617
1493856344968	1.4649353	-10.368774	-0.23898315
1493856344987	-1.6490326	-8.765488	0.3294525
1493856345008	-3.0262604	-7.690933	-0.03543091
1493856345028	-2.4393616	-8.364517	-0.09799194
1493856345046	-0.6623535	-9.456345	0.95783997
1493856345066	0.22148132	-9.934601	0.74913025
1493856345085	1.1180115	-9.630936	-0.18447876
1493856345105	2.3648682	-9.487717	-0.4038086
1493856345127	1.8876953	-9.533264	-0.3577118
1493856345143	1.3352814	-9.093002	-0.2749939
1493856345160	1.0801239	-9.114212	0.062423706
1493856345180	0.8998413	-9.551102	0.3241272
1493856345200	0.3749237	-10.021652	-0.17704773
1493856345221	-0.30975342	-10.912186	-0.6042328
1493856345243	-0.41532898	-11.6732025	-0.26753235
1493856345263	0.4406433	-11.701843	-0.7918854
1493856345280	2.4996338	-11.277939	-1.1707611
1493856345301	3.7672577	-10.996872	0.2151947
1493856345322	1.8053741	-10.85556	-0.26441956
1493856345344	1.1570129	-11.599701	-1.2725067
1493856345360	2.84169	-13.310379	-1.1736755
1493856345383	3.9345703	-13.651016	-1.6640472
1493856345404	2.7446747	-12.757767	-2.7673187
1493856345420	-1.3209381	-10.932068	-2.3024445
1493856345443	-3.1003265	-10.718872	0.6220703
1493856345460	-3.5478516	-12.209991	3.5364685
1493856345483	-5.8408203	-14.807495	3.1700134
1493856345502	-7.3625793	-16.35788	0.44114685
1493856345519	-4.7210693	-15.149567	-1.186676
1493856345542	-3.8054657	-13.217026	-0.8170471
1493856345564	-1.434433	-12.607407	-0.025283813
1493856345582	3.3465424	-10.627716	-1.2947235
1493856345603	1.9820557	-9.9730835	0.20436096
1493856345623	2.305252	-7.8344727	0.99494934
1493856345639	0.58787537	-6.678421	2.0041199
1493856345658	0.38000488	-3.378189	3.0485077
1493856345678	-0.7666931	-2.540207	3.1464386
1493856345699	-1.855133	-2.0368805	3.0671844
1493856345742	-2.3484497	-2.0804138	2.7759705
1493856345742	-2.2300873	-2.6550293	1.8484039
1493856345780	-1.9627991	-4.087143	0.6495056
1493856345798	-2.2375488	-6.5637054	-1.5954132
1493856345820	-3.3065338	-12.126556	-7.4064484
1493856345841	-4.157318	-18.197052	-13.044937
1493856345861	-5.59079	-15.681274	-12.673553
1493856345881	-5.0914307	-9.833588	-8.986618
1493856345899	-3.6239166	-8.591568	-4.942993
1493856345921	-3.2406006	-8.867111	-3.2855682
1493856345940	-4.7308655	-7.8117676	-3.8547974
1493856345960	-6.5846863	-12.775085	-4.783188
1493856345979	-6.033905	-14.831802	-2.7487183
1493856345999	-3.1296997	-12.421616	2.6996002
1493856346020	-0.4741516	-6.906143	3.5411987
1493856346040	-0.80384827	-5.9863434	5.5335083
1493856346058	0.10876465	-8.328476	5.734436
1493856346080	3.537857	-10.916	6.6925507
1493856346099	3.7902985	-12.765167	3.9200745
1493856346124	2.4622192	-12.257355	-0.82670593
1493856346135	2.7663574	-11.148987	-1.0205536
1493856346154	1.6034698	-10.096222	0.51745605
1493856346175	-1.7031403	-8.81221	-0.003692627
1493856346194	-2.5537262	-7.361206	0.1770935
1493856346214	-2.4768982	-8.400055	-0.20381165
1493856346237	-1.2568512	-9.852737	0.2621765
1493856346258	-0.049194336	-9.722305	0.4328766
1493856346281	1.3724976	-9.219894	0.057998657
1493856346299	2.436905	-9.1961975	-0.13316345
1493856346319	2.2363434	-9.016571	-0.4559021
1493856346338	1.4916534	-8.9292755	-0.64907837
1493856346359	1.2707977	-9.30661	-0.11462402
1493856346376	1.0348206	-9.997437	0.17689514
1493856346397	0.93496704	-10.163712	-0.44499207
1493856346418	0.23434448	-10.176849	-0.6199188
1493856346437	-0.42855835	-10.861832	0.009490967
1493856346455	0.6940918	-11.713913	-0.0488739
1493856346476	3.1961975	-11.786438	-0.13209534
1493856346496	3.7708282	-11.55191	0.5024109
1493856346515	1.5947876	-11.388672	-0.46139526
1493856346538	1.5547485	-12.1610565	-1.2567291
1493856346554	3.0688324	-13.7643585	-1.9517212
1493856346577	3.7335205	-13.571976	-2.6796417
1493856346597	2.5895844	-12.327972	-2.2810364
1493856346615	-1.0850677	-11.077377	-1.5838013
1493856346643	-3.4556122	-11.022751	1.0107269
1493856346651	-4.353714	-12.417847	3.4837494
1493856346675	-6.518158	-14.619949	2.975525
1493856346691	-7.482773	-15.564514	0.4480896
1493856346711	-5.5315094	-14.677872	-1.142746
1493856346730	-4.413849	-13.062378	-0.45535278
1493856346751	0.47587585	-12.066559	3.1199493
1493856346772	2.1006165	-11.650757	0.3408203
1493856346793	2.9879913	-9.429092	0.6044769
1493856346812	3.262741	-8.260742	1.269043
1493856346835	1.4328918	-5.9097595	2.0266266
1493856346850	0.44932556	-3.9461365	2.6652222
1493856346870	-0.5070648	-2.7392273	2.8679352
1493856346890	-1.6109467	-2.1776428	2.623352
1493856346910	-2.3051453	-2.1694794	2.3045197
1493856346932	-2.3868713	-2.4969482	1.4740143
1493856346951	-2.0727386	-3.671585	0.33729553
1493856346972	-2.179657	-5.817871	-0.92155457
1493856346991	-3.21138	-11.197357	-7.01062
1493856347014	-5.2135315	-18.656158	-14.199814
1493856347031	-6.178772	-17.536865	-13.721603
1493856347050	-5.1316223	-10.518112	-9.103958
1493856347071	-2.7882538	-8.557297	-4.4517365
1493856347091	-3.697342	-7.994385	-2.9290009
1493856347110	-6.23732	-8.744247	-3.4290009
1493856347148	-7.173645	-13.8414	-4.741791
1493856347168	-5.24057	-13.1236725	-0.6776428
1493856347185	-3.215973	-9.574478	1.5085602
1493856347205	-0.46142578	-6.1273193	4.277298
1493856347225	-0.90019226	-6.7810974	5.035614
1493856347246	0.9176483	-9.179321	5.2360992
1493856347266	4.588257	-11.576431	5.9516144
1493856347287	3.5169678	-12.426453	2.4893188
1493856347305	2.9464111	-11.903549	-1.7940369
1493856347329	2.0199585	-11.100113	-1.3289032
1493856347349	-0.25053406	-10.04863	1.4441528
1493856347364	-1.2820892	-8.198105	-0.1295166
1493856347389	-2.6891937	-7.848984	-0.3023224
1493856347408	-1.9475098	-8.924286	-0.21826172
1493856347425	0.3063507	-9.859955	0.44613647
1493856347449	0.4897461	-9.342377	-0.21340942
1493856347463	1.4540863	-8.886154	-0.32618713
1493856347490	2.4600372	-9.37915	-0.09687805
1493856347507	2.3133087	-9.341324	-0.3002472
1493856347525	1.1582489	-9.341797	-0.30537415
1493856347546	1.080719	-9.49234	-0.10548401
1493856347564	0.4297638	-9.886536	0.86505127
1493856347586	-0.3663025	-10.434845	-0.38519287
1493856347606	-0.7910614	-10.79657	-1.3716583
1493856347624	-0.111312866	-11.336563	-0.6508484
1493856347649	1.4176941	-11.59639	0.28115845
1493856347664	3.2384796	-11.6111145	-0.11538696
1493856347683	3.849411	-11.392212	-0.41688538
1493856347703	2.8462524	-11.683548	-0.75671387
1493856347723	2.6964417	-12.907593	-1.1031036
1493856347743	2.9286804	-13.594208	-1.9331512
1493856347763	1.949707	-12.723145	-3.3802338
1493856347784	-0.7994385	-11.251953	-3.0383148
1493856347804	-3.3063202	-10.76181	-0.39239502
1493856347825	-4.2674866	-11.988739	2.358078
1493856347849	-5.924164	-14.294083	3.2715454
1493856347862	-7.8172607	-16.256714	1.319809
1493856347886	-6.7111206	-15.358597	-0.6221771
1493856347904	-4.308731	-12.857529	-1.0986023
1493856347928	-1.748291	-11.619751	0.5256195
1493856347944	0.8604889	-10.938431	-0.17645264
1493856347965	1.8430786	-10.030472	-0.020202637
1493856347988	1.7925568	-8.221069	1.246582
1493856348003	1.0407867	-6.4538727	1.8408356
1493856348024	0.07963562	-4.9656982	1.8959045
1493856348044	-0.3990326	-3.3193665	2.1115875
1493856348064	-1.2297516	-2.311142	2.0842133
1493856348085	-1.9165344	-2.0607147	1.7372131
1493856348103	-2.0005493	-2.5726776	1.2423248
1493856348123	-1.5445099	-3.5100403	0.6145935
1493856348148	-1.475296	-4.927765	0.016662598
1493856348160	-2.1001282	-8.030899	-2.7940216
1493856348182	-2.5985413	-14.029114	-11.537872
1493856348198	-5.205612	-18.664627	-16.533813
1493856348217	-5.0625	-13.296951	-13.279465
1493856348237	-3.2425537	-9.712585	-6.770584
1493856348261	-2.3030396	-9.489899	-2.1875458
1493856348283	-4.7861633	-8.6245575	-1.4882965
1493856348298	-8.035248	-9.999298	-2.8338318
1493856348316	-9.26944	-12.350693	-2.7894287
1493856348340	-6.971283	-13.433014	1.2367706
1493856348357	-4.022537	-10.73967	-0.82754517
1493856348380	0.7618561	-7.158203	2.8948975
1493856348401	1.8890076	-6.474777	6.9947968
1493856348419	2.0168762	-8.68454	6.160904
1493856348441	4.562805	-10.941345	4.914627
1493856348461	3.1341248	-12.397568	2.20224
1493856348477	3.7417908	-11.6484375	-2.0355835
1493856348501	2.8298035	-11.868546	-1.2621155
1493856348541	-0.40983582	-10.199722	0.23194885
1493856348560	-2.6870422	-7.809128	0.31744385
1493856348579	-3.2400055	-7.219803	-0.4249115
1493856348600	-3.0159302	-8.487671	-0.22277832
1493856348615	-1.224884	-9.820328	0.7866516
1493856348636	-0.09240723	-10.28624	1.4026642
1493856348656	1.9989777	-9.711029	0.79977417
1493856348676	3.2312927	-9.600876	-0.6548462
1493856348695	3.5134277	-9.345306	-1.3852692
1493856348715	2.5147705	-9.388702	-1.0883179
1493856348735	2.872223	-9.419525	0.11584473
1493856348756	1.8016205	-9.497635	0.9269867
1493856348846	-0.23937988	-9.901047	0.82032776
1493856348846	-2.0720825	-10.926956	-0.2496643
1493856348846	-1.4207001	-11.29631	-1.2856598
1493856348846	2.8220825	-11.480103	-0.07823181
1493856348858	5.0693665	-11.464066	0.9950409
1493856348916	2.6285248	-11.350052	0.13670349
1493856348916	0.22807312	-11.98259	-1.0383606
1493856348916	1.4832153	-13.161499	-0.71003723
1493856348932	2.8375702	-13.7140045	-2.4406128
1493856348952	2.6809845	-12.529053	-3.1247559
1493856348971	-0.19772339	-11.103485	-2.4636078
1493856348992	-2.5397797	-10.8762665	-0.42796326
1493856349011	-3.631073	-12.308075	2.5158997
1493856349031	-5.628891	-14.217056	3.0933533
1493856349051	-7.651993	-15.726212	1.0642242
1493856349072	-6.5933228	-15.023224	-1.138382
1493856349091	-3.8563538	-12.792252	-1.5963287
1493856349111	-1.4505157	-11.357925	0.85346985
1493856349132	1.035202	-10.93251	1.3157043
1493856349152	2.0442963	-10.074875	0.26916504
1493856349170	2.6033478	-8.62587	1.653595
1493856349192	1.7640686	-7.502426	1.9752045
1493856349213	0.73620605	-5.5416107	2.1945953
1493856349232	-0.13244629	-3.44104	2.1957855
1493856349251	-1.0987549	-2.4048767	2.1188202
1493856349270	-1.7766113	-2.0200653	2.0570526
1493856349290	-1.984787	-2.1488037	1.6679993
1493856349310	-1.9486847	-3.1539001	0.6410217
1493856349329	-1.8484497	-4.842224	-0.34085083
1493856349349	-2.1361084	-8.445465	-2.9048615
1493856349370	-3.598816	-15.07695	-11.2117
1493856349391	-4.944641	-18.937576	-15.98848
1493856349409	-4.7146606	-14.282059	-12.408478
1493856349428	-3.158249	-9.595978	-5.8457336
1493856349448	-2.695053	-8.044113	-2.8634796
1493856349468	-3.0612793	-6.2124176	-3.3070068
1493856349488	-6.036499	-7.2049866	-2.3090363
1493856349508	-7.506851	-11.133759	-0.52033997
1493856349528	-5.464142	-15.44043	-0.2482605
1493856349547	-3.2728424	-14.966721	-0.07406616
1493856349567	0.1784668	-9.931595	2.6651917
1493856349587	0.5311737	-6.2224274	6.331543
1493856349607	0.71424866	-6.7781067	7.412094
1493856349627	2.0706177	-9.651428	6.7234344
1493856349647	1.4093628	-12.261337	4.5805054
1493856349667	2.3458252	-11.742355	-1.5781403
1493856349687	2.5080566	-10.45961	-0.08369446
1493856349706	-1.7618256	-9.926636	-0.247406
1493856349726	-2.4551697	-7.649872	0.34751892
1493856349746	-1.6572876	-7.696686	0.41311646
1493856380199	-0.122558594	-9.7200775	1.6703796
1493856380199	1.104248	-10.389099	1.6573639
1493856380199	2.1141052	-10.09906	0.7483673
1493856380200	2.6311798	-10.133484	-2.2499847
1493856380200	1.93367	-9.875198	-1.7425232
1493856380200	1.619339	-9.33316	-0.5577545
1493856380200	1.1254272	-9.230392	1.050705
1493856380200	1.18219	-9.253998	1.3112183
1493856380200	0.54678345	-9.27858	0.973526
1493856380200	-0.3310852	-10.5234375	0.4286499
1493856380200	-0.44483948	-11.117737	-1.3512421
1493856380200	1.0359344	-11.100876	-2.3759613
1493856380200	3.427887	-10.872589	-0.92170715
1493856380200	3.428955	-10.629425	1.4237823
1493856380200	2.1855621	-10.583221	1.5724945
1493856380200	-0.0736084	-11.046219	-1.2414093
1493856380200	1.7167969	-12.764999	-0.11979675
1493856380200	2.8953094	-14.193146	-2.156021
1493856380200	1.784256	-13.080017	-3.5733185
1493856380200	-1.5446777	-10.578415	-2.2294617
1493856380200	-2.7274628	-10.760361	-0.23443604
1493856380200	-3.0234833	-12.742645	2.8054352
1493856380200	-4.9022827	-14.907059	2.7074585
1493856380200	-7.9570007	-16.895096	0.5974579
1493856380200	-6.166916	-15.5864105	-1.7009125
1493856380200	-3.6780853	-13.454666	-2.0666656
1493856380201	-1.4609528	-12.297836	0.35227966
1493856380201	2.4846954	-11.142975	1.0321808
1493856380201	1.5384521	-10.208817	0.16313171
1493856380201	1.4409485	-8.101135	1.3988342
1493856380201	1.0108795	-7.0455627	1.5434723
1493856380201	0.36968994	-5.4701385	2.4285736
1493856380201	-0.042007446	-3.5361328	2.0621338
1493856380201	-1.2794647	-2.1416473	2.812729
1493856380201	-1.8896027	-1.664566	2.8840637
1493856380201	-2.0135193	-1.8337097	1.9798431
1493856380201	-1.7767334	-2.6798553	0.6065979
1493856380201	-1.6830444	-4.453598	-1.2165375
1493856380201	-2.5540009	-8.362854	-6.261505
1493856380201	-4.467102	-14.263351	-11.904602
1493856380201	-5.8410187	-17.573456	-13.221985
1493856380201	-5.465866	-15.00882	-11.010666
1493856380201	-3.7382202	-11.083786	-6.3026123
1493856380201	-4.0348206	-8.699768	-3.9479675
1493856380201	-7.0922546	-8.558212	-3.588211
1493856380201	-8.012146	-11.597046	-3.6651764
1493856380201	-6.1833496	-12.897354	-0.63487244
1493856380201	-3.8503113	-9.750488	1.8802338
1493856380201	-1.1761017	-7.216568	4.5976715
1493856380202	-0.506073	-7.8155975	5.113449
1493856380202	1.0349426	-9.880524	4.410507
1493856380202	4.250992	-11.468414	6.089035
1493856380202	4.0023346	-12.186752	3.168167
1493856380202	2.6470032	-11.776733	-0.68629456
1493856380202	1.450882	-10.964355	-0.20747375
1493856380202	-0.48812866	-10.329544	0.9557953
1493856380202	-2.018692	-8.529785	-0.13432312
1493856380202	-2.1137695	-7.4907684	0.097579956
1493856380202	-2.0654602	-8.591583	0.04020691
1493856380202	-1.1989746	-9.730103	-0.14393616
1493856380202	0.8616333	-9.354492	0.6910553
1493856380202	1.4537964	-9.41127	0.4015503
1493856380202	2.1875458	-9.564423	-0.32043457
1493856380202	1.9259644	-9.293213	-0.8128662
1493856380202	1.5388031	-9.280182	-0.8911133
1493856380202	1.7437744	-9.34021	-0.60017395
1493856380202	1.4784698	-9.257507	0.39390564
1493856380202	0.89482117	-9.239777	0.39053345
1493856380202	-0.36531067	-9.756424	-0.9326477
1493856380202	-0.46707153	-10.826263	-0.68070984
1493856380202	0.7075653	-11.947784	0.5232849
1493856380202	2.566742	-11.855621	-0.064468384
1493856380202	3.321762	-11.434418	0.47416687
1493856380203	2.1694489	-11.479965	-0.7949524
1493856380203	1.951294	-12.482315	-1.4445496
1493856380203	2.8615417	-14.731308	-1.4512024
1493856380203	3.4886627	-13.791718	-2.9834442
1493856380203	2.3913116	-12.162491	-3.040619
1493856380203	-1.3767853	-10.664139	-2.2522125
1493856380203	-2.9401703	-10.570419	0.9091339
1493856380203	-3.5518036	-11.736328	3.0165405
1493856380203	-5.496887	-14.707642	2.450409
1493856380203	-6.9929504	-16.295944	0.7138214
1493856380203	-4.513626	-15.178314	-2.0277557
1493856380203	-2.3562164	-12.656906	-1.2342987
1493856380203	1.9124298	-11.544647	2.5247498
1493856380203	3.9277344	-10.776749	-1.5340271
1493856380205	2.4433289	-9.480835	1.3873291
1493856380205	1.4923553	-7.7974854	1.3753662
1493856380205	0.6022644	-6.616974	2.5903778
1493856380205	-0.06277466	-4.1770782	2.709198
1493856380205	-0.5461273	-2.752304	2.9530182
1493856380205	-2.272171	-2.3844757	3.045044
1493856380206	-2.664627	-2.6390533	2.9227295
1493856380206	-3.095108	-2.9649048	1.7823181
1493856380206	-3.0966797	-4.022629	0.12004089
1493856380206	-3.0226135	-6.447647	-1.8532867
1493856380206	-3.7924347	-11.304901	-6.786545
1493856380206	-4.790329	-16.974014	-12.855774
1493856380206	-5.5978546	-17.144196	-13.006134
1493856380206	-4.944687	-11.67572	-8.643143
1493856380206	-3.6949463	-9.260117	-5.12677
1493856380206	-4.9830627	-8.892944	-4.152954
1493856380206	-6.9896393	-11.015533	-5.0222015
1493856380206	-6.4918823	-13.276093	-3.0330505
1493856380206	-4.331772	-10.509491	1.2483215
1493856380206	-2.0681152	-7.0903015	3.99617
1493856380207	-1.248352	-6.4468384	4.813431
1493856380207	-0.17146301	-8.51059	4.4354553
1493856380207	3.3475952	-10.659775	5.8434296
1493856380207	4.45607	-12.102646	4.6014557
1493856380207	2.6851654	-12.044891	-0.02607727
1493856380207	1.4631042	-11.084259	-1.2973785
1493856380207	0.43017578	-10.706787	0.7871704
1493856380207	-1.4882202	-9.566971	0.455307
1493856380207	-2.1002502	-8.152771	0.068374634
1493856380207	-1.4484863	-8.545364	0.3750763
1493856380207	-0.2984619	-9.569748	0.5877228
1493856380207	0.00642395	-9.541885	0.045166016
1493856380207	-0.08087158	-9.119171	-0.43081665
1493856380207	1.2946777	-9.049484	-0.7341461
1493856380207	1.973053	-8.89856	0.14196777
1493856380207	1.7628326	-9.255829	-0.09944153
1493856380208	1.1538239	-9.5095215	-0.72761536
1493856380208	0.750885	-9.736206	-0.17312622
1493856380208	0.7133484	-9.784714	0.024810791
1493856380208	0.5551758	-10.424713	-0.2948761
1493856380208	-0.30789185	-11.605133	-0.005645752
1493856380208	-0.47369385	-11.767059	-0.40068054
1493856380208	2.3071136	-11.585144	-0.35569763
1493856380208	3.8316193	-11.671982	-0.38798523
1493856380208	2.1488953	-11.485794	-0.6584625
1493856380208	1.8149109	-11.9600525	-1.3621826
1493856380208	3.5286865	-13.14888	-1.1357727
1493856380208	4.24704	-13.509659	-2.097046
1493856380208	2.9835205	-12.5273285	-2.7294312
1493856380208	-1.0970764	-11.060959	-1.6129303
1493856380208	-3.0147095	-10.9474945	0.5834198
1493856380208	-3.3800964	-12.381958	3.9116058
1493856380209	-5.4690857	-14.6640625	2.9738617
1493856380209	-7.4020386	-16.422089	-0.04534912
1493856380209	-4.618759	-15.484421	-1.3313751
1493856380209	-3.4212189	-13.019608	-1.2948608
1493856380209	-0.616272	-12.064865	0.65940857
1493856380209	4.607712	-10.531937	-2.5053406
1493856380209	2.932312	-9.481735	1.5119171
1493856380209	2.6918182	-8.093674	-0.0036773682
1493856380209	1.8800659	-6.2257385	2.4767609
1493856380209	0.037994385	-3.894394	3.0399475
1493856380209	-0.90748596	-3.035263	3.7712097
1493856380209	-2.1654358	-2.3033447	3.693985
1493856380209	-2.8790436	-2.5607147	3.333847
1493856380209	-2.9487915	-3.0380096	2.296646
1493856380209	-2.8564453	-3.7583313	0.77656555
1493856380209	-2.5886688	-5.734833	-0.60476685
1493856380209	-3.1085663	-10.00914	-4.6453094
1493856380209	-4.477936	-16.171646	-12.698959
1493856380209	-5.519348	-18.25064	-14.866257
1493856380209	-4.816208	-12.84343	-11.240677
1493856380209	-3.4918365	-9.690964	-6.037262
1493856380209	-3.164093	-7.4154205	-2.8512115
1493856380209	-4.2721252	-6.1876373	-3.646347
1493856380210	-5.2939453	-10.786148	-3.2685852
1493856380210	-4.9373474	-14.226074	-0.4982605
1493856380210	-3.4100342	-13.3979645	2.5041962
1493856380210	-1.9465942	-9.850586	2.1509094
1493856380210	-0.44166565	-7.5144806	5.260681
1493856380210	1.0475922	-7.5606384	7.524399
1493856380210	2.2812805	-10.143341	6.1739044
1493856380210	2.3418121	-11.897202	3.307846
1493856380210	2.88089	-11.718674	-0.8709564
1493856380210	2.2209015	-11.227371	-1.4108124
1493856380210	-0.7622986	-9.376312	0.9332123
1493856380210	-2.4221344	-7.435669	-0.025405884
1493856380210	-1.8674469	-8.054764	0.04336548
1493856380210	-0.28704834	-9.765381	0.14692688
1493856380210	0.86398315	-10.295273	-0.107055664
1493856380210	0.91796875	-9.8461	-0.10021973
1493856380210	1.5681458	-9.014938	-0.04837036
1493856380210	1.0674133	-8.752945	-0.58888245
1493856380210	0.3781433	-8.769333	-0.62879944
1493856380210	0.58451843	-9.263992	0.48771667
1493856380210	0.832489	-10.07637	1.0229034
1493856380210	0.90467834	-10.077072	-0.44296265
1493856380210	0.7231903	-9.994629	-1.4699554
1493856380210	0.55740356	-11.096695	-0.539032
1493856380211	0.7172394	-11.538666	0.014389038
1493856380211	1.6107178	-11.271072	-1.0677643
1493856380211	3.2523193	-11.167465	-0.4344635
1493856380211	3.7396088	-11.99408	-0.61906433
1493856380211	4.165344	-13.487427	-0.018325806
1493856380211	4.0101013	-14.13562	-0.8776245
1493856380211	2.1088562	-13.604187	-3.310669
1493856380211	-1.6248169	-11.926132	-3.0391235
1493856380211	-3.2043915	-11.095551	-0.85362244
1493856380211	-3.7108917	-11.545471	2.5065155
1493856380211	-5.285614	-13.716278	3.1893616
1493856380211	-7.2283173	-16.3517	1.8895264
1493856380211	-6.449005	-15.997559	-0.17388916
1493856380211	-3.8380585	-13.108765	-1.3134766
1493856380211	-2.7855225	-11.870209	-0.66796875
1493856380211	2.8511505	-10.872147	3.0790253
1493856380211	1.1203308	-10.21315	-0.36540222
1493856380211	1.737442	-8.583237	0.43107605
1493856380211	2.230484	-7.441574	1.8781433
1493856380211	0.6865692	-6.1695557	3.095169
1493856380211	-0.1630249	-4.058441	2.8211823
1493856380211	-1.41539	-2.3819275	2.9858704
1493856380211	-2.281662	-1.8234558	2.9346771
1493856380212	-2.5816345	-1.8450928	2.5489655
1493856380212	-2.3367767	-2.530243	1.7854614
1493856380212	-2.2311401	-4.1803894	0.3075714
1493856380212	-2.419632	-7.0464783	-1.1521912
1493856380212	-3.3397064	-13.537949	-9.816696
1493856380212	-5.7646027	-19.328247	-15.144608
1493856380212	-6.090317	-15.372086	-13.659973
1493856380212	-4.701523	-10.124481	-8.389984
1493856380212	-2.603119	-8.708588	-2.971161
1493856380212	-3.5511627	-6.944397	-3.070404
1493856380212	-5.80307	-8.371857	-4.8157806
1493856380212	-6.5395813	-14.445526	-3.7641602
1493856380212	-3.739914	-14.203873	0.84606934
1493856380212	-2.679306	-11.160019	2.8898926
1493856380212	-1.3558502	-7.4088745	5.579895
1493856380212	-1.4519806	-7.037918	6.0497437
1493856380212	1.2236938	-8.455139	8.041672
1493856380212	2.8255157	-11.198212	6.465439
1493856380212	3.0104065	-13.001984	2.4151306
1493856380212	3.160263	-12.7404175	-2.3866577
1493856380212	2.0554504	-10.31015	0.06843567
1493856380212	-1.5057373	-8.624313	-0.23257446
1493856380213	-2.2647095	-7.2614136	-0.53434753
1493856380213	-0.9876404	-8.224335	0.30036926
1493856380213	0.18611145	-9.783493	0.4964447
1493856380213	0.98957825	-10.016983	-0.21528625
1493856380213	1.771637	-9.813461	0.48770142
1493856380213	1.8316803	-9.377396	-0.044570923
1493856380213	1.2758636	-8.954544	-1.4222412
1493856380213	0.58384705	-9.00531	-1.0463867
1493856380213	1.1549988	-9.426025	0.49313354
1493856380213	1.1555328	-9.893021	0.28825378
1493856380213	0.4825592	-9.626724	-0.49263
1493856380213	-0.13627625	-10.002945	-0.49336243
1493856380213	0.110687256	-11.079208	0.14006042
1493856380213	1.1529846	-11.276825	0.111312866
1493856380213	2.291397	-10.994537	0.029846191
1493856380213	2.580902	-10.903107	0.3751831
1493856380213	1.9221344	-11.336441	-0.046936035
1493856380213	2.2593079	-12.470917	-0.930603
1493856380213	2.9150848	-13.702164	-1.3008118
1493856380213	3.296585	-13.736816	-2.3558044
1493856380213	2.27594	-12.588593	-2.6710052
1493856380213	-0.85479736	-11.093994	-2.041916
1493856380213	-2.895172	-10.673492	0.22125244
1493856380213	-4.2048645	-11.737366	2.8307343
1493856380214	-6.0768433	-14.419327	3.0037537
1493856380214	-7.401947	-16.350769	1.4226532
1493856380214	-5.6474304	-15.244965	-0.75476074
1493856380214	-3.5993652	-12.795181	-1.5134277
1493856380214	-0.86979675	-11.744873	0.6713104
1493856380214	1.7467041	-10.112549	-0.40356445
1493856380214	2.7970123	-9.205551	0.095687866
1493856380214	2.2183228	-8.315521	1.0567932
1493856380214	0.8834076	-6.911148	2.1879425
1493856380214	0.31523132	-4.8711243	3.0477142
1493856380214	-0.38908386	-3.1935883	2.9878235
1493856380214	-1.4770813	-2.577713	2.9324646
1493856380214	-2.5125427	-2.3258667	2.8632355
1493856380214	-2.8847198	-2.6547852	1.7260132
1493856380214	-2.7942352	-3.7398376	0.6609955
1493856380214	-2.3930206	-5.743759	-1.0039368
1493856380214	-3.2997131	-10.918411	-7.194504
1493856380214	-4.779709	-17.456192	-12.818985
1493856380214	-5.287262	-16.41269	-13.836868
1493856380214	-4.4453583	-10.448135	-10.310425
1493856380214	-2.7584686	-8.786667	-5.096283
1493856380214	-3.6181488	-8.864456	-2.9312134
1493856380214	-6.126892	-9.597092	-4.950119
1493856380215	-6.252716	-16.112396	-6.1322784
1493856380215	-4.7347565	-12.579254	0.6001892
1493856380215	-2.0171967	-6.698166	3.5663605
1493856380215	-2.6382904	-4.599106	6.756012
1493856380215	-3.6405334	-7.5106506	2.7506409
1493856380215	0.5691986	-10.063965	4.8480988
1493856380215	5.036255	-12.547989	8.240784
1493856380215	4.070221	-13.174927	2.7978973
1493856380215	2.8450012	-12.168976	-2.1755524
1493856380215	1.196579	-10.571701	-0.7939606
1493856380215	0.08242798	-9.64299	0.35031128
1493856380215	-1.8148041	-7.911667	-0.52394104
1493856380215	-1.9024963	-7.524002	0.4968567
1493856380215	-1.0971222	-9.4496	0.24630737
1493856380215	0.58709717	-10.191727	-0.679245
1493856380215	0.8561096	-9.309784	-1.039917
1493856380215	0.78959656	-9.123779	-0.117370605
1493856380215	1.4486542	-9.15065	0.42025757
1493856380215	1.0247192	-9.065216	-0.0867157
1493856380215	1.0059052	-9.188919	-0.2721405
1493856380215	0.6853943	-9.583237	0.5282593
1493856380215	0.31526184	-9.937027	0.30195618
1493856380215	0.3540039	-10.063843	-1.2320099
1493856380215	0.5454254	-10.92131	-1.1308746
1493856380216	0.22558594	-11.733765	-0.34880066
1493856380216	0.425354	-11.633331	0.033187866
1493856380216	2.1687164	-11.6197815	-0.052841187
1493856380216	3.096054	-11.743042	-0.1776886
1493856380216	3.1045074	-12.837921	-0.32666016
1493856380216	3.783661	-14.012283	-0.6324768
1493856380216	3.2284698	-13.637161	-2.5166016
1493856380216	0.7876587	-12.387161	-3.2552948
1493856380216	-2.002777	-11.236755	-1.8742523
1493856380216	-2.7840424	-11.061203	0.5717163
1493856380216	-3.7211761	-12.30809	3.0847778
1493856380216	-5.6914825	-14.600311	3.085785
1493856380216	-6.6038055	-15.907837	0.6199341
1493856380216	-4.771225	-14.666199	-1.380127
1493856380216	-3.01503	-12.73996	-1.2137909
1493856380216	-1.2722015	-11.471603	0.14730835
1493856380216	2.0243988	-9.913818	0.31240845
1493856380216	2.7520294	-9.086304	0.31892395
1493856380216	1.776825	-7.8945007	1.3073883
1493856380216	0.58499146	-6.643402	2.2001495
1493856380216	-0.28555298	-5.0301514	2.9191284
1493856380216	-1.1677551	-3.111786	3.1782227
1493856380216	-2.1660156	-2.11203	2.989273
1493856380216	-2.4982758	-2.1612396	2.737732
1493856380216	-2.1506958	-2.743927	2.1454926
1493856380217	-1.7138519	-3.8339996	0.94898987
1493856380217	-1.6997528	-5.733841	-0.5374603
1493856380217	-2.623993	-10.539047	-6.5493774
1493856380217	-4.839966	-17.19522	-13.447937
1493856380217	-5.913315	-17.786194	-14.676971
1493856380217	-5.2033234	-12.267929	-10.018768
1493856380217	-3.7501068	-9.02948	-5.0919037
1493856380217	-4.3967285	-8.026047	-3.0859375
1493856380217	-6.4205933	-9.471909	-5.358734
1493856380217	-6.352478	-14.538071	-5.31575
1493856380217	-3.5567017	-13.301102	0.9140167
1493856380217	-1.4458466	-8.479919	4.3524323
1493856380217	-1.3607788	-6.3801117	6.79747
1493856380217	-2.569107	-7.861679	4.7334747
1493856380217	1.4804688	-9.64238	7.866043
1493856380217	3.331192	-12.867493	7.152069
1493856380217	3.0281067	-13.086975	1.1343842
1493856380217	2.6464386	-11.698685	-3.447403
1493856380217	1.3117065	-10.069992	1.1194458
1493856380217	-1.643219	-8.594254	-0.62731934
1493856380217	-2.323532	-6.574356	-0.4106903
1493856380217	-1.2555084	-7.9731445	-0.4548645
1493856380217	0.17785645	-10.330322	0.52337646
1493856380218	1.0447845	-10.542297	-0.2781067
1493856380218	1.5444641	-9.382721	-0.17904663
1493856380218	1.5348206	-9.280975	-0.47485352
1493856380218	1.3165436	-8.915329	-0.59080505
1493856380218	0.076156616	-8.883621	-1.044281
1493856380218	0.505188	-9.237335	0.62509155
1493856380218	0.6899414	-10.145218	1.1938782
1493856380218	1.1851044	-10.147842	0.26513672
1493856380218	0.58351135	-9.844864	-0.4512787
1493856380218	-0.19664001	-10.894745	-0.61517334
1493856380218	0.22219849	-11.698181	-0.9557495
1493856380218	2.5692139	-11.549179	-1.1472931
1493856380219	4.415909	-11.31987	-0.056732178
1493856380219	2.648758	-11.450485	-0.69851685
1493856380219	1.5890656	-11.787949	-1.4966583
1493856380219	3.1915436	-12.732391	-0.97473145
1493856380219	3.0654144	-13.062546	-2.3150482
1493856380219	1.7161102	-12.58136	-3.6847992
1493856380219	-1.7584381	-11.369019	-1.8606567
1493856380219	-3.8470917	-10.879852	1.2197571
1493856380219	-5.0466156	-13.361557	3.60672
1493856380219	-6.783798	-16.066055	3.2856903
1493856380219	-7.686966	-16.985092	0.5964203
1493856380219	-5.358185	-14.972	-1.8782043
1493856380219	-3.2496643	-12.321411	-1.6407471
1493856380219	-0.55418396	-11.304138	0.074279785
1493856380219	2.0813751	-10.594833	0.6268463
1493856380219	1.0469818	-9.116165	0.88586426
1493856380219	1.4507294	-6.9882813	2.275177
1493856380219	1.4104462	-5.8770294	2.5863647
1493856380219	0.5353241	-4.4559784	2.4481812
1493856380219	-0.84259033	-2.8403778	2.4293365
1493856380219	-1.7904053	-2.0382233	2.4157104
1493856380219	-2.1116638	-2.37854	2.0432434
1493856380219	-2.0796356	-3.339569	1.3317719
1493856380219	-2.0917053	-4.379303	-0.014694214
1493856380220	-2.3319092	-5.871292	-1.8644409
1493856380220	-3.7997131	-10.177765	-6.4878235
1493856380220	-6.0425262	-16.124191	-11.965927
1493856380220	-6.4268494	-17.397537	-13.535065
1493856380220	-4.8002625	-12.880081	-10.011688
1493856380220	-3.279251	-9.152252	-5.1111603
1493856380220	-4.375229	-7.5648804	-3.4895935
1493856380220	-6.435562	-10.096252	-5.826111
1493856380220	-6.9525757	-14.458389	-6.2848663
1493856380220	-5.2973633	-12.699371	0.9292908
1493856380220	-2.0771942	-7.07843	5.050995
1493856380220	-1.8153076	-5.427246	5.365402
1493856380220	-1.8561707	-7.8455048	3.4434204
1493856380220	0.7403717	-10.588608	5.8784485
1493856380220	4.05072	-12.14827	6.965378
1493856380220	3.8402405	-12.896622	1.896164
1493856380220	2.9738007	-12.221451	-1.8566437
1493856380220	1.9006042	-10.859161	-0.17440796
1493856380220	0.3849182	-9.954544	0.3888855
1493856380220	-1.7615662	-7.8000183	0.084747314
1493856380220	-2.084381	-7.483612	0.016967773
1493856380220	-1.8128357	-9.205582	-0.6197815
1493856380220	-0.7593994	-10.1041565	-0.28419495
1493856380221	0.67752075	-9.518463	0.7298584
1493856380221	0.30259705	-8.83934	-0.11553955
1493856380221	1.4586334	-8.699844	-0.037643433
1493856380221	2.1240692	-9.044357	-0.17788696
1493856380221	1.8973846	-9.629166	-0.926651
1493856380221	1.7233276	-10.089249	-0.41929626
1493856380221	1.511261	-10.005707	0.35543823
1493856380221	1.218338	-9.581406	-0.5770874
1493856380221	0.7212372	-10.192673	-0.20706177
1493856380221	-0.29910278	-11.513214	0.6517639
1493856380221	-0.15016174	-11.767715	-0.826828
1493856380221	2.7193604	-11.521332	-1.8648987
1493856380221	3.7775726	-11.633347	-0.18313599
1493856380221	1.094696	-12.096359	-1.0272217
1493856380221	1.6758728	-13.367844	-1.6802521
1493856380221	3.5792847	-14.169983	-2.0461884
1493856380222	3.33107	-13.218735	-3.0612488
1493856380222	-0.07409668	-11.675903	-1.8964081
1493856380222	-4.284561	-10.679581	-0.7770233
1493856380222	-5.094925	-12.311005	2.4105682
1493856380222	-5.4895935	-14.260147	3.5695343
1493856380222	-7.584076	-15.9075775	1.7604218
1493856380222	-6.519226	-15.716064	-1.4889069
1493856380222	-3.8110504	-13.552292	-2.3039398
1493856380222	-1.6584167	-11.455093	-0.24963379
1493856380222	1.753067	-10.01683	1.3260193
1493856380222	1.4627075	-9.1905365	0.43338013
1493856380222	1.5238953	-8.165283	1.233429
1493856380222	1.5252991	-6.561371	1.4436798
1493856380222	1.287674	-4.655609	2.5563812
1493856380222	0.044158936	-2.8558197	2.821991
1493856380222	-1.1248779	-1.7806396	2.6862335
1493856380222	-1.9430237	-2.0386963	2.404892
1493856380222	-2.4352417	-2.582306	1.8790131
1493856380222	-2.4368896	-3.6775665	0.25056458
1493856380223	-2.1828003	-5.902176	-3.2957
1493856380223	-3.2874146	-10.424683	-8.11467
1493856380223	-5.6364746	-15.665146	-12.043732
1493856380223	-6.444687	-16.156067	-12.481949
1493856380223	-5.588135	-11.465546	-8.931351
1493856380223	-3.8626099	-8.720367	-5.080902
1493856380223	-3.4162445	-8.380768	-3.673874
1493856380223	-5.1922913	-7.6080475	-3.9853516
1493856380223	-7.2157593	-9.313507	-4.057678
1493856380223	-7.2921143	-13.289932	-3.1648254
1493856380223	-5.1649323	-15.128967	-0.37290955
1493856380223	-0.91563416	-10.802002	2.6762238
1493856380223	0.32063293	-6.412674	5.3893585
1493856380223	-0.10508728	-6.6260986	6.2500305
1493856380223	1.6048279	-9.111404	6.8181763
1493856380223	2.2779846	-11.80983	5.696106
1493856380223	2.2801208	-12.721924	0.6045532
1493856380223	3.3000183	-12.046936	-2.3646698
1493856380223	2.436264	-10.772675	1.0485992
1493856380223	-0.52601624	-9.104828	0.7185974
1493856380223	-1.6558533	-7.3793335	-0.09146118
1493856380223	-1.4772491	-7.808197	-0.06375122
1493856380223	-0.8054199	-9.444229	-0.51472473
1493856380223	0.21194458	-10.010864	-0.6609802
1493856380223	0.9277954	-9.884247	-0.4486847
1493856380224	2.0945282	-9.273041	0.10520935
1493856380224	2.134842	-9.249451	-0.27574158
1493856380224	0.87060547	-9.280899	-0.27012634
1493856380224	0.42800903	-8.950562	0.13122559
1493856380224	-0.21166992	-9.444473	0.86209106
1493856380224	-0.33035278	-10.257614	0.48835754
1493856380224	-0.7101288	-10.730347	-1.6247406
1493856380224	-0.3831787	-10.9301605	-1.5134277
1493856380224	0.07862854	-11.273346	-0.79849243
1493856380224	1.8470306	-11.358627	0.35992432
1493856380224	4.19635	-11.620941	0.90322876
1493856380224	2.7787018	-11.557877	-1.2177734
1493856380224	3.07576	-12.753937	-0.98565674
1493856380224	3.6114807	-14.133835	-1.4853973
1493856380224	3.6644135	-13.327774	-3.0728912
1493856380224	0.22003174	-12.24704	-3.6478424
1493856380224	-3.6494904	-10.464355	-1.7138824
1493856380224	-3.979538	-11.299057	1.7565308
1493856380224	-4.832443	-13.342361	3.6828613
1493856380224	-6.6526947	-15.545761	2.1871643
1493856380224	-6.603195	-16.026566	-0.8820343
1493856380224	-3.428131	-13.573364	-1.6629028
1493856380224	-2.6006012	-11.640427	-0.6229706
1493856380224	-0.24287415	-11.128128	0.76498413
1493856380225	2.162613	-9.84169	-0.8341217
1493856380225	0.16889954	-9.132431	0.6611023
1493856380225	0.5298004	-7.5040894	1.6192627
1493856380225	0.5804291	-5.929199	2.2889557
1493856380225	0.19760132	-4.4427795	2.7852783
1493856380225	-0.91093445	-3.2031708	2.2899628
1493856380225	-1.9055023	-2.4137726	2.536972
1493856380225	-2.1874695	-2.6242828	2.001587
1493856380225	-2.201065	-3.210968	1.1669769
1493856380225	-2.1683807	-4.5025024	-0.05230713
1493856380225	-2.6061554	-7.0135803	-1.6641083
1493856380225	-3.7977448	-12.365631	-6.9090424
1493856380225	-4.457962	-17.92955	-14.8484955
1493856380225	-5.470093	-16.542618	-14.062149
1493856380225	-4.415161	-10.331924	-8.200394
1493856380225	-3.294403	-8.140503	-3.7131348
1493856380225	-3.1683044	-6.6625824	-3.1624908
1493856380225	-4.880783	-7.743805	-3.961731
1493856380225	-6.538376	-12.807816	-2.9095917
1493856380225	-5.114456	-15.3598175	0.029785156
1493856380225	-3.0690765	-13.230484	0.82507324
1493856380225	-0.8526764	-8.154068	2.9664917
1493856380225	0.122680664	-5.904587	7.1992493
1493856380225	-0.32992554	-7.5393066	6.953079
1493856380225	0.8772278	-10.0950165	6.39888
1493856380226	2.210678	-11.859772	4.5192413
1493856380226	3.8428497	-12.600998	-0.8165741
1493856380226	3.5110931	-11.929626	-1.81987
1493856380226	0.47772217	-10.043549	-0.26539612
1493856380226	-1.8508911	-8.392303	-0.3169098
1493856380226	-2.3252563	-7.8301544	-0.095047
1493856380226	-1.8320465	-8.580109	0.58444214
1493856380226	-1.3541718	-9.40535	0.9733429
1493856380226	-0.15621948	-9.742554	1.0179596
1493856380226	0.9383545	-9.739868	0.3681183
1493856380226	1.9815216	-9.660065	-0.075042725
1493856380226	2.477768	-9.797485	-0.58851624
1493856380226	2.396576	-9.473511	0.041259766
1493856380226	2.336197	-9.267136	0.8082733
1493856380226	2.077942	-9.4748535	0.40504456
1493856380226	0.37986755	-9.910721	0.34161377
1493856380226	-1.5697327	-10.799393	-0.57948303
1493856380226	-2.1233826	-10.967712	-2.4929047
1493856380226	1.6314545	-11.222443	-0.6630249
1493856380226	4.462555	-11.339722	1.115921
1493856380226	2.6780243	-11.078201	0.47650146
1493856380226	0.2735901	-11.402954	-1.6347351
1493856380226	3.0402222	-13.411667	-1.2393036
1493856380226	3.782257	-14.156708	-2.7616577
1493856380227	2.579132	-13.446182	-4.4759674
1493856380227	-1.6630707	-10.94754	-2.744156
1493856380227	-3.96167	-10.51384	-0.6107788
1493856380227	-3.8208923	-12.267975	2.7042084
1493856380227	-5.712021	-15.0429535	3.187622
1493856380227	-8.3302	-16.824188	0.692749
1493856380227	-5.3812103	-15.119278	-2.3161316
1493856380227	-3.1923828	-12.221634	-1.7356415
1493856380227	-0.45812988	-11.607971	0.020248413
1493856380227	2.1094208	-10.224869	-1.206192
1493856380227	1.5805969	-10.036346	1.6726379
1493856380227	1.0541229	-8.165085	1.1604004
1493856380227	0.2598877	-6.469467	1.8789825
1493856380227	-0.56388855	-4.668976	2.194397
1493856380227	-0.60266113	-2.8733368	1.9975433
1493856380227	-1.128418	-2.2894287	1.6248627
1493856380227	-1.7530212	-1.7543182	1.9107056
1493856380227	-1.9089203	-2.6252441	1.5223694
1493856380227	-1.7810516	-3.8009338	-0.18518066
1493856380227	-1.9524384	-5.2492065	-1.4804535
1493856380227	-2.9724426	-8.092667	-4.0107574
1493856380227	-5.340027	-13.908707	-11.902924
1493856380227	-6.5816956	-18.674759	-15.587006
1493856380227	-4.5643463	-15.188004	-11.431366
1493856380228	-2.8406525	-10.30957	-5.592163
1493856380228	-3.7980347	-8.130402	-3.3971405
1493856380228	-6.221985	-8.355133	-4.3020782
1493856380228	-6.961853	-12.606781	-3.7966309
1493856380228	-5.5834656	-11.884094	-0.7393341
1493856380228	-3.0788116	-9.078629	2.5075684
1493856380228	-0.8854828	-7.1630707	4.1054688
1493856380228	-0.7320404	-8.13768	4.8292694
1493856380228	0.27293396	-9.680817	4.6824493
1493856380228	3.2345428	-11.087952	6.040619
1493856380228	3.485855	-11.921722	4.2855225
1493856380228	1.8261871	-11.650085	0.41070557
1493856380228	1.3357239	-11.119263	-0.10598755
1493856380228	-0.1734314	-10.662903	1.0605469
1493856380228	-2.1320496	-8.785248	0.31282043
1493856380228	-2.9910278	-7.5911713	-1.0745544
1493856380228	-2.5931091	-8.6562805	-0.6739044
1493856380228	-0.58532715	-9.672104	0.15904236
1493856380228	1.7879486	-9.744644	0.27609253
1493856380228	2.757431	-9.521072	0.13102722
1493856380228	3.0822906	-9.323471	-0.27442932
1493856380228	2.8805695	-9.170303	-0.8444061
1493856380228	1.4565277	-9.233673	-0.7883911
1493856380229	0.20204163	-9.277954	0.58110046
1493856380229	-0.3117218	-9.516968	1.3546753
1493856380229	-0.53271484	-10.024689	0.20799255
1493856380229	-0.5341644	-10.801773	-1.2131958
1493856380229	0.65512085	-11.54567	-1.020462
1493856380229	2.564865	-11.717224	0.08961487
1493856380229	3.741623	-11.635132	-0.39823914
1493856380229	3.361908	-11.421509	-0.9236908
1493856380229	1.775589	-11.284653	-1.5501862
1493856380229	2.8198395	-11.953918	-1.5763855
1493856380229	3.4143372	-12.930664	-1.697113
1493856380229	2.696991	-13.008087	-2.9873505
1493856380229	-0.51242065	-12.049988	-2.5185242
1493856380229	-2.8855133	-10.595139	-0.2894287
1493856380229	-4.1928406	-11.639725	2.2687836
1493856380229	-5.9796143	-14.392593	4.006714
1493856380229	-8.815247	-16.42337	2.0726166
1493856380229	-7.617874	-15.860626	-1.6644745
1493856380229	-4.6423798	-13.366638	-2.3974915
1493856380229	-3.854889	-12.311798	-1.253952
1493856380229	0.35494995	-11.580536	2.86911
1493856380229	2.1964111	-10.265778	-0.13687134
1493856380229	0.8989258	-9.175629	0.7530823
1493856380229	1.3091583	-7.816086	0.9169769
1493856380230	0.946167	-6.2500916	2.295639
1493856380230	-0.3440857	-4.6467133	2.757782
1493856380230	-0.7989044	-2.3300781	2.3985138
1493856380230	-1.5280457	-2.0446167	2.339096
1493856380230	-1.4668121	-1.9009857	1.8447113
1493856380230	-1.2289124	-2.3993683	1.1562653
1493856380230	-1.0939636	-3.5323029	-0.1645813
1493856380230	-2.1869812	-6.4222717	-2.9225922
1493856380230	-4.134094	-13.133026	-12.663422
1493856380230	-6.658737	-18.871872	-16.044495
1493856380230	-5.701111	-14.975052	-11.221069
1493856380230	-3.6617737	-10.033585	-4.987793
1493856380230	-3.0172882	-7.992798	-2.8052063
1493856380230	-4.645752	-4.6729736	-4.466217
1493856380230	-7.067154	-6.5245056	-1.8122101
1493856380230	-6.8674774	-13.54364	-0.91426086
1493856380230	-4.858795	-17.858017	-0.54208374
1493856380230	-2.3322754	-13.936569	-0.4901886
1493856380230	0.2911682	-6.599655	7.4870453
1493856380230	-1.2377319	-5.741867	6.6199646
1493856380230	0.3718567	-8.973282	7.6313324
1493856380230	2.2112427	-12.113419	6.8924255
1493856380230	2.953888	-13.394821	5.493164E-4
1493856380230	3.9121857	-12.033569	-2.6019135
1493856380230	2.3227844	-10.346497	0.53067017
1493856380231	-0.87568665	-8.863907	0.5010376
1493856380231	-2.1216736	-7.2725067	-0.8242645
1493856380231	-1.7540894	-7.8162537	-0.9310303
1493856380231	-0.77653503	-9.180634	-0.11387634
1493856380231	-0.16345215	-9.800247	0.37469482
1493856380231	0.51994324	-9.809418	-0.12385559
1493856380231	1.1275635	-9.310959	-0.44488525
1493856380231	1.1825867	-9.225693	-0.17141724
1493856380231	1.187149	-9.483139	-0.45632935
1493856380231	1.5932312	-9.897247	-0.17642212
1493856380231	1.9944916	-10.243744	-0.07019043
1493856380231	1.6202545	-9.661072	-0.03427124
1493856380231	0.10145569	-9.744598	0.5981598
1493856380231	-1.3511353	-10.882874	-0.37652588
1493856380231	0.7389984	-11.835251	-1.1133423
1493856380231	3.654663	-12.03569	-0.11228943
1493856380231	3.0672455	-11.737289	-0.47731018
1493856380231	2.6066437	-12.139084	-1.9304047
1493856380231	3.9760437	-12.938736	-2.063263
1493856380231	4.2886047	-13.391724	-2.082138
1493856380231	3.019928	-12.874695	-2.8137512
1493856380231	-0.094940186	-11.637085	-2.0810852
1493856380231	-3.6309662	-10.69252	-0.23875427
1493856380231	-4.798004	-11.640793	2.899063
1493856380232	-5.826645	-13.86055	3.4358978
1493856380232	-7.4009247	-15.514511	1.4852905
1493856380232	-5.90184	-15.053223	-0.82258606
1493856380232	-3.743576	-13.066269	-1.8117828
1493856380232	-2.3763123	-12.063736	-0.47564697
1493856380232	2.5681	-11.634323	-2.249939
1493856380232	2.8458252	-11.065704	-0.38150024
1493856380232	2.5019531	-9.04985	0.2569275
1493856380232	2.0321808	-6.774933	1.8999176
1493856380232	0.54359436	-4.62294	3.0618134
1493856380232	-0.49554443	-2.7724304	3.1912994
1493856380232	-1.334671	-2.1404724	3.3537292
1493856380232	-2.3682709	-2.2426605	3.2824402
1493856380232	-2.8935242	-2.678833	2.3592377
1493856380232	-2.9667358	-3.1576385	1.0690765
1493856380232	-2.7520447	-4.508087	0.040359497
1493856380232	-3.2110443	-7.676834	-2.5175018
1493856380232	-3.1618958	-15.445862	-12.050522
1493856380232	-4.788208	-19.235062	-15.615311
1493856380232	-4.888855	-13.02182	-11.755783
1493856380232	-4.784683	-8.396423	-7.3511353
1493856380232	-4.048706	-8.37973	-2.8801117
1493856380232	-5.1375732	-9.061783	-4.2956696
1493856380232	-5.9455414	-16.331726	-5.837036
1493856380232	-5.3060303	-15.546738	-1.8199005
1493856380232	-2.0708923	-7.918106	4.1223907
1493856380233	-1.27005	-3.878067	8.110168
1493856380233	-3.4725342	-6.0484314	4.240967
1493856380233	-0.4138031	-9.298325	4.84787
1493856380233	5.2816925	-12.07486	8.407715
1493856380233	3.8509674	-14.021103	2.147293
1493856380233	3.132965	-12.269196	-3.4808655
1493856380233	2.0157928	-10.337677	0.30236816
1493856380233	0.37364197	-10.019318	1.1854706
1493856380233	-1.8043365	-8.270798	-0.7548218
1493856380233	-1.9087219	-7.7500305	-0.1993866
1493856380233	-1.6509857	-9.1996765	-0.30570984
1493856380233	-0.57507324	-9.949493	-0.28434753
1493856380233	-0.23226929	-9.476288	0.07044983
1493856380233	0.3782959	-8.74884	-0.1234436
1493856380233	1.1040039	-8.883591	-0.1742096
1493856380233	1.3283844	-8.811401	0.49765015
1493856380233	1.6136322	-8.936157	-0.6311035
1493856380233	1.3117676	-9.440811	0.014083862
1493856380233	1.0156097	-10.098526	0.041015625
1493856380233	-0.21505737	-10.819336	-0.87402344
1493856380233	-1.3785095	-11.561935	-0.9611969
1493856380233	-0.04295349	-12.174622	-0.5645294
1493856380233	3.1769714	-12.376205	-0.039382935
1493856380234	3.7023773	-11.8563385	-0.61239624
1493856380234	2.1320648	-11.361038	-0.9111481
1493856380234	2.7724457	-11.827057	-0.9666443
1493856380234	4.3191376	-13.301941	-1.3304291
1493856380234	4.0462036	-13.640839	-2.4129639
1493856380234	1.2025604	-12.252243	-1.9564514
1493856380234	-2.5025787	-10.9991455	-0.06315613
1493856380234	-3.9736633	-11.476212	2.8783875
1493856380234	-5.3834534	-13.561478	3.9098816
1493856380235	-7.620331	-15.674957	1.9421387
1493856380235	-7.2859955	-15.833115	-0.4482422
1493856380235	-4.941864	-13.877426	-1.0112762
1493856380235	-4.028351	-12.210968	-0.2078247
1493856380235	0.6706238	-10.729782	1.4476929
1493856380235	2.931549	-9.9951935	0.15757751
1493856380235	2.4132538	-9.041931	0.097076416
1493856380235	2.1829987	-7.9151	1.3377075
1493856380235	1.081192	-6.105194	2.5720062
1493856380235	0.18199158	-3.6761017	3.0146332
1493856380235	-0.7153473	-2.2326355	3.1381073
1493856380235	-1.6500397	-2.151596	3.0541382
1493856380235	-1.9169312	-2.4810638	2.4892578
1493856380235	-1.8731384	-2.9458618	1.7869415
1493856380235	-1.9109192	-4.5335693	0.5570221
1493856380235	-2.8152618	-8.08696	-4.0146484
1493856380235	-4.395981	-16.279388	-12.990814
1493856380235	-5.634491	-18.824127	-15.249588
1493856380235	-5.66037	-12.660812	-10.600189
1493856380235	-4.3544464	-8.73053	-5.6076355
1493856380235	-3.581543	-8.332703	-3.3063507
1493856380235	-4.3052216	-6.2578278	-3.390625
1493856380235	-7.1333313	-7.887848	-3.6112213
1493856380235	-6.516327	-12.951553	-1.5952911
1493856380235	-4.704056	-16.616013	3.375534
1493856380235	-0.61135864	-11.825607	1.3322296
1493856380235	-0.754303	-7.3187866	4.6767883
1493856380235	-0.06826782	-6.470291	6.741501
1493856380235	2.9661713	-8.892532	7.110153
1493856380235	2.7203674	-12.706802	5.4609528
1493856380235	2.2284088	-12.424469	0.018692017
1493856380236	3.996643	-11.511276	-3.0814056
1493856380236	1.5769196	-10.031784	0.44750977
1493856380236	-3.109024	-8.24263	0.35975647
1493856380236	-3.444275	-6.6390686	-0.53674316
1493856380236	-3.1899414	-7.9651337	-1.0042267
1493856380236	0.3692627	-9.872452	0.5345459
1493856380236	1.754303	-10.339188	0.7087097
1493856380236	1.6138153	-9.887268	-0.6230469
1493856380236	1.0553741	-9.546829	-0.6220856
1493856380236	0.80467224	-9.048523	-0.30784607
1493856380236	0.6617584	-8.867615	0.26765442
1493856380236	1.2932739	-9.107895	0.21931458
1493856380236	0.92781067	-9.940872	0.36657715
1493856380236	0.028320313	-10.2859955	-0.66270447
1493856380236	-1.075943	-10.550995	-0.6661072
1493856380236	-0.15744019	-11.790634	-0.049606323
1493856380236	1.7305756	-12.525848	-0.08100891
1493856380236	3.0647125	-12.200546	-0.43849182
1493856380236	3.0527344	-11.863617	-0.35908508
1493856380236	3.0362244	-12.185883	-1.4697113
1493856380236	4.000366	-13.245972	-1.9528503
1493856380236	3.630478	-13.628204	-2.5990143
1493856380236	2.2781525	-12.714478	-2.899643
1493856380236	-0.85549927	-11.29805	-1.7947998
1493856380236	-3.388977	-10.473114	0.18423462
1493856380236	-4.480591	-12.245544	2.8468323
1493856380236	-5.8858795	-14.693787	3.1024933
1493856380236	-7.134201	-15.895599	1.0062561
1493856380236	-5.152542	-14.601868	-1.6857147
1493856380236	-2.8084412	-12.692215	-1.6234741
1493856380236	0.22235107	-11.37767	-0.30899048
1493856380236	2.7570038	-10.622711	0.4023285
1493856380236	1.8267059	-9.723816	1.2993622
1493856380236	1.5930328	-7.856735	1.9489594
1493856380236	0.8332977	-6.342926	2.2463074
1493856380236	0.33242798	-4.481079	2.4746704
1493856380236	-0.55755615	-3.1148071	2.8350525
1493856380236	-1.3699646	-2.5085144	3.0541534
1493856380236	-1.9728088	-2.5784607	2.7480164
1493856380237	-2.2684479	-2.9677124	1.7988892
1493856380237	-2.3500977	-3.7868042	0.43208313
1493856380237	-2.6504974	-5.756607	-1.5837708
1493856380237	-3.8336334	-11.076599	-7.175522
1493856380237	-4.959305	-17.339737	-12.834213
1493856380237	-5.413559	-16.610764	-12.757629
1493856380237	-4.974869	-11.841919	-9.108215
1493856380237	-4.0445404	-9.538376	-5.2948
1493856380237	-4.2974854	-7.8809204	-3.9926758
1493856380237	-6.656067	-9.501831	-5.0360107
1493856380237	-6.9742584	-13.697708	-5.068619
1493856380237	-4.033386	-13.356308	1.383255
1493856380237	-2.1776733	-8.833145	3.1892853
1493856380237	-1.2697449	-6.6896973	4.898346
1493856380237	-1.5433044	-7.4739075	4.431381
1493856380237	1.8330841	-8.277893	7.0815735
1493856380237	3.69458	-11.818588	6.341629
1493856380237	2.7946472	-13.554062	1.1643219
1493856380237	1.7042236	-12.440201	-1.8310242
1493856380237	0.95454407	-10.43309	0.772522
1493856380237	-2.1158752	-8.976334	0.87127686
1493856380237	-2.1384735	-7.283371	0.67100525
1493856380237	0.14579773	-8.44603	0.7100525
1493856380237	0.6794586	-10.217529	0.8032532
1493856380237	1.1942291	-9.763687	-0.14729309
1493856380237	0.27278137	-8.730103	-0.5748291
1493856380237	0.40071106	-9.026291	-1.0277252
1493856380237	0.73934937	-9.383423	0.5969391
1493856380237	0.86138916	-9.205353	0.042922974
1493856380237	1.1287537	-9.26265	-0.16938782
1493856380237	0.8411255	-9.924942	0.6087036
1493856380237	1.1989746	-10.460587	-0.5813446
1493856380238	0.34432983	-10.791504	-1.0366211
1493856380238	-0.31399536	-11.270248	-0.93019104
1493856380238	1.1039734	-11.211166	-0.29203796
1493856380238	3.799347	-11.449554	-0.18884277
1493856380238	3.094345	-11.616577	-0.8929596
1493856380238	1.7061615	-11.421188	-0.6274719
1493856380238	2.473877	-12.261307	-1.9098816
1493856380238	3.7226257	-13.051224	-1.0513458
1493856380238	3.4556885	-13.767197	-2.681305
1493856380238	2.184021	-12.695999	-2.5633545
1493856380238	-1.5948792	-11.604477	-1.1211243
1493856380238	-3.8372955	-11.357086	1.5104828
1493856380238	-4.560974	-12.803757	3.8012238
1493856380238	-6.7208405	-15.12471	2.5430298
1493856380238	-7.370514	-15.995132	0.3212738
1493856380238	-4.8442535	-14.372116	-1.543335
1493856380238	-2.6800385	-12.567047	-1.2490845
1493856380238	-0.06286621	-11.627258	-0.05607605
1493856380238	3.0046082	-10.3906555	-0.3972931
1493856380238	2.5178375	-9.57811	0.80670166
1493856380238	2.0625153	-7.185013	2.0744324
1493856380238	1.4468842	-5.6983185	2.917389
1493856380238	0.1559906	-4.0672913	2.8824463
1493856380238	-0.76950073	-2.7082367	3.3049011
1493856380238	-1.9907379	-2.199997	3.3470917
1493856380238	-2.6396027	-2.4583893	2.8527222
1493856380238	-2.8682709	-2.9535828	1.7967224
1493856380238	-2.9443207	-3.997757	0.21716309
1493856380238	-3.2171783	-6.5784454	-2.2171478
1493856380238	-3.750534	-12.047089	-8.468567
1493856380238	-4.6377563	-17.655945	-14.097961
1493856380238	-5.0780487	-16.493362	-13.100754
1493856380238	-4.3395233	-11.364243	-9.008835
1493856380238	-3.4993591	-8.785965	-5.008499
1493856380238	-3.8918152	-7.519699	-3.7793274
1493856380238	-5.5938873	-9.30098	-4.4864655
1493856380238	-6.4189606	-12.880493	-4.133423
1493856380239	-4.7364655	-13.401047	0.29844666
1493856380239	-2.6740875	-9.789825	2.9072266
1493856380239	-1.7006683	-7.0539246	3.9358215
1493856380239	-1.22966	-6.9215393	4.250412
1493856380239	1.2818146	-8.535065	5.82016
1493856380239	3.749054	-11.46579	6.266754
1493856380239	3.159195	-12.5204315	2.862976
1493856380239	2.4981537	-12.059311	-1.2943878
1493856380239	2.605896	-11.242142	-0.5505066
1493856380239	-0.09124756	-9.943222	0.38020325
1493856380239	-2.1322327	-7.843277	0.36166382
1493856380239	-2.9604645	-7.5501404	-0.40829468
1493856380239	-2.0748901	-9.038116	-0.44111633
1493856380239	-0.32746887	-9.799149	0.16445923
1493856380239	1.0809174	-9.130661	0.71899414
1493856380239	1.5952454	-8.78418	-0.34127808
1493856380239	0.8667755	-9.591568	0.3065033
1493856380239	1.1920929	-9.428574	-0.9973297
1493856380239	0.9486389	-8.950058	-0.48371887
1493856380239	0.48007202	-9.744843	0.68141174
1493856380239	0.23869324	-10.262039	-0.36036682
1493856380239	0.07829285	-10.5368805	-0.8276367
1493856380239	-0.3346405	-11.379486	-0.977005
1493856380239	-0.037490845	-11.650986	-0.23674011
1493856380239	1.0513916	-11.461151	-0.33200073
1493856380239	2.2214355	-11.507828	-0.80662537
1493856380239	3.18721	-11.4028015	-0.31904602
1493856380239	3.2321014	-12.325607	-1.1130219
1493856380239	4.698181	-14.356323	-1.0546722
1493856380239	4.0894623	-13.984299	-1.724762
1493856380239	1.7837219	-12.349548	-3.9051666
1493856380239	-1.767807	-10.669708	-1.9376831
1493856380239	-2.3303223	-10.789902	1.5301361
1493856380239	-3.0098877	-12.656815	3.8981934
1493856380239	-5.1137695	-15.1944275	3.4521027
1493856380239	-6.976898	-16.356369	0.69392395
1493856380239	-4.457062	-14.699738	-1.4770966
1493856380239	-3.122696	-12.787109	-0.7090759
1493856380240	-1.5691986	-11.213242	1.2016907
1493856380240	2.1100616	-10.471878	2.2546387
1493856380240	1.1046295	-9.82074	-0.2534485
1493856380240	1.6356659	-8.003677	2.0158691
1493856380240	1.0417175	-6.8047333	2.4374847
1493856380240	-0.111312866	-4.6478424	2.8587494
1493856380240	-0.97050476	-2.741684	3.2168274
1493856380240	-1.9321289	-1.8433838	3.2722778
1493856380240	-2.4448242	-2.0055695	2.730484
1493856380240	-2.551529	-2.6033936	1.8518066
1493856380240	-2.206482	-3.9307556	0.56163025
1493856380240	-2.3394623	-7.0033264	-2.9176178
1493856380240	-3.558548	-12.0503845	-9.246475
1493856380240	-5.3705597	-16.271805	-12.431732
1493856380240	-6.0890503	-14.951569	-11.035233
1493856380240	-4.7302094	-11.228897	-7.3216705
1493856380240	-3.4713287	-9.700562	-4.4662323
1493856380240	-4.889099	-8.509155	-4.5023193
1493856380240	-6.449524	-10.023331	-6.026596
1493856380240	-5.9118805	-13.570038	-4.424942
1493856380240	-4.3516083	-12.024292	0.7410431
1493856380240	-2.392807	-7.9451447	4.769409
1493856380240	-1.6092834	-6.2985992	5.2306366
1493856380240	-1.2622833	-8.171127	4.1503296
1493856380240	1.591217	-10.240677	5.7079163
1493856380240	3.422104	-12.005142	5.17836
1493856380240	3.4997559	-12.778137	1.0799866
1493856380240	3.0185394	-12.4796295	-1.4012909
1493856380240	1.9976807	-11.461182	-0.22149658
1493856380240	0.09819031	-9.59491	0.5759125
1493856380240	-1.6227112	-7.602783	0.11985779
1493856380240	-1.9490204	-7.6879272	-0.25053406
1493856380240	-1.2973022	-9.231705	-0.71009827
1493856380240	-0.25531006	-10.045441	-0.7324219
1493856380240	0.81163025	-9.161652	-0.33926392
1493856380240	0.020996094	-8.699661	-0.14892578
1493856380240	0.09780884	-8.751434	0.1443634
1493856380240	0.4733429	-9.121353	0.3968506
1493856380240	0.5123291	-9.134384	0.4315338
1493856380240	0.10479736	-9.716431	0.77560425
1493856380240	0.5344391	-10.599472	-0.23487854
1493856380241	1.4059601	-11.042831	-1.2508545
1493856380241	1.5106201	-11.578186	-1.4924774
1493856380241	0.46614075	-11.660782	-0.9658966
1493856380241	0.24989319	-11.748001	-1.7818909
1493856380241	1.3365479	-11.579025	-1.1678925
1493856380241	2.8757935	-11.365189	-0.6621094
1493856380241	3.5745697	-12.070541	-1.563736
1493856380241	4.8007507	-13.440781	-1.2746582
1493856380241	4.328491	-13.673935	-1.6919403
1493856380241	1.9398041	-12.945145	-2.6989288
1493856380241	-1.7884216	-10.371445	-2.0366669
1493856380241	-3.281845	-11.096146	1.6006165
1493856380241	-3.8661194	-13.465988	3.7664795
1493856380241	-5.911743	-15.882355	3.043579
1493856380241	-7.392807	-16.663147	0.27497864
1493856380241	-4.101654	-14.226105	-1.6702576
1493856380241	-2.8213196	-12.566757	-0.9054413
1493856380241	0.022628784	-11.326019	1.4255371
1493856380241	4.9506683	-10.102264	-1.6089935
1493856380241	2.9970398	-9.719925	0.12954712
1493856380241	3.219345	-7.7640076	1.452774
1493856380241	1.627182	-5.573181	3.061081
1493856380241	0.2706604	-3.6035614	3.6637268
1493856380241	-1.1491394	-2.4891663	3.6118927
1493856380241	-1.9327087	-2.294403	3.7971344
1493856380241	-2.6362305	-2.2039795	3.2446747
1493856380241	-2.669815	-2.8322296	1.9150696
1493856380241	-2.6959229	-4.5056	-0.23205566
1493856380241	-3.1401978	-7.772522	-2.513031
1493856380241	-4.7766266	-13.805252	-8.849365
1493856380241	-5.4358673	-18.860413	-15.115677
1493856380241	-5.327652	-15.241104	-12.024506
1493856380241	-4.3354645	-10.124252	-7.34877
1493856380241	-2.9690094	-8.522186	-3.734314
1493856380241	-3.1958008	-6.231186	-4.1579285
1493856380241	-4.2937164	-5.954193	-5.798813
1493856380241	-5.788986	-11.610474	-4.88118
1493856380241	-4.529175	-15.999054	0.5606842
1493856380241	-2.5729828	-13.207626	4.6076355
1493856380241	-1.9115295	-8.212173	2.2231445
1493856380242	-1.7637177	-6.2808533	4.742874
1493856380242	0.61479187	-7.2084503	7.0396423
1493856380242	2.909134	-10.533218	6.6803894
1493856380242	2.5200806	-13.247879	2.8635254
1493856380242	2.3592987	-13.517731	-1.6087036
1493856380242	2.8332977	-11.905975	-1.0166473
1493856380242	0.56681824	-9.797333	0.8210449
1493856380242	-2.2013855	-8.39502	0.18122864
1493856380242	-2.457306	-7.976715	0.4257965
1493856380242	-1.1944275	-8.661942	0.5466461
1493856380242	-0.31654358	-9.882874	-0.3713684
1493856380242	0.40611267	-9.746231	-0.5331116
1493856380242	0.5235901	-9.017563	0.61795044
1493856380242	0.28292847	-8.841507	0.19108582
1493856380242	0.4793396	-8.6206665	-0.49598694
1493856380242	0.64741516	-9.0412445	0.14808655
1493856380242	0.6342926	-10.254135	-0.00944519
1493856380242	1.1323547	-10.791229	-0.6733093
1493856380242	1.6632385	-10.710297	-0.79571533
1493856380242	0.7392731	-10.566559	-0.37179565
1493856380242	-0.2725525	-10.7404175	-1.135788
1493856380242	-0.14144897	-11.118607	-1.2684937
1493856380242	0.48345947	-11.543381	-0.27423096
1493856380242	1.3682098	-11.581665	0.41908264
1493856380242	1.998764	-11.314468	-1.948349
1493856380242	3.632721	-11.708771	-2.468567
1493856380242	4.793518	-13.492264	-1.3504028
1493856380242	4.5029907	-13.526352	-1.8115692
1493856380242	1.3973236	-12.316696	-1.8862457
1493856380242	-2.7462158	-10.932312	0.5657196
1493856380242	-4.352768	-12.354446	3.6820831
1493856380242	-5.4444427	-15.444366	4.43071
1493856380242	-6.416931	-16.56166	1.7165527
1493856380242	-4.974823	-15.512863	-1.053299
1493856380242	-2.838272	-13.940002	-1.9030457
1493856380242	-2.740448	-12.57782	-0.5592499
1493856380242	3.5594025	-10.791397	3.0149078
1493856380242	2.263382	-10.697418	-0.62672424
1493856380242	2.3569489	-8.794556	1.024353
1493856380242	1.0378113	-5.8979797	2.5401306
1493856380242	1.0378876	-3.6875	3.4424438
1493856380243	-0.15066528	-2.4051666	3.6400604
1493856380243	-1.0011292	-1.5947113	3.5191498
1493856380243	-1.8658447	-1.7898102	3.0866394
1493856380243	-2.1572418	-2.5687714	2.265686
1493856380243	-2.0843658	-3.3125458	0.904068
1493856380243	-2.1422424	-5.823166	-0.94950867
1493856380243	-3.502716	-11.759018	-7.809601
1493856380243	-3.912262	-18.853653	-13.330154
1493856380243	-5.269638	-16.626434	-11.810135
1493856380243	-5.5795135	-10.153473	-8.531067
1493856380243	-3.9266205	-8.901352	-4.7371216
1493856380243	-3.6793823	-8.418152	-3.4329224
1493856380243	-5.276932	-7.3964233	-4.9420166
1493856380243	-7.2759094	-11.575836	-8.1892395
1493856380243	-5.574997	-15.451324	-5.521805
1493856380243	-3.214096	-11.358078	2.7205353
1493856380243	-2.2866821	-5.9610596	7.2385864
1493856380243	-3.9202728	-5.622284	3.4139862
1493856380243	-1.3940125	-8.276825	2.7546692
1493856380243	2.586563	-10.667679	6.5575256
1493856380243	4.038559	-12.381958	4.331482
1493856380243	4.1094666	-13.322876	0.83377075
1493856380243	3.8105927	-13.818329	-0.82603455
1493856380243	2.3899384	-12.579071	-0.6455231
1493856380243	-0.9842224	-9.735718	0.40727234
1493856380243	-3.0067139	-7.6823425	0.5418701
1493856380243	-2.3088074	-7.531601	0.92762756
1493856380243	-2.901474	-9.103607	-0.46324158
1493856380243	-1.9307251	-9.726791	-1.1121979
1493856380243	-0.1857605	-9.144272	-0.3567505
1493856380243	0.28771973	-8.717102	0.16796875
1493856380243	0.83177185	-8.445419	0.8395386
1493856380243	0.96017456	-8.8484955	-0.31817627
1493856380243	1.101593	-9.057358	-0.6697235
1493856380243	0.9938507	-9.807953	-0.0539093
1493856380243	0.91342163	-10.490494	-0.8189697
1493856380243	1.3630066	-10.747055	-1.336792
1493856380243	1.2168579	-11.228134	-0.793396
1493856380243	-0.4727173	-11.588791	-0.7469177
1493856380243	-1.4085083	-11.582748	-1.5426025
1493856380243	0.94647217	-11.710068	-0.7589874
1493856380244	3.1209564	-11.830215	-0.113357544
1493856380244	3.3947144	-12.333069	-0.4815979
1493856380244	3.9414825	-14.10173	-1.158844
1493856380244	4.2279816	-14.342957	-1.7936859
1493856380244	2.6672974	-12.916061	-2.4003906
1493856380244	-0.55010986	-10.817444	-2.2677307
1493856380244	-1.9649048	-10.086548	0.1429596
1493856380244	-2.6181488	-11.424744	2.6147308
1493856380244	-3.8662567	-13.857071	2.8396301
1493856380244	-4.5744476	-15.680923	1.7207947
1493856380244	-3.9066315	-15.323395	-0.1635437
1493856380244	-2.1734467	-13.456818	-0.5679779
1493856380244	-0.7524719	-11.985428	0.4011078
1493856380244	2.31839	-10.892929	0.6725464
1493856380244	3.8082733	-10.106857	0.21897888
1493856380244	2.6567383	-9.041702	0.51249695
1493856380244	1.7464752	-7.5824585	2.2473907
1493856380244	0.48912048	-5.794632	2.6977692
1493856380244	-0.4018097	-4.1833496	3.7078552
1493856380244	-1.614212	-3.165451	4.419647
1493856380244	-3.3173065	-2.9400787	3.6965332
1493856380244	-3.8304443	-2.9135284	2.4936523
1493856380244	-3.4862823	-3.7831726	0.8827362
1493856380244	-2.9970093	-6.0807495	0.008224487
1493856380244	-3.5298004	-9.908371	-2.5724945
1493856380244	-5.1204834	-15.047668	-8.586151
1493856380244	-4.8083954	-14.401016	-11.159119
1493856380244	-3.9082336	-10.665695	-9.765427
1493856380244	-1.6939697	-9.329819	-6.8985596
1493856380244	0.13131714	-10.154053	-4.6058807
1493856380244	-1.0350647	-7.683258	-5.4795074
1493856380244	-2.154953	-5.4381256	-6.6100616
1493856380244	-5.995926	-9.385254	-4.8509064
1493856380244	-6.726837	-17.83522	-0.64164734
1493856380244	-5.502304	-16.984085	1.516861
1493856380244	-2.8430939	-9.145004	-1.0518036
1493856380244	-2.0589905	-4.612686	5.229019
