accelerometer_timestamp	accelerometer_x_data	accelerometer_y_data	accelerometer_z_data
1493777203537	-3.0345612	3.7083435	7.2352753
1493777203557	-2.35643	4.1152954	7.531784
1493777203578	-1.944458	4.7050476	7.399475
1493777203597	-1.7687988	5.2247314	7.2110443
1493777203617	-1.677063	5.5083923	8.033646
1493777203636	-1.6590424	5.4461975	9.485992
1493777203656	-1.6913605	5.2148438	10.604294
1493777203675	-1.5622711	4.964279	10.185532
1493777203695	-1.0001068	5.1428833	8.07576
1493777203715	-0.8145752	5.6160736	7.382126
1493777203735	-0.7774048	5.4679413	9.09404
1493777203755	-1.0491943	4.7823486	10.897003
1493777203774	-1.3777466	4.1708374	11.243317
1493777203794	-1.4546814	3.8899078	10.577927
1493777203814	-1.351471	3.9465027	9.804184
1493777203834	-1.4395905	4.06987	9.545898
1493777203854	-1.9447174	3.8221283	9.018982
1493777203873	-2.448227	3.2541962	8.699371
1493777203893	-1.914505	3.2799225	9.75473
1493777203913	-0.61628723	4.189743	9.047867
1493777203932	-0.32299805	5.279602	6.516571
1493777203952	-0.76675415	4.7441254	5.628235
1493777203972	-4.515213	3.322754	6.6693573
1493777203992	-0.8497467	3.472824	7.227661
1493777204012	2.5288544	3.441803	11.062607
1493777204031	1.7381897	3.9512787	7.7798767
1493777204051	4.7830048	2.9128265	4.8845673
1493777204071	1.8515472	2.831726	7.737198
1493777204111	-0.95306396	2.3583374	8.895416
1493777204130	0.0473938	2.8457642	7.5092316
1493777204150	1.9570618	4.1986694	8.557251
1493777204170	1.3659668	4.2612762	8.543121
1493777204190	0.9858093	5.408951	10.027771
1493777204209	-0.94418335	4.9356384	8.602234
1493777204229	-5.050598	3.3908386	9.566727
1493777204249	-1.3755035	3.1317444	9.759659
1493777204269	0.5710449	5.097763	10.551147
1493777204289	0.29148865	4.559128	10.975403
1493777204308	-0.62272644	4.3297577	10.051132
1493777204328	-1.3131104	4.035919	8.707794
1493777204348	-1.6986389	3.8500519	9.030243
1493777204368	-1.5083313	4.331314	9.266037
1493777204388	-1.2755737	4.786728	8.402695
1493777204407	-1.6629639	4.372528	8.691406
1493777204427	-2.6193542	3.350006	9.297058
1493777204447	-3.2106934	2.8685303	10.015488
1493777204467	-2.7760315	3.0634308	10.14772
1493777204487	-1.661026	3.4480896	10.060623
1493777204506	-0.5222931	3.5519714	11.172653
1493777204526	0.11210632	3.3140106	12.358673
1493777204546	0.31356812	2.8559418	12.468979
1493777204565	0.26083374	2.299179	11.858673
1493777204585	-0.1849823	2.199646	10.265228
1493777204605	-0.7346802	2.3624115	8.086151
1493777204625	0.054092407	2.6107635	7.3111267
1493777204644	1.0072632	3.0942078	7.6514893
1493777204665	0.45295715	3.0851135	7.6204834
1493777204684	-0.6563873	2.5907135	7.598984
1493777204704	-0.7582855	2.6647491	6.920578
1493777204723	-0.5378876	2.7258606	5.9006195
1493777204743	-0.24040222	2.9190521	7.7637024
1493777204763	-0.292984	3.5750275	9.125778
1493777204783	-0.85266113	3.3846588	7.853836
1493777204803	-0.52545166	3.2722626	6.4638824
1493777204823	0.7889862	3.9208374	4.178772
1493777204843	1.8270111	3.7881927	4.0282745
1493777204862	2.729721	2.7426453	5.549881
1493777204906	2.9096832	1.2757874	6.717407
1493777204906	2.0830078	-1.2106934	5.1966553
1493777204922	2.3955688	-2.6701813	3.2648468
1493777204942	2.6379547	-4.209839	2.4723053
1493777204961	2.7959747	-2.9042816	4.0171967
1493777204981	2.4501495	-3.667328	-1.5000305
1493777205000	3.2790985	-8.187393	0.7704315
1493777205020	8.2677	-7.8196106	4.671631
1493777205040	12.288132	-6.15625	3.9558563
1493777205060	13.189545	-7.932495	9.643753
1493777205080	14.735931	-7.5584564	7.5400696
1493777205099	19.14978	-7.3684387	5.91304
1493777205119	19.461044	-5.6028137	5.361084
1493777205139	19.461044	-1.5567474	4.372467
1493777205159	19.461044	-0.30308533	5.7859955
1493777205198	17.671768	-1.423111	3.1717834
1493777205218	13.755112	-2.886444	2.1813507
1493777205238	19.03453	8.01593	-19.216095
1493777205258	9.23526	-6.2389984	-7.149521
1493777205278	3.837265	-4.2604218	5.3394165
1493777205297	2.835495	-1.4448547	-1.1553192
1493777205317	6.465088	-2.6744537	-3.1045227
1493777205344	5.7042084	-3.3989868	0.4649048
1493777205358	7.677597	-1.7874756	-0.6441803
1493777205377	9.107315	-2.5435638	-0.7892761
1493777205398	6.4345856	-5.3451843	-2.735672
1493777205416	4.0275574	-8.006241	-1.9572144
1493777205436	7.597687	-3.7304535	-4.5045013
1493777205455	6.2718506	-4.5342865	-2.873764
1493777205475	6.0881042	-5.1508484	-3.3952484
1493777205495	7.0415497	-4.317856	-12.057404
1493777205515	8.403671	-4.3472595	-9.614365
1493777205534	11.015244	-2.9287567	-6.1909485
1493777205554	7.395462	-2.3984375	-9.730286
1493777205574	1.8354797	-5.107361	-11.776337
1493777205594	-2.7844543	-11.768356	-7.288162
1493777205624	5.297119	-11.868866	4.524704
1493777205634	17.2854	-6.350769	9.52298
1493777205653	16.462753	-6.8871613	1.7644653
1493777205673	8.783218	-7.6699524	-3.078888
1493777205693	2.3708496	-5.0637207	-3.1792755
1493777205713	2.6704102	-6.8580627	-1.2095184
1493777205732	5.9206696	-6.0021973	3.728775
1493777205752	2.9171295	-12.317795	5.605194
1493777205772	3.8675995	-16.87996	2.26062
1493777205792	6.894882	-13.828354	-1.3959656
1493777205811	5.167877	-10.4144745	-1.8632813
1493777205831	4.856735	-7.837372	-1.048706
1493777205851	4.9236603	-7.8436737	-0.80285645
1493777205871	4.7964325	-7.0559998	-0.63020325
1493777205890	1.8913727	-7.2584686	0.06364441
1493777205910	1.8506622	-8.044281	-0.302536
1493777205930	1.9606476	-6.984085	-0.33950806
1493777205950	1.9099579	-5.6234894	-0.2696991
1493777205970	2.2650604	-6.866104	0.9288788
1493777205989	3.8722076	-5.5422974	0.8597412
1493777206009	6.0783386	2.4048462	5.3825226
1493777206029	3.332611	2.0212402	1.7750397
1493777206049	2.5509796	-4.5655975	1.100296
1493777206069	1.2550507	-6.368759	-0.27485657
1493777206088	-1.8484344	-17.220901	2.5126038
1493777206108	2.8736572	-19.366135	0.80448914
1493777206128	4.639801	-17.424957	-1.845459
1493777206148	5.2141724	0.9380951	-1.2498627
1493777206168	3.878296	-9.377167	-6.0355835
1493777206187	5.3356323	-18.765076	1.3243561
1493777206207	4.1660156	-19.474823	-1.9244995
1493777206227	-0.568161	-19.381607	-4.085663
1493777206247	-3.4195251	-17.460968	1.0606384
1493777206266	-4.1266937	-11.010513	2.7122498
1493777206306	-3.6088104	-7.9049377	2.936493
1493777206326	-2.7437897	-7.4434357	2.2764893
1493777206346	-3.075592	-17.998276	-0.20399475
1493777206365	4.4884796	-9.571289	0.13912964
1493777206385	0.3277588	-10.3233795	0.26760864
1493777206405	2.9678802	-12.628387	1.6651459
1493777206425	0.74687195	-12.400543	2.028473
1493777206444	-1.6753082	-10.337189	3.8071747
1493777206464	-2.8382416	-5.7403107	0.62667847
1493777206485	-1.8527222	-5.3512573	2.762146
1493777206504	-2.0735626	-4.4581604	2.8420258
1493777206524	-2.9470825	-3.4701538	2.5240173
1493777206543	-2.6602173	-3.9671326	2.4947205
1493777206563	-1.5405579	-3.914444	1.4244385
1493777206583	-1.2449188	-5.4841003	0.477417
1493777206603	-0.89637756	-8.095337	-1.7870178
1493777206623	-1.5009613	-11.590179	-6.515167
1493777206642	-3.5130768	-13.939804	-11.096527
1493777206662	-3.408142	-14.27681	-8.872299
1493777206682	-1.6351166	-13.72818	-5.313553
1493777206702	-1.5820313	-11.283966	-1.5304108
1493777206722	-2.6094513	-8.60434	-0.30255127
1493777206743	-2.6224976	-7.6688538	0.099609375
1493777206762	-2.5868988	-9.113724	0.5331726
1493777212666	-3.734848	-10.5047455	0.5222626
1493777212666	-3.5523071	-10.359039	3.0705109
1493777212666	-1.9125671	-10.471863	4.831009
1493777212666	-1.5054474	-11.173416	2.5057983
1493777212667	-1.6724854	-10.903152	0.1232605
1493777212667	-0.59477234	-10.690216	-1.5834198
1493777212667	1.0858307	-10.533005	-1.0906982
1493777212667	1.6440582	-10.143494	0.26867676
1493777212667	0.3662262	-9.42868	1.4291229
1493777212667	-1.600769	-9.280609	1.0550079
1493777212667	-1.7848969	-9.6345825	0.18904114
1493777212667	-0.58535767	-10.15184	0.088378906
1493777212667	-0.21650696	-10.202713	0.34403992
1493777212667	-0.8307953	-9.703033	0.78660583
1493777212667	-1.1494751	-9.3980255	1.0175934
1493777212667	-1.1617279	-9.439072	0.93969727
1493777212667	-0.9199524	-9.664551	0.79556274
1493777212667	-0.4927826	-9.725922	1.0096741
1493777212667	-0.51272583	-9.663376	0.7615967
1493777212667	-0.3566742	-9.629364	-0.138031
1493777212667	0.43139648	-9.779434	-0.7823639
1493777212667	1.0852356	-10.158829	-0.9892731
1493777212667	1.2674408	-10.500259	-0.8675232
1493777212667	1.1555481	-10.385071	-0.75723267
1493777212667	0.79115295	-10.141632	-0.8637848
1493777212667	1.3930969	-9.916183	-0.7257843
1493777212667	2.0267792	-9.923569	-0.58543396
1493777212668	2.23497	-10.184677	-0.5871124
1493777212668	1.7886963	-10.535248	-0.774704
1493777212668	1.2104797	-10.6910095	-0.87358093
1493777212668	0.7890625	-10.462891	-0.691452
1493777212668	0.6976471	-9.86351	-0.7828369
1493777212668	0.99334717	-9.591843	0.1762085
1493777212668	1.1870575	-9.498764	-0.04258728
1493777212668	1.5167694	-9.675537	0.3357544
1493777212668	2.033249	-10.338211	0.43992615
1493777212669	2.378006	-10.671921	0.27275085
1493777212669	2.0444489	-10.969238	0.33076477
1493777212669	0.8803253	-10.975494	0.3635559
1493777212669	-0.21495056	-10.752716	0.13038635
1493777212669	-0.44979858	-10.39859	-0.28042603
1493777212669	-0.5426483	-10.250809	-0.2906494
1493777212669	-0.641098	-10.529251	-0.39637756
1493777212669	-0.76246643	-10.582733	-0.9555664
1493777212669	-0.5406189	-10.42778	-2.318039
1493777212669	0.6931305	-10.983353	-4.1323853
1493777212669	1.4567413	-12.117325	-3.1227722
1493777212669	-1.2090607	-11.249054	0.48054504
1493777212669	-3.224823	-9.619446	1.4532166
1493777212669	-1.7986298	-9.487183	1.1905212
1493777212669	-0.52534485	-9.960205	-1.8679657
1493777212669	-0.67718506	-9.3111725	-1.8735199
1493777212669	-0.65979004	-8.721817	-1.512085
1493777212669	-0.15649414	-8.043015	-1.6940155
1493777212670	0.2374878	-7.6346893	-2.1844025
1493777212670	-0.03933716	-7.1317444	-2.728531
1493777212670	0.019332886	-6.5769043	-2.9345245
1493777212670	0.15948486	-6.228821	-3.508484
1493777212670	0.05845642	-6.438324	-4.4696503
1493777212670	0.54803467	-6.9531097	-4.954376
1493777212670	0.87294006	-7.399826	-5.537323
1493777212670	0.8414459	-7.8662415	-6.6030426
1493777212670	0.9924164	-8.16777	-7.1835938
1493777212670	0.9260559	-8.194641	-7.2329254
1493777212670	0.76945496	-8.540787	-5.9809723
1493777212670	0.7529297	-9.369171	-5.014694
1493777212670	1.4598999	-9.727325	-4.620514
1493777212670	0.88746643	-9.590683	-1.0141296
1493777212670	-2.845932	-10.423584	-0.15214539
1493777212670	-4.108536	-12.128052	-4.3468475
1493777212670	-1.8457489	-10.176407	-0.08558655
1493777212670	-1.1366119	-8.99057	1.1701813
1493777212670	-1.4268036	-9.344254	-0.7325592
1493777212670	-0.36860657	-9.707306	-1.5090942
1493777212670	0.42359924	-9.795059	-1.5737457
1493777212670	0.62789917	-9.655029	-0.85417175
1493777212670	1.2601166	-9.682404	-0.024871826
1493777212670	1.6979065	-10.360001	0.32180786
1493777212670	2.7378998	-10.498795	0.578949
1493777212670	3.4884644	-10.062012	-0.36143494
1493777212670	2.6871185	-9.906464	-0.40870667
1493777212670	1.2857361	-9.1185	0.02432251
1493777212670	-0.2909088	-8.336487	-0.48616028
1493777212670	-0.15940857	-8.442474	-0.4529724
1493777212670	0.087265015	-9.351486	-0.22381592
1493777212670	0.081604004	-9.933716	0.38476563
1493777212670	0.21276855	-9.387909	0.625824
1493777212670	0.81391907	-9.089096	-0.06758118
1493777212670	0.46995544	-9.672897	-0.16070557
1493777212670	-0.51542664	-10.070389	0.7238159
1493777212670	-0.50382996	-10.259308	1.6338806
1493777212670	0.41511536	-10.699066	1.3473663
1493777212670	1.0515442	-11.55275	1.420929
1493777212670	0.047576904	-12.165482	0.29811096
1493777212670	0.23794556	-12.490112	0.45288086
1493777212671	1.7834778	-13.346191	0.5084686
1493777212671	3.0049896	-13.766327	-0.0040740967
1493777212671	3.871933	-14.364914	-1.3396912
1493777212671	3.2819214	-13.691986	-0.76802063
1493777212671	1.34552	-12.629456	-0.55789185
1493777212671	-1.4460297	-12.2397	-2.2455292
1493777212671	-3.5433197	-11.765762	-3.0043335
1493777212671	-4.579315	-10.723953	-0.4124756
1493777212671	-5.227783	-10.613907	2.8569946
1493777212671	-5.343704	-12.123764	4.743225
1493777212671	-4.366928	-12.812195	2.0257874
1493777212671	-3.612915	-12.478577	-1.6214294
1493777212671	-1.2037354	-12.203308	-3.0062256
1493777212671	2.4570618	-11.525284	-1.2739716
1493777212671	2.6556244	-9.581436	0.14753723
1493777212671	0.80096436	-7.3496094	1.2722015
1493777212671	-1.3034515	-6.4063416	1.1569061
1493777212671	-2.5874023	-5.7317963	1.250473
1493777212671	-2.978119	-4.759384	0.9670105
1493777212671	-2.4150848	-4.206314	0.4234619
1493777212671	-1.6378937	-3.7943726	0.38581848
1493777212671	-1.3871155	-3.4568024	0.6511078
1493777212671	-1.151825	-3.711792	0.9917755
1493777212671	-0.42025757	-4.3798523	0.7255707
1493777212671	0.4390869	-4.8887024	-0.12042236
1493777212671	0.3068695	-6.226532	-2.026123
1493777212671	0.55215454	-10.537857	-6.9358215
1493777212671	1.33107	-17.022034	-15.970673
1493777212671	3.5256042	-19.474823	-18.247833
1493777212671	1.0569763	-15.381287	-12.784515
1493777212671	-1.3702087	-6.212509	-4.823929
1493777212671	-2.3883972	-0.71865845	0.7393341
1493777212671	-4.210495	-4.8135834	4.0686646
1493777212671	-1.5632477	-12.808197	5.9562836
1493777212672	0.5829315	-17.60884	-1.8440094
1493777212672	-4.0541687	-16.295914	-10.101395
1493777212672	-3.3853302	-6.287491	9.380096
1493777212672	-6.9890594	-3.6423187	6.944458
1493777212672	-1.6525879	-6.6980896	3.4145355
1493777212672	4.747406	-10.211594	7.1838226
1493777212672	5.311615	-13.328796	5.0718384
1493777212672	4.057434	-14.166138	2.9857178
1493777212672	1.8430176	-12.065842	0.412323
1493777212672	-1.5155029	-9.890457	0.10472107
1493777212672	-1.6783142	-8.955063	2.3950958
1493777212672	-1.5116272	-9.415451	0.35281372
1493777212672	-0.065979004	-8.631424	0.1522522
1493777212672	0.761734	-8.440781	0.67051697
1493777212672	1.3187256	-8.5896	1.289154
1493777212672	1.6800537	-8.918442	1.3981323
1493777212672	1.8154602	-9.197357	0.9880371
1493777212672	1.5965118	-9.402008	0.5348053
1493777212672	0.8968811	-8.644791	-0.92129517
1493777212672	1.9671478	-8.337173	-2.2896423
1493777212672	3.7395477	-10.074402	-0.33718872
1493777212672	2.8158112	-12.1866	1.6331024
1493777212672	0.61364746	-12.091537	-0.75009155
1493777212672	0.60147095	-12.240097	-1.0371246
1493777212672	0.6095123	-12.273041	-1.2962036
1493777212672	-1.5773773	-12.525085	-3.3424072
1493777212672	-0.8497772	-13.597031	-4.8638153
1493777212672	2.9589539	-14.571991	-3.3451996
1493777212672	3.6587982	-14.983322	-3.2747345
1493777212672	1.268219	-13.017975	-0.33010864
1493777212672	-2.3044128	-12.418823	3.1228943
1493777212672	-4.496277	-13.892944	5.16716
1493777212672	-4.8059235	-15.668915	3.2200928
1493777212672	-3.389145	-16.102768	0.5020447
1493777212672	-0.5477295	-15.322052	-2.052536
1493777212672	3.2391357	-13.172684	-1.2095337
1493777212672	3.61734	-10.25473	0.070007324
1493777212672	2.0471497	-7.5802765	1.5543213
1493777212672	0.19030762	-5.602661	3.2879333
1493777212673	-1.867569	-5.0414886	3.3025055
1493777212673	-2.7403717	-4.649948	2.4248505
1493777212673	-2.539505	-4.222229	1.8529205
1493777212673	-2.6090393	-3.7881927	1.7255402
1493777212673	-3.0317383	-3.0437317	2.3794556
1493777212673	-2.0851135	-2.4487915	2.9154663
1493777212673	-0.9741516	-2.1742554	2.5308838
1493777212673	-0.7573395	-2.9559937	0.6016693
1493777212673	-0.05418396	-6.3721313	-3.5089264
1493777212673	-1.2311554	-13.77179	-12.22316
1493777212673	-0.81477356	-18.601044	-18.467987
1493777212673	1.5509186	-19.474823	-14.400742
1493777212673	1.3953552	-11.658035	-6.7224274
1493777212673	-0.15896606	-2.725937	-3.1664429
1493777212673	-5.5135803	-8.467804	-3.0706024
1493777212673	-4.9796295	-15.544434	4.122772
1493777212673	-0.7115631	-12.910065	3.7548523
1493777212673	-2.5600586	-7.539398	3.1131287
1493777212673	-3.5123901	-1.4620514	8.874237
1493777212673	-0.9483032	-6.759781	7.484726
1493777212673	3.4565735	-13.084503	5.0789795
1493777212673	3.9487152	-13.292831	3.201233
1493777212673	3.5359192	-12.301071	2.6121674
1493777212673	2.9172058	-11.588516	1.4818726
1493777212673	0.08543396	-10.615189	0.6268463
1493777212673	-1.7756348	-9.429352	0.37080383
1493777212673	-1.0516052	-9.145721	1.8583984
1493777212673	0.23626709	-9.621201	0.33465576
1493777212673	0.5660858	-8.669846	0.2250061
1493777212673	0.55163574	-7.9943695	-0.31497192
1493777212673	0.8473511	-8.03125	0.069381714
1493777212673	1.801239	-8.794098	0.09025574
1493777212673	2.253891	-9.166214	0.58706665
1493777212673	1.6707611	-9.312851	0.6750641
1493777212673	1.3498077	-9.497894	-1.4556885
1493777212673	1.9360352	-9.455902	-1.5920258
1493777212673	1.2339325	-10.503494	-1.1987305
1493777212673	-0.20399475	-11.464951	-1.487793
1493777212674	1.587143	-12.323395	-0.6779022
1493777212674	3.081665	-12.98851	-0.7905121
1493777212674	2.3837433	-12.974091	-2.8697357
1493777212674	1.1523438	-13.189911	-4.4140778
1493777212674	1.0677643	-14.569244	-3.3608856
1493777212674	1.0631409	-16.112991	-1.8327637
1493777212674	-1.6889496	-14.120682	1.8385315
1493777212674	-5.67482	-12.9153595	4.090439
1493777212674	-6.890579	-13.719223	3.8046112
1493777212674	-6.5138855	-15.493195	1.5086823
1493777212674	-5.6054535	-15.772644	-0.97387695
1493777212674	-1.412674	-14.16983	-1.7729492
1493777212674	3.7650452	-11.801056	0.45169067
1493777212674	3.2006683	-9.855011	1.4278717
1493777212674	0.300354	-7.7686157	1.9437256
1493777212674	-1.4851227	-5.7832184	3.6470184
1493777212674	-2.073059	-4.7522583	4.2556915
1493777212674	-2.4772644	-3.8039856	3.491516
1493777212674	-2.1243896	-2.8734436	2.460022
1493777212674	-1.7224731	-2.196106	2.0806885
1493777212674	-1.5692749	-1.7245483	2.2257996
1493777212674	-0.98513794	-1.5917969	1.9007568
1493777212674	-0.76660156	-2.2802582	1.1248169
1493777212674	-0.8344116	-4.648102	-1.5140076
1493777212674	-1.0292664	-11.758377	-12.868057
1493777212674	-1.7520142	-17.978867	-19.317749
1493777212674	-0.037994385	-19.474823	-14.091568
1493777212674	0.7026367	-10.945389	-7.851639
1493777212674	-0.22372437	0.16067505	-3.9681396
1493777212674	-4.91098	-1.4824524	-1.7836914
1493777212674	-7.9571533	-12.212204	4.0068207
1493777212675	-2.6796875	-14.415512	7.236328
1493777212675	-0.4230652	-17.23732	-9.783829
1493777212675	4.72966	-8.457413	9.047272
1493777212675	-2.4118195	-5.6598206	8.322418
1493777212675	-0.7023468	-8.345581	4.174164
1493777212675	3.2638397	-10.840164	3.229477
1493777212675	4.957123	-11.229141	5.0463867
1493777212675	3.627411	-12.350433	2.4770355
1493777212675	1.4624634	-12.90741	0.45236206
1493777212675	-1.4803925	-10.916428	0.23358154
1493777212675	-1.9137573	-10.227386	-0.38970947
1493777212675	-1.511795	-8.706039	-0.17080688
1493777212675	-0.068374634	-7.127945	-0.3745575
1493777212675	0.58943176	-7.6923523	0.22348022
1493777212675	0.8687439	-8.513107	0.84580994
1493777212675	0.69151306	-8.339783	1.7755127
1493777212675	0.8510437	-8.815094	1.443039
1493777212675	1.9492188	-9.291687	0.8362274
1493777212675	2.2219849	-9.498611	-0.074798584
1493777212675	2.2759705	-10.124069	-2.0401764
1493777212675	2.8265533	-10.426559	-2.2763824
1493777212675	2.216034	-11.24765	-1.482605
1493777212675	1.0122223	-11.800491	-1.5273438
1493777212675	1.6602173	-11.876816	-1.3195648
1493777212675	1.433136	-11.871307	-1.7671814
1493777212675	-0.6341858	-12.486542	-3.972168
1493777212675	0.13217163	-14.092026	-4.3300934
1493777212675	1.8682861	-15.896561	-2.5870056
1493777212675	1.40448	-15.138779	-1.9349518
1493777212675	-0.39137268	-12.917938	2.543518
1493777212675	-3.6127625	-13.082962	3.5860748
1493777212675	-5.5466003	-15.052399	3.4882355
1493777212675	-4.660858	-16.071106	1.8305359
1493777212675	-1.958725	-15.585403	0.037384033
1493777212675	2.1554565	-13.775513	0.20822144
1493777212675	3.9280396	-11.824554	1.049469
1493777212675	1.1603394	-8.822693	1.5212097
1493777212675	-1.5038452	-6.810852	2.2410126
1493777212676	-1.6450958	-5.5643463	3.8672028
1493777212676	-1.9732208	-4.451874	3.6953583
1493777212676	-2.341919	-3.59227	2.975418
1493777212676	-2.1927643	-3.11734	2.570465
1493777212676	-2.1247406	-2.7016754	2.6583405
1493777212676	-2.2011414	-2.3748474	2.9732513
1493777212676	-1.6931763	-2.3309937	2.4683838
1493777212676	-1.0424347	-3.328308	0.40422058
1493777212676	-0.66830444	-7.330551	-5.1056976
1493777212676	-0.8097229	-15.973648	-15.5833435
1493777212676	-0.57936096	-19.474823	-18.887756
1493777212676	0.034988403	-17.938263	-11.184326
1493777212676	0.08666992	-7.802643	-4.5557404
1493777212676	-1.6068878	-0.9717865	-3.3138733
1493777212676	-6.7837677	-9.039749	-1.9217224
1493777212676	-4.693283	-16.233246	4.3694305
1493777212676	-1.9200897	-15.006714	0.7217407
1493777212676	-1.6986847	-6.9161377	5.9145966
1493777212676	-0.8795471	-3.4745178	8.113876
1493777212676	1.2342377	-8.763489	6.491333
1493777212676	3.4431152	-12.726242	4.693268
1493777212676	4.6102448	-13.005981	3.177185
1493777212676	3.3901215	-11.7456665	2.032425
1493777212676	2.7493744	-10.955246	0.9601593
1493777212676	0.046188354	-9.368912	0.15866089
1493777212676	-1.3986053	-8.878693	1.050766
1493777212676	-1.3334808	-9.525055	-0.03274536
1493777212676	0.09654236	-9.132156	-0.044937134
1493777212676	1.5525818	-8.961029	-0.033309937
1493777212676	0.598938	-8.480835	-1.0161285
1493777212676	0.12210083	-8.336761	-0.19729614
1493777212676	0.5695648	-9.348206	0.5395508
1493777212676	1.2574768	-9.881866	1.0028839
1493777212676	1.7851868	-10.114975	-0.43806458
1493777212676	2.220169	-10.045715	-2.2783966
1493777212676	2.3317108	-10.805893	-2.8972168
1493777212676	1.2834473	-11.384613	-1.518631
1493777212676	1.3001099	-11.450485	-1.0315552
1493777212685	2.7381287	-11.478912	-0.783905
1493777212705	2.0135345	-11.874374	-2.2487183
1493777212724	1.326355	-13.232712	-4.1802826
1493777212745	2.5803223	-15.235046	-2.500885
1493777212764	1.9912872	-16.303665	-2.549652
1493777212784	1.2861938	-14.28627	-0.4633026
1493777212804	-2.2604675	-13.423325	2.751007
1493777212823	-5.3542633	-13.441467	5.237793
1493777212843	-6.168625	-14.73439	4.343689
1493777212863	-5.96196	-15.928375	0.8100891
1493777212883	-2.9510803	-16.175415	-0.62168884
1493777212903	2.603897	-13.515411	0.73365784
1493777212922	2.4313812	-12.004562	1.4463654
1493777212942	0.698761	-8.994568	2.3121185
1493777212963	-0.9697418	-6.707367	3.7096252
1493777212982	-1.2377472	-5.3699493	4.4268036
1493777213002	-1.4472046	-4.677246	3.646408
1493777250306	-2.1504364	-3.9816895	2.9168243
1493777250306	-2.1264648	-2.9379425	2.3667908
1493777250306	-2.0759583	-1.951828	2.3340454
1493777250306	-1.8465118	-1.1941376	2.5437622
1493777250306	-1.3265228	-1.125351	2.0067596
1493777250307	-0.96920776	-2.4939117	-0.23402405
1493777250307	-1.450882	-7.4144287	-7.7240295
1493777250307	-2.6711426	-15.801895	-15.071152
1493777250307	-1.6472015	-19.474823	-18.746063
1493777250307	-0.09199524	-18.249405	-11.711517
1493777250308	-1.7864227	-7.7385864	-3.9973755
1493777250308	-6.677246	-2.657837	-5.022049
1493777250308	-7.962982	-9.850388	-0.010025024
1493777250308	-0.15472412	-13.980774	8.0000305
1493777250308	1.4349518	-13.242813	2.0176086
1493777250308	1.2646027	-6.963974	5.781952
1493777250308	-0.69714355	-5.880127	7.117523
1493777250309	0.11268616	-10.1073	5.5048523
1493777250309	2.795807	-11.559219	4.0598145
1493777250309	4.2578583	-11.75087	3.4860687
1493777250309	3.092331	-11.16658	2.4658203
1493777250309	1.77742	-11.373138	0.9824066
1493777250309	-0.40519714	-10.3085785	0.05508423
1493777250309	-1.5730286	-9.430923	-0.5283356
1493777250310	-1.88768	-9.3824005	-1.1588898
1493777250310	-0.29388428	-8.957291	-0.25993347
1493777250310	1.0639343	-8.39827	-0.14671326
1493777250310	1.4742584	-7.900818	-0.083969116
1493777250310	1.3300781	-8.941635	0.49320984
1493777250310	0.7534332	-9.548523	0.8643799
1493777250311	0.3500061	-9.382553	0.9674225
1493777250311	0.25508118	-9.8311615	-0.09048462
1493777250311	1.0249939	-9.997482	-1.4491425
1493777250311	1.9540558	-10.682632	-2.228363
1493777250311	1.6529846	-11.646835	-1.6939545
1493777250311	1.0431061	-11.547668	-1.756424
1493777250311	3.0895233	-11.654053	-0.9091644
1493777250312	3.613739	-12.509369	-1.9862671
1493777250312	2.7691956	-13.867645	-4.642685
1493777250312	3.2031403	-15.417755	-2.1780396
1493777250312	1.0294952	-16.12616	-2.5756836
1493777250312	-0.62005615	-13.402115	0.5076599
1493777250312	-3.0436401	-12.268631	2.8669586
1493777250312	-4.367859	-12.808868	4.543991
1493777250313	-4.2780304	-15.227142	3.1785889
1493777250313	-3.7817078	-16.321472	0.18299866
1493777250313	-2.5765076	-16.378433	-2.6085663
1493777250313	3.012619	-13.739319	0.0012969971
1493777250313	2.8685913	-10.8745575	2.1168213
1493777250313	0.14259338	-8.593842	2.6325378
1493777250314	-1.1586761	-6.601944	3.7484589
1493777250314	-1.6183472	-5.686569	3.98143
1493777250314	-2.1458282	-4.6943817	3.6693115
1493777250364	-2.2828674	-3.8696136	2.657364
1493777250364	-2.1704407	-3.0884705	2.3012848
1493777250364	-2.4323425	-2.0406647	2.503769
1493777250364	-2.1608734	-1.0561523	2.2592468
1493777250364	-1.4732666	-1.2114105	1.6717987
1493777250364	-0.4136505	-3.6519012	-0.7369232
1493777250364	-0.9144592	-10.486053	-9.7452545
1493777250364	-2.606964	-17.394592	-14.962723
1493777250365	-0.15975952	-19.474823	-13.803772
1493777250365	0.68385315	-13.624802	-7.777481
1493777250365	-0.7116852	-4.869812	-2.4548798
1493777250365	-5.0983276	-5.4228363	-4.5463867
1493777250365	-7.318329	-13.336166	-3.4966583
1493777250365	-1.3151093	-15.409561	6.740753
1493777250365	1.1330719	-13.225372	1.6681519
1493777250365	0.6573639	-5.5386963	7.2664185
1493777250365	-2.2846222	-4.2991333	6.005844
1493777250365	0.5837097	-8.76265	5.932556
1493777250365	4.551407	-11.675339	3.543457
1493777250365	5.162857	-12.822006	3.0552368
1493777250365	3.4671478	-12.518509	1.8061066
1493777250365	0.8366394	-11.47757	0.58525085
1493777250365	-2.190628	-9.181137	-0.32966614
1493777250365	-2.0362701	-8.730545	0.4719696
1493777250365	-1.0448608	-8.664154	-0.31217957
1493777250365	-0.25395203	-8.788544	-0.3025055
1493777250365	0.56718445	-8.380707	0.1733551
1493777250365	1.0210876	-8.035294	0.31462097
1493777250365	1.7005463	-8.595322	0.62802124
1493777250365	1.4561615	-9.517822	0.7827759
1493777250365	1.0544128	-9.915237	-0.08329773
1493777250365	1.5947113	-9.9739685	-0.925766
1493777250365	2.096695	-9.657669	-1.923172
1493777250365	1.8827057	-10.60405	-1.4774628
1493777250365	-0.19075012	-11.417633	-1.0624847
1493777250365	1.0250092	-11.62355	-1.1535492
1493777250365	3.411255	-11.783829	-0.13912964
1493777250365	2.2524414	-13.382355	-2.9578552
1493777250366	2.0176392	-14.8591	-3.8677368
1493777250366	3.038498	-15.265457	-0.6345825
1493777250366	0.7723236	-15.684769	-2.5338287
1493777250366	-0.38272095	-13.3142395	-1.219162
1493777250366	-2.514267	-11.828079	3.7283478
1493777250366	-5.485977	-12.618561	4.5968475
1493777250366	-5.432831	-15.148895	3.5194244
1493777250366	-4.1997223	-15.9027405	0.68188477
1493777250366	-2.5135193	-16.169128	-2.7716522
1493777250366	3.6354218	-13.6328125	0.15127563
1493777250368	2.3231354	-11.052536	1.9379272
1493777250369	0.7368927	-8.839737	2.2723846
1493777250369	-0.5414734	-6.510727	3.178299
1493777250369	-0.69914246	-5.001053	3.8556519
1493777250369	-1.2202148	-4.015732	4.2761536
1493777250369	-2.1973877	-3.2609253	3.3507843
1493777250369	-2.432663	-2.8639832	2.604782
1493777250369	-2.3856812	-1.9223633	2.5428772
1493777250369	-2.0188599	-0.7645416	2.2216034
1493777250369	-1.1391144	-1.1643219	1.4898529
1493777250369	-0.5558777	-3.9253082	-0.9460602
1493777250369	-0.5527344	-11.71376	-11.838303
1493777250369	-2.0449371	-18.070953	-16.735672
1493777250369	-0.4902649	-19.474823	-12.612961
1493777250369	0.4898224	-13.77272	-6.966446
1493777250369	-0.87564087	-3.8057709	-4.133438
1493777250369	-5.066574	-3.2779999	-5.6826935
1493777250369	-5.7322235	-11.502487	0.96995544
1493777250369	-0.08306885	-15.388153	8.889008
1493777250369	1.4511566	-14.602844	-0.35247803
1493777250369	-2.0741577	-7.00914	3.502777
1493777250369	-4.0978394	-4.014694	8.295792
1493777250369	-0.48713684	-8.353241	5.8690643
1493777250369	3.9713898	-11.0733185	4.439636
1493777250369	5.73172	-12.21907	4.0225525
1493777250369	4.554184	-12.661041	2.0575256
1493777250369	3.8110657	-12.233673	0.46133423
1493777250369	1.052948	-10.1050415	-0.63623047
1493777250369	-0.5862732	-8.318436	1.0816193
1493777250369	-1.1543121	-8.549591	0.22273254
1493777250369	-1.108551	-8.271133	-0.13568115
1493777250369	-0.15283203	-8.2825165	0.09220886
1493777250369	0.5457001	-8.452194	0.18888855
1493777250369	1.1779785	-8.538284	0.33880615
1493777250369	1.0792847	-9.055542	0.21170044
1493777250369	0.70018005	-9.69368	-0.036849976
1493777250369	0.9841614	-10.172501	-1.04599
1493777250369	1.1325684	-10.189453	-0.9802704
1493777250369	0.15281677	-11.262817	-0.8983307
1493777250369	-1.3017731	-11.348679	-1.4783325
1493777250369	1.1763763	-11.833054	-1.4825592
1493777250369	4.3960266	-12.2547	-1.2107849
1493777250369	5.028244	-12.7621765	-3.287918
1493777250370	5.3979187	-14.014374	-2.3927765
1493777250370	4.885147	-14.917191	-2.0241547
1493777250370	0.79696655	-15.3810425	-2.9566956
1493777250370	-1.9775696	-13.904694	1.2721252
1493777250370	-5.2642365	-12.320969	3.1205444
1493777250370	-6.8264465	-12.243225	4.7643585
1493777250370	-6.136673	-14.543732	1.8186188
1493777250370	-4.565811	-16.012924	-0.5827637
1493777250370	-0.86631775	-15.362839	-3.0184479
1493777250370	4.6467285	-13.096573	-1.0140686
1493777250370	3.9684296	-10.341675	1.829773
1493777250370	-0.06085205	-8.091675	1.8166351
1493777250370	-1.3843231	-6.3109283	3.2989655
1493777250370	-2.0063477	-5.4793854	3.9872131
1493777250370	-2.4138489	-4.3554535	3.875061
1493777250370	-2.1723938	-3.6899567	2.8238678
1493777250370	-1.9891052	-3.2691803	2.5249023
1493777250370	-2.426712	-2.1687927	2.4573517
1493777250370	-1.7407684	-1.2009125	2.3353271
1493777250370	-0.80514526	-1.6801758	1.2839661
1493777250370	-0.3129425	-5.0171356	-2.4897003
1493777250370	0.28237915	-13.645905	-12.97966
1493777250370	-0.7979584	-19.314484	-18.222488
1493777250372	-0.66563416	-19.474823	-12.8940735
1493777250372	0.08657837	-12.454727	-6.003937
1493777250372	-0.807251	-2.5177765	-3.21344
1493777250372	-4.687729	-4.1712646	-4.5206146
1493777250372	-5.89328	-13.099503	-0.40997314
1493777250372	-1.0399628	-15.650589	6.755127
1493777250372	-0.99894714	-12.780472	1.2266235
1493777250372	-1.9424133	-5.1431427	4.2921143
1493777250372	-1.0824738	-4.7451935	7.457947
1493777250372	1.0030823	-10.268936	5.755707
1493777250373	2.9969025	-12.186432	3.2458801
1493777250373	3.8119965	-12.038895	3.3898926
1493777250373	3.8265076	-11.8433075	2.0195923
1493777250373	3.706665	-11.493759	1.0449677
1493777250373	-0.3158722	-9.299118	-0.05567932
1493777250373	-1.9992523	-8.907211	0.72128296
1493777250373	-1.6576996	-9.277237	0.49552917
1493777250373	-0.81655884	-9.271194	0.11816406
1493777250373	0.047164917	-8.796158	-0.27822876
1493777250373	0.42260742	-8.7464905	-0.35536194
1493777250373	1.3950653	-8.547073	0.19703674
1493777250373	2.2211761	-9.549194	0.28518677
1493777250373	2.3404694	-10.609283	0.38423157
1493777250373	3.0562744	-10.384964	-1.7801514
1493777250373	4.1046143	-9.347061	-2.1065063
1493777250373	2.9471283	-10.378815	-1.2931213
1493777250373	-0.42349243	-11.074127	-0.6768036
1493777250373	-0.20069885	-11.732239	-1.0600128
1493777250373	2.0608673	-12.091507	-0.80513
1493777250373	2.3621674	-13.210968	-2.4424286
1493777250373	2.6128082	-14.197815	-2.8786926
1493777250373	3.0382233	-14.639175	-1.6556702
1493777250373	2.4879456	-15.38765	-2.14563
1493777250373	-0.53738403	-12.978973	-0.9521942
1493777250373	-3.1755524	-11.174103	3.4026337
1493777250373	-4.9138947	-11.655289	4.9596405
1493777250373	-4.1610413	-14.519684	2.1885986
1493777250373	-3.4229736	-15.864059	-0.17259216
1493777250373	-2.0462341	-15.652649	-2.5055695
1493777250373	3.3029175	-13.162552	-0.24203491
1493777250373	2.8984528	-10.791351	2.0199585
1493777250373	1.1875305	-8.925842	1.7741394
1493777250373	-0.7318268	-6.313858	2.5390167
1493777250373	-1.870285	-5.6857452	3.2265167
1493777250373	-2.3804169	-4.9779205	3.1685028
1493777250373	-2.244995	-4.3524323	2.883728
1493777250373	-1.9338074	-3.8256378	2.6005096
1493777250373	-2.2471619	-2.9630432	3.0360107
1493777250373	-2.1774597	-1.8641815	2.6217957
1493777250373	-1.2502136	-1.6131897	1.6625061
1493777250373	0.07946777	-3.9405212	-0.9668579
1493777250373	0.6235504	-9.4544525	-7.785858
1493777250374	-1.464859	-16.381424	-14.899841
1493777250374	-1.1799316	-19.474823	-17.558167
1493777250374	0.46827698	-16.144363	-10.694275
1493777250374	0.32139587	-7.0009003	-3.2365112
1493777250374	-1.5020447	-1.4896393	-3.0575562
1493777250374	-4.6008453	-7.94075	-1.9277496
1493777250374	-3.431076	-14.070374	7.0966644
1493777250374	-2.155243	-14.57341	-0.6503601
1493777250374	0.10618591	-9.700714	2.7045288
1493777250374	-0.91052246	-5.4856415	9.297058
1493777250374	-1.3468323	-7.1083984	5.682358
1493777250374	1.9781952	-10.18515	4.407196
1493777250374	3.7585754	-11.438568	3.3661194
1493777250374	4.560135	-11.924438	3.0076447
1493777250374	3.3735046	-12.335861	1.5588531
1493777250374	0.3271637	-10.862152	0.05079651
1493777250374	-1.1365356	-9.152878	0.17936707
1493777250374	-1.2059021	-8.983017	0.8670807
1493777250374	-1.4073029	-8.779907	-0.35131836
1493777250374	-1.0762787	-8.545151	0.93933105
1493777250374	0.11087036	-8.654465	0.43370056
1493777250374	0.92355347	-8.694351	0.71702576
1493777250374	1.873703	-9.010727	1.0869751
1493777250374	1.9003601	-9.290649	0.503479
1493777250374	1.9516144	-9.710876	-0.4404297
1493777250374	2.3603973	-9.461029	-1.6422272
1493777250374	2.3782806	-9.637894	-1.6921082
1493777250374	1.2680206	-10.96727	-0.7653351
1493777250374	0.30023193	-11.396866	-1.4586945
1493777250374	2.490219	-11.815643	-0.83169556
1493777250374	3.0308075	-12.715286	-1.5492706
1493777250374	1.7224121	-13.233978	-4.1234283
1493777250374	2.327423	-14.502396	-3.304947
1493777251108	2.82901	-14.795364	-3.6608124
1493777251108	1.3876038	-13.93045	-3.3574524
1493777251108	-1.780014	-12.622482	0.8517151
1493777251108	-4.383011	-12.637024	4.8884125
1493777251108	-5.146042	-14.299896	4.8352966
1493777251108	-4.917053	-15.580963	0.4824524
1493777251108	-4.438965	-16.028366	-1.6180725
1493777251108	-0.59887695	-14.021362	-1.6786957
1493777251108	2.9381561	-12.935944	-0.30639648
1493777251108	2.7629242	-10.234909	1.5475006
1493777251108	-0.030578613	-8.009918	1.8837738
1493777251108	-1.6578674	-6.3000946	3.3936615
1493777251109	-2.5710907	-5.45282	3.796112
1493777251109	-2.9071198	-4.5370636	3.290924
1493777251109	-2.7091675	-3.8208008	2.5437775
1493777251109	-2.4991913	-2.8373108	2.3349304
1493777251109	-2.4147034	-1.6313019	2.6345215
1493777251109	-1.6149445	-0.8347473	2.632553
1493777251109	-1.1073456	-1.039978	1.571167
1493777251109	-0.64663696	-4.2113495	-1.6930695
1493777251109	0.45828247	-13.452591	-12.228622
1493777251109	-0.8224945	-19.474823	-19.274155
1493777251109	-0.48492432	-19.474823	-13.321121
1493777251109	0.2587433	-11.285934	-5.462387
1493777251109	-1.9102478	-1.082016	-3.1708984
1493777251109	-6.6476593	-5.9262238	-2.47818
1493777251109	-7.7205353	-15.164627	1.4814911
1493777251109	-0.9784546	-15.0542145	2.5173798
1493777251109	1.9456329	-10.287369	4.498947
1493777251109	-2.1602325	-4.3552094	5.451462
1493777251109	-3.5700836	-5.035965	5.8263245
1493777251109	-0.116241455	-9.960068	5.377182
1493777251109	3.4902344	-12.690079	3.832718
1493777251109	5.3975525	-13.164169	3.5059357
1493777251109	5.1024017	-12.2187195	1.4669952
1493777251109	3.5670166	-10.91391	0.7255554
1493777251109	0.11668396	-9.373123	0.28523254
1493777251109	-1.5446167	-8.658722	0.35682678
1493777251109	-1.6169586	-8.993683	0.5450592
1493777251109	-0.59213257	-9.150421	-0.19384766
1493777251109	0.71687317	-9.306671	-0.36384583
1493777251109	0.491333	-8.426376	0.4459076
1493777251109	0.9826355	-8.348038	0.42565918
1493777251109	1.5891418	-9.188522	0.76283264
1493777251109	1.1837311	-9.797638	0.699234
1493777251109	1.2197571	-10.47551	-0.6314087
1493777251109	1.5594788	-10.799728	-2.152298
1493777251109	1.8990021	-10.418823	-2.51799
1493777251109	1.191452	-11.338867	-2.6184998
1493777251109	1.2025452	-11.803726	-1.0570526
1493777251109	2.9780273	-11.984604	-0.56347656
1493777251109	3.4802094	-12.510071	-1.8100739
1493777251109	1.8275299	-12.562241	-4.578018
1493777251110	2.2502441	-13.455093	-2.7616425
1493777251110	1.0711975	-15.156937	-2.9597778
1493777251110	1.5192413	-14.094772	1.2198639
1493777251110	-1.620636	-13.305237	2.5284424
1493777251110	-5.37204	-13.939026	3.428482
1493777251110	-6.469223	-15.505157	3.1391754
1493777251110	-4.925308	-15.542038	1.5826111
1493777251110	-2.258957	-15.077316	-1.7450867
1493777251110	3.032074	-13.522659	-1.6530457
1493777251110	3.3329926	-10.874039	0.45289612
1493777251110	0.57473755	-8.89093	1.0708771
1493777251110	-0.46292114	-7.0874176	3.115158
1493777251110	-1.186142	-6.0351105	4.127014
1493777251110	-2.1599731	-4.7013702	4.342392
1493777251110	-2.4442596	-3.9532166	3.373764
1493777251110	-2.4512787	-3.7657318	2.5819244
1493777251110	-3.1654663	-3.1721802	2.619339
1493777251110	-3.1444855	-2.4781952	3.086792
1493777251110	-2.4263763	-2.0508575	2.955536
1493777251110	-1.8827667	-2.8986511	0.97628784
1493777251110	-1.8856049	-7.1527405	-4.809952
1493777251110	-1.4376984	-15.099976	-14.559143
1493777251110	-0.09524536	-19.474823	-19.722397
1493777251110	0.8583374	-16.739792	-12.448624
1493777251110	-0.28956604	-6.8806915	-3.5968323
1493777251110	-2.8896027	0.6045685	-3.2270966
1493777251110	-7.0799713	-6.3030243	-3.2630005
1493777251110	-6.93486	-14.153793	0.7918091
1493777251110	0.40657043	-15.486176	-1.5588074
1493777251110	4.713806	-11.758911	4.231537
1493777251110	1.0754547	-6.290283	7.135803
1493777251110	-2.338684	-6.576233	4.456543
1493777251110	-0.19265747	-9.561539	2.9945526
1493777251110	2.6481476	-11.019318	2.581543
1493777251110	4.102783	-11.447876	2.653534
1493777251110	4.3357544	-11.95224	1.1535797
1493777251110	2.5678864	-11.568237	0.29722595
1493777251110	-0.13018799	-10.538071	0.32284546
1493777251110	-1.4951172	-9.440216	-0.122039795
1493777251110	-1.9426422	-9.068634	-0.14234924
1493777251110	-0.9741821	-8.484695	-0.32339478
1493777251110	0.46295166	-8.361465	0.61816406
1493777251110	1.05336	-8.448975	0.7151489
1493777251111	0.9615631	-8.546661	0.26940918
1493777251111	0.8707886	-9.00502	1.310852
1493777251111	1.5400696	-9.453903	0.0036010742
1493777251111	2.0869904	-9.764496	-0.8786011
1493777251111	2.870453	-9.672455	-2.3772278
1493777251111	3.4877167	-10.476196	-1.9335632
1493777251111	2.0539856	-11.120605	-0.6369934
1493777251111	0.7597656	-11.319443	-2.0460815
1493777251111	1.7882538	-12.178909	-1.9687958
1493777251111	1.3770294	-12.518768	-2.8737793
1493777251111	1.2848206	-14.4440155	-5.7679596
1493777251111	3.4675446	-16.564835	-3.0272827
1493777251111	2.267929	-15.772507	-2.472702
1493777251111	0.40859985	-13.923645	-0.042373657
1493777251111	-1.3754272	-12.300247	2.2129822
1493777251111	-2.59198	-13.471024	4.9848785
1493777251111	-3.6004639	-15.346573	2.2628784
1493777251111	-3.9563599	-16.943008	0.34934998
1493777251111	-0.9317322	-15.304993	-2.6694336
1493777251111	4.775299	-13.222061	-0.31515503
1493777251111	3.7708435	-10.274521	1.8912201
1493777251111	1.2637024	-9.340469	2.1521301
1493777251111	-0.37721252	-7.382843	3.432846
1493777251111	-1.7216644	-5.6670685	3.7573853
1493777251111	-2.1352997	-4.744995	3.268402
1493777251111	-2.3108826	-3.841278	2.8104553
1493777251111	-2.0585175	-3.0223694	2.9819489
1493777251111	-2.4567413	-2.1151276	3.1582947
1493777251111	-2.9207306	-1.0185242	3.2141876
1493777251111	-2.8078308	-1.1544037	2.6084137
1493777251111	-1.9209595	-3.9933624	0.43441772
1493777251111	-0.99765015	-9.134491	-4.482666
1493777251111	-3.1949615	-15.490967	-13.138763
1493777251112	-0.46566772	-19.474823	-17.133987
1493777251112	4.6071014	-14.719498	-9.113785
1493777251112	1.4286346	-4.204178	-4.1512756
1493777251112	-4.0885925	-3.4257355	-2.1500244
1493777251112	-7.6876984	-13.021301	1.6598511
1493777251112	-5.25972	-14.734848	3.1226807
1493777251112	-0.99043274	-10.048645	2.7062378
1493777251112	1.3977661	-3.738266	8.94928
1493777251112	1.5078125	-5.7466736	7.5727997
1493777251112	2.4921265	-11.125916	2.8730469
1493777251112	3.3410645	-12.293793	2.8005981
1493777251112	3.7177277	-11.806717	2.873352
1493777251112	4.117981	-12.013702	2.0405731
1493777251112	0.96810913	-10.73378	0.17602539
1493777251112	-1.4445496	-9.144287	-0.15081787
1493777251112	-2.2875366	-8.526047	0.572052
1493777251112	-1.129776	-8.247482	0.35238647
1493777251112	-0.07635498	-8.201889	1.179184
1493777251112	0.37522888	-9.088074	-0.055618286
1493777251112	0.62257385	-9.562164	0.5532837
1493777251112	0.9625244	-9.24942	0.54499817
1493777251112	1.2345734	-9.439713	0.15766907
1493777251112	1.9025116	-11.076889	0.532135
1493777251112	2.9418182	-10.606918	-1.5337067
1493777251112	3.521988	-9.880905	-3.1621552
1493777251112	2.001648	-11.566483	-1.2249451
1493777251112	-0.31015015	-12.167786	-1.000946
1493777251112	0.976593	-12.075119	-0.9777832
1493777251112	3.0799866	-11.951492	-1.5160217
1493777251112	1.780899	-12.372025	-3.0426636
1493777251112	2.356186	-13.356995	-3.5996552
1493777251112	3.2761383	-14.327972	-2.6397705
1493777251112	1.6515808	-14.300186	-3.322754
1493777251112	0.373703	-12.991745	0.0549469
1493777251112	-2.5255432	-11.818451	3.364685
1493777251112	-4.4986877	-12.933044	4.9039307
1493777251112	-5.4181976	-15.126038	1.3347778
1493777251112	-4.6723175	-16.898819	0.1859436
1493777251112	-1.9738922	-15.456192	-1.5732727
1493777251112	3.235138	-13.570694	0.06707764
1493777251113	3.9871979	-10.747696	1.5498962
1493777251113	0.59754944	-8.278793	1.6906738
1493777251113	-0.5941467	-6.2298126	3.4098206
1493777251113	-1.4855499	-4.942215	4.027954
1493777251113	-1.6126556	-3.8118896	3.9096832
1493777251113	-1.982666	-3.3679657	3.063675
1493777251113	-2.6867065	-3.2554321	2.557846
1493777251113	-3.0998993	-2.3404388	2.6777344
1493777251113	-2.8226929	-1.201355	2.5291748
1493777251113	-1.8522644	-1.6660309	1.7283478
1493777251113	-1.4498749	-4.5654144	-0.16743469
1493777251113	-0.6885681	-11.800659	-10.395248
1493777251113	-1.3183746	-18.298248	-18.6678
1493777251113	-0.25323486	-19.474823	-13.880707
1493777251113	1.0160828	-13.009079	-6.707367
1493777251113	-0.41401672	-1.2400818	-3.4878845
1493777251113	-2.8353271	0.62290955	-3.9727325
1493777251113	-4.928192	-7.8072357	1.1152344
1493777251113	-1.7548828	-14.771652	6.3535767
1493777251113	0.4933014	-18.366058	-4.5682526
1493777251113	1.9586792	-11.5377655	2.5478973
1493777251113	-1.8358612	-5.010605	8.240997
1493777251113	-2.3369446	-6.0804443	4.099533
1493777251113	1.6038055	-9.1609955	3.7095795
1493777251113	4.296936	-11.094391	3.5102386
1493777251113	4.2000427	-12.668076	2.7589264
1493777251113	3.4633179	-13.060257	1.1833344
1493777251113	-0.5409546	-10.926804	-0.12588501
1493777251113	-2.529358	-9.33519	-0.06925964
1493777251113	-2.1083984	-9.392899	-0.18859863
1493777251113	-1.148819	-8.8172455	-0.11541748
1493777251113	0.3274536	-8.064987	0.269989
1493777251113	0.6412506	-8.299591	0.24456787
1493777251113	0.9295044	-8.295258	1.5074921
1493777251113	1.6737976	-8.860291	1.0776978
1493777251113	1.7911377	-9.655991	0.5518341
1493777251113	1.9125061	-9.648987	-0.7230835
1493777251113	2.4302216	-9.597366	-2.0336914
1493777251113	2.775238	-9.951782	-2.3488617
1493777251113	1.9522705	-10.958069	-0.78045654
1493777251113	0.15771484	-11.198441	-1.2092743
1493777251113	1.2666168	-11.561127	-1.5939941
1493777251114	2.1057434	-11.997955	-1.1171265
1493777251114	0.77838135	-13.026199	-2.3807678
1493777251114	1.8113708	-14.091446	-3.2076874
1493777251114	3.0692444	-15.073807	-2.3142395
1493777251114	2.3520203	-14.84523	-2.7629852
1493777251114	0.10870361	-13.116104	0.11845398
1493777251114	-2.5883636	-11.794632	2.0833893
1493777251114	-4.037674	-12.193512	6.1118927
1493777251114	-4.03273	-14.264053	2.6158295
1493777251114	-3.1620483	-15.550369	-0.69444275
1493777251114	-1.6121368	-15.715637	-3.3012695
1493777251114	4.9744415	-13.805191	-1.0859375
1493777251114	3.0811768	-10.969833	1.325943
1493777251114	1.4364319	-8.428955	1.7557526
1493777251114	-0.03916931	-6.327652	3.3182526
1493777251114	-1.7065735	-5.2423096	3.472641
1493777251114	-2.5044556	-4.773758	2.95607
1493777251114	-2.6563568	-4.2980804	2.5272064
1493777251114	-2.2532196	-4.08696	2.0935822
1493777251114	-2.0599518	-3.3337402	2.5003815
1493777251114	-1.9734955	-2.2407837	2.818924
1493777251114	-1.5875702	-1.7776642	2.4971466
1493777251114	-0.8226013	-3.4175568	0.5954132
1493777251114	-0.041549683	-8.626907	-4.7540894
1493777251114	-2.0356598	-16.000336	-14.094376
1493777251114	-1.5879822	-19.474823	-18.40158
1493777251114	0.7431793	-16.52623	-11.353882
1493777251114	0.29600525	-8.207809	-3.5111847
1493777251114	-1.558197	-2.3390656	-3.423523
1493777251114	-5.6270905	-7.839447	-4.7293396
1493777251114	-4.6573944	-14.897079	-0.101364136
1493777251114	0.70954895	-14.459885	1.7828064
1493777251114	1.0470428	-9.557587	3.511612
1493777251114	-2.7233887	-4.0666046	5.5424194
1493777251114	-2.128479	-5.826111	5.932495
1493777251114	1.3757477	-10.283981	5.0858307
1493777251114	4.045456	-11.661514	3.683609
1493777251114	4.2827606	-12.207443	3.3219147
1493777251114	2.7887726	-12.061295	2.1222992
1493777251114	1.5240173	-11.278824	0.42123413
1493777251114	-1.0734863	-9.379517	0.37963867
1493777251114	-1.9679718	-9.183868	1.1434326
1493777251114	-1.1116028	-9.571747	0.12643433
1493777251114	-0.41070557	-9.0854645	-0.20838928
1493777251115	0.29325867	-9.222336	-0.7792206
1493777251115	0.2866211	-8.626816	0.1199646
1493777251115	1.2840881	-8.325348	0.47506714
1493777251115	2.42128	-8.947739	1.1930695
1493777251115	2.3811493	-9.703217	0.4657135
1493777251115	2.3435822	-9.991074	-0.19685364
1493777251115	2.6256714	-9.855011	-1.713089
1493777251115	2.0991974	-10.0781555	-1.8434753
1493777251115	0.25106812	-10.86615	-1.2445831
1493777251115	-1.6103821	-11.511551	-1.7774506
1493777251115	1.1443024	-11.604843	-0.39065552
1493777251115	2.334198	-11.9748535	-0.32870483
1493777251115	1.0652161	-13.66568	-2.751892
1493777251115	2.145813	-14.177689	-1.7579346
1493777251115	2.7491455	-15.184158	-1.6794739
1493777251115	1.1364441	-14.8328705	-2.3972168
1493777251115	-2.379837	-12.581848	0.36021423
1493777251115	-4.277878	-11.577393	1.1277618
1493777251115	-5.3071747	-13.221161	3.789215
1493777251115	-4.491211	-15.107452	3.48143
1493777251115	-2.2978058	-15.127823	1.6512604
1493777251115	-0.6938324	-14.311996	-2.6030273
1493777251115	4.087494	-12.493851	-1.5140381
1493777251115	3.1500702	-10.409088	0.76293945
1493777251115	0.29899597	-8.886642	1.6521759
1493777251115	-0.771225	-7.435486	3.2882996
1493777251115	-1.6541443	-6.5960846	3.6447754
1493777251115	-2.3187866	-5.744705	2.7411652
1493777251115	-2.7356873	-5.0458527	1.9524078
1493777251115	-2.4647217	-4.617676	1.1145325
1493777251115	-2.065094	-3.9770966	1.5647583
1493777251115	-1.8930817	-2.9826355	2.2293854
1493777251115	-1.0056458	-2.5698547	2.3298492
1493777251115	-0.075683594	-2.9849854	1.3845673
1493777251115	0.3283844	-4.883362	-1.7634888
1493777251115	0.8473511	-10.574921	-10.001678
1493777251115	-1.3999176	-17.021805	-15.089081
1493777251115	-4.169693	-19.474823	-13.605698
1493777251115	-3.2458496	-15.48848	-9.259216
1493777251115	-1.9246063	-6.4908905	-3.7972412
1493777251115	-4.2640686	-3.2565002	-2.4620972
1493777251115	-5.3026123	-9.602982	-0.50061035
1493777251115	-0.74845886	-14.657883	4.302994
1493777251116	-0.2680664	-13.736282	-3.4821625
1493777251116	-0.78167725	-7.730545	1.859024
1493777251116	-0.82258606	-4.5493927	8.264786
1493777251116	1.263855	-9.425842	5.6042633
1493777251116	4.072815	-13.213257	3.1799622
1493777251116	4.4447327	-12.376785	2.5971832
1493777251116	2.2962036	-10.898819	2.464386
1493777251116	0.6324005	-11.143066	1.4430847
1493777251116	0.82040405	-10.980209	0.5514221
1493777251116	-1.5084534	-9.833786	-0.24510193
1493777251116	-2.1668396	-9.47081	0.10424805
1493777251116	-1.1008148	-9.369064	-0.12506104
1493777251116	0.6031952	-8.411255	0.015533447
1493777251116	1.5602264	-8.298431	0.5469055
1493777251116	1.4608612	-8.133331	0.217453
1493777251116	1.8212891	-8.457916	0.9935608
1493777251116	2.6261292	-9.431625	0.13891602
1493777251116	3.2770386	-10.21283	-0.07670593
1493777251116	2.5535126	-10.040421	-1.8504639
1493777251116	0.72631836	-9.213196	-3.0155182
1493777251116	-0.118637085	-9.832291	-1.2176666
1493777251116	0.32022095	-11.629196	-1.0342712
1493777251116	0.42689514	-12.293259	-2.42276
1493777251116	0.949234	-11.546188	-3.3482819
1493777251116	2.0812988	-11.604614	-2.99234
1493777251116	2.933792	-12.964508	-1.7437286
1493777251116	3.0081024	-14.5381775	-1.2001648
1493777251116	1.1639557	-13.854477	-0.26229858
1493777251116	-1.8919525	-12.713104	-0.1945343
1493777251116	-3.987854	-12.013458	0.7423248
1493777251116	-3.980362	-12.334549	3.2893066
1493777251116	-2.5660248	-12.524872	3.0604858
1493777251116	-0.52012634	-13.129929	1.207428
1493777251116	1.7128754	-13.016113	-1.1920013
1493777251116	3.050354	-11.931091	-0.5721741
1493777251116	2.5389557	-10.482269	1.2241974
1493777251116	0.96920776	-9.96106	2.2069855
1493777251116	-0.68299866	-9.230072	2.8552704
1493777251116	-1.3015442	-8.797714	3.1965485
1493777251116	-1.588562	-8.364685	3.3132172
1493777251116	-1.43367	-7.40184	3.1059723
1493777251116	-1.2259827	-5.8207703	2.9393158
1493777251116	-1.0012054	-4.612076	2.3788757
1493777251117	-0.90605164	-4.347687	1.9868927
1493777251117	-0.36982727	-5.761902	2.1351624
1493777251117	0.51394653	-8.196548	1.6924438
1493777251117	0.6220703	-12.447983	-1.9040222
1493777251117	1.1733551	-17.42839	-9.626907
1493777251117	1.0460968	-17.77208	-5.9773865
1493777251117	-3.0302124	-11.899429	8.774948
1493777251117	-8.574875	-7.151642	12.811554
1493777251117	-10.4721985	-5.8502502	3.6615448
1493777251117	-4.6809235	-5.5217743	-4.243271
1493777251117	7.79776	-8.914444	-3.040451
1493777251117	10.789108	-11.834656	-0.25776672
1493777251117	4.385559	-9.122726	5.458618
1493777251117	-0.65927124	-8.271698	5.880829
1493777251117	-2.7521667	-11.31308	2.691101
1493777251117	-3.3584747	-11.991577	2.3094025
1493777251117	-3.5053253	-11.099472	1.2732849
1493777251117	-4.6739044	-11.3022	0.11218262
1493777251117	-4.4248962	-11.745285	-2.3125916
1493777251117	-0.9693146	-10.818909	-2.7225952
1493777251117	0.0010986328	-10.934998	-1.7050323
1493777251117	-0.25167847	-11.632324	-0.3572235
1493777251117	0.4091339	-11.021225	2.42305
1493777251117	1.9278412	-10.494934	3.9815826
1493777251117	5.4039764	-10.295624	4.008957
1493777251117	5.7781982	-10.159119	4.3619843
1493777251117	1.9014435	-10.304977	2.5414886
1493777251117	1.7683716	-10.051697	2.1026
1493777251117	-0.12213135	-9.953674	2.0990295
1493777251117	-1.2099152	-9.725769	2.31398
1493777251117	-0.95207214	-9.893738	1.5673676
1493777251117	-0.44299316	-10.09433	-0.21342468
1493777251117	0.2551422	-10.248505	-1.7912445
1493777251117	1.104187	-10.276596	-2.4952393
1493777251117	1.4177704	-11.223175	-1.9795837
1493777251117	1.7270508	-12.496521	-1.2181549
1493777251117	1.8839264	-12.080948	-0.4711914
1493777251117	0.33206177	-10.657913	0.044677734
1493777251117	-2.3572998	-9.498581	0.017166138
1493777251117	-3.6732178	-11.312592	-0.7306671
1493777251117	-2.715866	-14.371475	0.38630676
1493777251117	0.77583313	-14.554138	0.2906494
1493777251118	2.981598	-12.968613	-1.5500183
1493777251118	4.537445	-11.642303	-0.067337036
1493777251118	1.6315765	-11.840759	2.6938171
1493777251118	-2.0155945	-11.229904	1.8122253
1493777251118	-3.3765106	-10.336426	0.44273376
1493777251118	-2.4254456	-10.003952	0.21818542
1493777251118	-1.2659912	-9.782623	-0.1129303
1493777251118	-0.4648285	-9.163193	0.14183044
1493777251118	-0.7708893	-7.784897	0.43125916
1493777251118	-1.2385864	-6.604309	1.1152344
1493777251118	-1.694809	-6.4080505	1.6765289
1493777251118	-1.8542938	-5.471817	1.5056152
1493777251118	-2.18544	-4.2588654	0.25271606
1493777251118	-2.4111786	-4.462509	-1.8294678
1493777251118	-3.0414276	-6.4315186	-5.685272
1493777251118	-4.066803	-9.374222	-10.122864
1493777251118	-3.6327362	-11.767303	-12.012817
1493777251118	-1.1999817	-10.918579	-10.413361
1493777251118	0.22898865	-7.711838	-6.2931976
1493777251118	-1.0569	-7.081833	-3.3625488
1493777251118	-1.0897369	-11.477097	1.3723145
1493777251118	-3.3983002	-15.06723	4.7046204
1493777251118	-10.088654	-11.805115	0.106552124
1493777251118	-7.186249	-7.6583405	3.4296265
1493777251118	1.8978882	-9.725128	8.222153
1493777251118	5.8894653	-13.393585	3.9514465
1493777251118	6.3638916	-14.013794	1.6974335
1493777251156	4.80661	-11.906433	1.2012024
1493777251156	2.9636536	-10.669006	1.189209
1493777251156	0.37721252	-10.249649	0.47366333
1493777251158	-2.6504211	-9.735519	-0.6227417
1493777251158	-3.5684662	-9.567627	-0.23303223
1493777251158	-0.8140564	-9.668945	0.32756042
1493777251158	0.6327667	-8.587616	0.22799683
1493777251158	0.8375702	-7.111908	0.65960693
1493777251158	0.7154083	-6.911316	1.0869751
1493777251158	0.812027	-7.7905884	0.8980713
1493777251158	1.5126953	-9.125732	0.4256134
1493777251158	2.2436218	-10.338287	0.55688477
1493777251158	2.3991547	-10.637527	-1.701004
1493777251158	2.4130096	-10.343735	-4.0023956
1493777251159	1.6276093	-11.397034	-2.8508148
1493777251159	0.7899475	-12.311966	-2.033905
1493777251159	1.9177856	-11.944595	-1.9784393
1493777251159	1.8460388	-11.9431	-1.4476624
1493777251159	-0.5916443	-12.364471	-3.24794
1493777251160	0.5403137	-13.310562	-3.1105194
1493777251160	1.9114227	-15.191574	-0.655365
1493777251160	0.54371643	-15.315277	-3.1072083
1493777251160	-1.9077301	-12.932297	1.1613159
1493777251160	-3.9894104	-13.081604	3.569458
1493777251160	-4.5615845	-15.058029	4.4087524
1493777251160	-4.3266907	-16.022034	3.272644
1493777251160	-2.5911865	-16.94667	1.7429657
1493777251160	0.48680115	-14.383087	-0.48194885
1493777251160	3.1535797	-13.006897	0.26678467
1493777251160	3.0663757	-10.132156	1.2027893
1493777251160	-0.111846924	-8.12355	1.7640076
1493777251161	-1.1192627	-6.2908173	3.4367676
1493777251162	-2.338791	-5.1384125	3.5783997
1493777251162	-2.0603027	-4.0963593	3.5031738
1493777251162	-1.8684387	-3.3197327	2.795166
1493777251162	-1.6389923	-2.7316284	2.379837
1493777251162	-1.3751526	-2.0304565	2.5171661
1493777251162	-1.6264648	-1.4132233	2.6996765
1493777251162	-1.0461884	-2.0633545	1.8980865
1493777251162	-0.26060486	-4.681381	-0.60092163
1493777251162	-1.6037903	-10.3785095	-6.2944794
1493777251163	-3.1453094	-17.32904	-14.874023
1493777251163	0.16990662	-19.474823	-15.489639
1493777251163	3.1889496	-14.632568	-7.206482
1493777251163	0.8896637	-4.195236	-2.0245209
1493777251163	-1.9842224	0.9794769	-3.6211395
1493777251163	-5.2283325	-6.646576	-3.833603
1493777251163	-2.036972	-16.77127	5.0567627
1493777251163	1.0526581	-19.304413	0.5680237
1493777251163	-1.7895508	-11.825668	0.9113617
1493777251163	-6.1009064	-2.8828583	8.079239
1493777251163	-4.102783	-3.778122	7.060074
1493777251163	2.1700134	-9.044449	6.6947327
1493777251163	5.8664856	-12.612732	5.057785
1493777251163	5.788849	-13.828354	2.9216614
1493777251163	5.3763885	-13.321747	1.4785156
1493777251163	1.7347565	-10.844345	0.2782898
1493777251163	-0.7157898	-8.920731	0.19869995
1493777251163	-0.56030273	-9.013306	0.6382141
1493777251163	0.1966095	-9.24086	0.5163727
1493777251163	0.5956726	-9.009735	0.17533875
1493777251163	0.613266	-8.540894	0.7389679
1493777251163	0.9362335	-8.553665	0.38638306
1493777251163	1.6493683	-8.891785	0.22924805
1493777251163	1.7301636	-8.79541	-0.17510986
1493777251163	1.3350372	-9.318039	0.36776733
1493777251163	1.051239	-9.631622	-0.7488861
1493777251163	1.1656189	-9.695526	-0.8870239
1493777251163	0.73735046	-10.437378	-1.0046997
1493777251163	-0.12223816	-11.121933	-1.319519
1493777251163	1.2463837	-11.774948	-0.7970276
1493777251163	3.0037537	-11.845734	-0.30630493
1493777251163	1.3310089	-12.412704	-2.6058044
1493777251163	-0.7533722	-13.217789	-4.9629517
1493777251163	3.0731506	-14.048904	-1.7930908
1493777251163	2.7708893	-15.549652	-3.2346802
1493777251163	1.6138458	-14.307739	-3.4636078
1493777251163	-2.0294342	-13.796722	-0.011077881
1493777251163	-4.424225	-13.805649	4.9282074
1493777251163	-4.3641663	-15.66507	7.764786
1493777251163	-3.352188	-15.41748	2.7248993
1493777251163	-0.71728516	-16.157486	-1.5208893
1493777251164	5.027832	-14.207199	-2.279892
1493777251164	2.1815948	-11.869843	0.6526947
1493777251164	-0.22885132	-9.300415	1.7780151
1493777251164	-1.1147308	-7.4421844	3.8233185
1493777251164	-1.4291687	-5.9783936	4.3542175
1493777251164	-1.2468567	-4.6928406	3.540924
1493777251164	-1.5905457	-4.09433	2.9089966
1493777251164	-2.2290497	-3.5709076	2.1469116
1493777251164	-2.8243103	-3.085785	1.9502411
1493777251164	-3.054123	-2.3511963	2.6806793
1493777251164	-2.4535675	-1.7487793	3.1677551
1493777251164	-1.551239	-1.9731293	2.178711
1493777251164	-0.6392212	-4.275482	-0.49891663
1493777251164	-0.31144714	-11.5854645	-10.062851
1493777251164	-0.65345764	-18.807785	-17.139786
1493777251164	0.38961792	-19.474823	-12.7565
1493777251164	-0.13647461	-13.704163	-8.016129
1493777251164	-1.2163696	-2.8827972	-2.6367188
1493777251164	-4.2390747	-1.3204651	-4.6940155
1493777251164	-5.3560944	-9.729965	-4.280548
1493777251164	1.262146	-15.315704	4.169464
1493777251164	1.5584106	-14.903351	-0.03288269
1493777251164	-0.7711792	-7.54422	2.45076
1493777251164	-0.8838806	-3.2060852	6.59581
1493777251164	0.27253723	-7.5450287	5.1219177
1493777251164	2.4340363	-11.374573	3.8622437
1493777251164	3.3697968	-12.1519165	2.8581696
1493777251164	2.7694397	-12.098618	2.5385895
1493777251164	1.9415283	-11.586716	1.8022919
1493777251164	-0.7259369	-10.262054	0.35272217
1493777251164	-2.1499481	-9.155502	0.73213196
1493777251164	-1.932663	-9.153412	1.1074677
1493777251164	-1.5414429	-8.949631	0.45437622
1493777251164	-0.38568115	-8.898712	0.8364563
1493777251164	0.8154297	-8.87323	0.60517883
1493777251164	1.3756409	-8.901855	0.45161438
1493777251164	2.3843384	-8.705704	0.86769104
1493777251164	2.9154968	-9.412018	0.9433899
1493777251166	2.5916748	-10.588898	-0.09126282
1493777251166	2.3609467	-10.819168	-2.1577454
1493777251166	2.2052612	-10.031067	-3.8598785
1493777251166	1.9673615	-10.659912	-2.5044403
1493777251166	0.7918701	-11.842285	-0.33180237
1493777251166	0.58828735	-11.895554	-0.2749176
1493777251166	1.867569	-11.716858	-0.99082947
1493777251192	1.4049377	-11.582611	-2.0581055
1493777251192	0.016601563	-12.45459	-3.5295258
1493777251192	2.2778473	-13.974823	-2.5382385
1493777251192	3.5836182	-14.763992	-1.552002
1493777251192	0.41748047	-13.964325	-3.382309
1493777251192	-2.3748932	-12.587418	-0.014785767
1493777251192	-3.7009888	-10.731018	4.3881073
1493777251192	-3.673172	-12.53244	5.850067
1493777251192	-3.753357	-14.751862	1.7979279
1493777251192	-4.606964	-16.46199	-0.45903015
1493777251192	-1.609024	-14.944046	-2.4423065
1493777251192	3.1888275	-13.130371	-1.0556641
1493777251192	3.158249	-10.093185	1.8179016
1493777251192	0.861145	-8.206863	1.9241028
1493777251192	-0.36341858	-7.009369	2.939209
1493777251192	-1.6703339	-6.0545654	3.2722015
1493777251192	-2.5067444	-5.0421295	2.688095
1493777251192	-2.4192505	-4.295395	2.0002747
1493777251192	-2.1016235	-3.767395	1.9182739
1493777251192	-2.1515045	-2.6391296	2.6874237
1493777251192	-2.139267	-1.7697144	2.7049255
1493777251192	-1.5788727	-1.7365875	2.2744598
1493777251192	-1.3860626	-3.0778656	0.5808716
1493777251192	-0.9519043	-7.8214264	-6.277527
1493777251192	-0.39941406	-15.385345	-14.556473
1493777251192	-0.035308838	-19.474823	-17.617493
1493777251193	-0.06340027	-16.266937	-12.766663
1493777251193	-0.75675964	-6.6940002	-4.3101807
1493777251193	-3.1365814	-0.018447876	-3.435791
1493777251193	-6.3986816	-5.937256	-1.9708557
1493777251193	-3.6221313	-12.905014	3.1247253
1493777251193	1.1141663	-14.480911	0.029922485
1493777251193	0.084747314	-12.152191	0.40515137
1493777251193	-2.2264404	-6.7509155	5.377014
1493777251193	-1.7233734	-6.8381805	5.582779
1493777251193	1.2455597	-9.463074	3.6929321
1493777251193	3.7912292	-10.600021	3.7502441
1493777251193	4.4200745	-11.70488	3.4384308
1493777251193	3.4768677	-12.183731	1.5993195
1493777251193	2.2420807	-11.705124	0.56347656
1493777251193	-0.69337463	-9.915939	-0.022872925
1493777251193	-1.4682312	-9.054657	0.18136597
1493777251193	-1.7467957	-9.44989	-0.29710388
1493777251193	-0.8096924	-9.569992	-0.6516113
1493777251193	0.21664429	-8.988037	0.1809082
1493777251193	0.39720154	-8.329636	0.7417755
1493777251193	1.2330475	-8.419449	1.0808868
1493777251193	1.971695	-9.036194	1.037735
1493777251193	1.4713898	-9.07869	1.0997772
1493777251193	1.1627808	-8.923035	-0.38619995
1493777251193	1.695755	-9.294601	-1.6594086
1493777251193	2.1592102	-10.0638275	-1.5952759
1493777251193	1.4243774	-11.000687	-1.3637695
1493777251193	-0.12644958	-11.767334	-1.7842407
1493777251193	1.4341125	-11.6562805	-1.1485748
1493777251193	1.897232	-11.661148	-0.4451294
1493777251193	0.18206787	-12.751343	-3.007553
1493777251194	1.5307465	-14.317108	-4.0953674
1493777251194	2.3986664	-14.6367035	-2.6200714
1493777251194	2.2741394	-15.044067	-2.8757477
1493777251194	0.09475708	-12.882019	0.33242798
1493777251194	-2.1953583	-11.819122	2.3246155
1493777251194	-3.1983032	-12.800217	4.157379
1493777251194	-3.5626678	-14.714157	2.6900787
1493777251194	-2.6289063	-15.47908	0.13293457
1493777251194	-2.6212463	-15.169281	-2.5384216
1493777251194	3.2177582	-13.214447	-0.51065063
1493777251194	2.739334	-10.456146	1.9150238
1493777251194	0.7582245	-9.0217285	2.201477
1493777251194	-0.7149811	-7.3370667	3.3933868
1493777251194	-1.826477	-6.539032	3.9089355
1493777251194	-2.0346222	-5.519165	3.2649078
1493777251194	-2.1217651	-4.7104034	2.5144196
1493777251194	-2.0507965	-4.0066986	1.7490845
1493777251194	-2.0513458	-2.893814	2.3223877
1493777251194	-2.011139	-1.4843597	2.6278076
1493777251194	-1.3419495	-1.1748047	1.9854279
1493777251194	-0.33638	-3.0530396	0.18821716
1493777251194	0.4360199	-7.5196686	-3.5297394
1493777251194	-1.7064209	-14.842178	-12.463058
1493777251194	-1.029129	-19.474823	-19.088593
1493777251194	1.3345337	-17.55722	-13.427002
1493777251194	0.5647278	-9.960678	-4.6551056
1493777251194	-1.7724915	-3.13826	-2.360077
1493777251194	-4.8240967	-8.77211	-3.7189026
1493777251194	-1.499115	-15.757156	2.0799255
1493777251194	1.6691437	-13.27684	3.399475
1493777251194	-2.5886078	-6.956024	1.4067535
1493777251194	-4.6262665	-1.70224	6.802948
1493777251194	-1.0160522	-5.86351	6.858902
1493777251194	3.571167	-11.94841	4.214035
1493777251194	5.008484	-13.752411	2.7404938
1493777251194	4.106537	-12.524109	2.7937927
1493777251194	2.4649658	-11.405823	1.4057922
1493777251194	-0.43237305	-9.944	0.37057495
1493777251194	-2.0027466	-9.097153	-0.03211975
1493777251194	-1.3011627	-9.544952	0.4223175
1493777251194	-0.54530334	-9.425735	0.121414185
1493777251194	-0.20976257	-8.971405	0.12384033
1493777251195	-0.12020874	-8.423248	0.6644745
1493777251195	0.37236023	-8.330185	0.3063507
1493777251195	1.5956116	-9.087585	0.2612915
1493777251195	2.3955078	-9.898315	0.70440674
1493777251195	2.0677643	-10.361862	0.27062988
1493777251195	2.2036438	-10.046539	-1.4057617
1493777251195	1.9854431	-9.759338	-2.6690674
1493777251195	0.9774475	-10.441864	-1.7915039
1493777251195	-1.0567932	-11.218658	-1.6952515
1493777251195	0.89334106	-11.447556	-1.2526703
1493777251195	2.1512299	-12.073013	-1.1079407
1493777251195	1.5374756	-13.007874	-3.2037354
1493777251195	2.3905945	-13.623245	-3.235443
1493777251195	2.8864594	-14.693207	-2.5505066
1493777251195	1.4908752	-15.023453	-3.644806
1493777251195	-0.18617249	-13.239319	-0.40727234
1493777251195	-3.0608368	-12.856201	2.9747467
1493777251195	-5.482773	-13.962616	4.892395
1493777251195	-6.3048096	-15.378311	2.03833
1493777251195	-3.8770142	-15.626633	-0.24362183
1493777251195	0.80155945	-13.021332	-1.8478241
1493777251195	3.7171783	-12.17482	-0.6669464
1493777251195	3.4625397	-9.817032	1.2999573
1493777251195	-0.22914124	-6.978546	1.6316833
1493777251195	-1.3332062	-5.855316	3.185028
1493777251195	-2.1026306	-5.445984	3.5020294
1493777251195	-2.6161041	-4.7205505	3.1317596
1493777251195	-2.3995514	-4.1667786	2.3062897
1493777251195	-1.9412994	-3.899887	1.7957764
1493777251195	-2.3778687	-3.0733795	2.2844086
1493777251195	-2.1851807	-2.0407867	2.566162
1493777251195	-1.3008118	-2.0460663	1.7623749
1493777251195	-0.585083	-4.0677185	-0.5937805
1493777251195	0.064575195	-9.773346	-7.6737976
1493777251195	-1.0292358	-16.924194	-16.644302
1493777251195	-0.536438	-19.474823	-17.292831
1493777251195	0.8650665	-14.8151245	-10.214966
1493777251195	0.4501648	-5.0631256	-3.717163
1493777251195	-1.2408905	-0.4981079	-2.2935944
1493777251195	-4.894562	-8.634079	-1.2325134
1493777251195	-2.8531494	-16.0793	3.590332
1493777251195	-0.30488586	-15.449524	-0.8541107
1493777251196	-0.5377197	-8.576813	1.8290253
1493777251196	-3.451126	-2.677658	6.626816
1493777251196	-2.2129822	-5.6753387	5.57164
1493777251196	2.186493	-11.01796	4.8139343
1493777251196	4.0312653	-13.195694	3.4226532
1493777251196	4.2600555	-12.647354	3.1271973
1493777251196	3.2784424	-11.761002	1.734787
1493777251196	0.97958374	-10.240234	0.34094238
1493777251196	-1.1441498	-9.365021	0.36572266
1493777251196	-1.57724	-9.691895	0.64004517
1493777251196	-0.6539459	-9.439804	0.8686981
1493777251196	0.22135925	-8.766449	0.32484436
1493777251196	0.7647095	-8.80336	-0.15097046
1493777251196	1.0166626	-8.348709	0.997879
1493777251196	1.1488037	-7.947159	0.6251373
1493777251196	1.8650818	-8.167648	0.16166687
1493777251196	2.3512878	-9.024292	1.1390686
1493777251196	2.1118774	-10.007477	-0.038269043
1493777251196	2.260315	-9.89003	-1.7937164
1493777251196	1.6630554	-10.986389	-2.0101318
1493777251196	0.41453552	-11.643417	-1.443222
1493777251196	1.1498871	-11.845139	-0.6691437
1493777251196	2.7236786	-12.065338	-0.6997528
1493777251196	2.3788147	-12.723129	-1.9025116
1493777251196	1.5939484	-14.488556	-4.1855316
1493777251196	3.6224365	-14.349762	-2.0119934
1493777251196	3.4925842	-14.511627	-2.0096588
1493777251196	0.50613403	-14.206467	-3.7743225
1493777251196	-2.7675934	-12.06395	-0.24147034
1493777251196	-4.051117	-11.481064	3.9901886
1493777251196	-4.7332153	-13.082642	5.6923065
1493777251196	-4.0765686	-14.671005	1.0237427
1493777251196	-3.567505	-15.263168	-0.53170776
1493777251196	0.30891418	-13.498367	0.15292358
1493777251196	2.7787628	-12.55455	-0.4075775
1493777251196	4.0187836	-10.423218	0.97402954
1493777251196	1.0281525	-7.582733	1.4354248
1493777251196	-0.69551086	-5.6718903	2.9322815
1493777251196	-2.184494	-5.102936	3.2691803
1493777251197	-2.3543549	-4.857773	2.6362305
1493777251197	-1.8516388	-4.358917	2.1370544
1493777251197	-1.6347351	-3.8097382	1.9308014
1493777251197	-2.3919983	-2.9881744	2.2190552
1493777251197	-2.5309753	-2.0230408	2.6451416
1493777251197	-1.8170319	-1.9098969	1.9008789
1493777251197	-1.1892853	-4.042465	-0.35427856
1493777251197	-0.1582489	-9.817078	-7.523697
1493777251197	-0.9652252	-16.843842	-15.817688
1493777251197	-1.1542969	-19.474823	-16.244247
1493777251197	-0.39834595	-14.985748	-10.419891
1493777251197	-0.8300781	-5.8089447	-4.379547
1493777251197	-3.5510864	-3.7088623	-2.0572968
1493777251197	-6.104889	-12.473511	-0.0043029785
1493777251197	-0.7867584	-15.145737	3.3662872
1493777251197	3.1283112	-10.961319	-1.0872955
1493777251197	1.5325775	-4.184067	3.8132935
1493777251197	-3.041748	-3.8159332	6.813858
1493777251197	-2.2322388	-9.505707	5.031418
1493777251197	1.2202606	-12.123764	3.5971832
1493777251197	3.313507	-11.995819	3.1100159
1493777251197	4.181183	-11.065872	2.094757
1493777251197	3.5861511	-10.750977	0.5756531
1493777251197	1.8640442	-10.2270355	0.16914368
1493777251197	0.15219116	-9.233978	0.48301697
1493777251197	-0.98535156	-9.09935	0.16343689
1493777251197	-0.8746033	-9.076828	-0.091674805
1493777251197	-0.17010498	-9.366104	0.21673584
1493777251197	-0.07191467	-8.88739	1.1971283
1493777251197	0.8271179	-8.905121	0.3152771
1493777251197	1.6650391	-9.298859	0.5697937
1493777251197	1.4966125	-9.345062	0.5885773
1493777251197	1.6377716	-9.793869	-0.06828308
1493777251197	2.1485138	-10.199524	-0.90393066
1493777251197	2.620453	-9.940811	-1.7530975
1493777251197	2.0720062	-10.590851	-1.4574127
1493777251197	-0.20758057	-11.218384	-1.1296539
1493777251197	0.5480499	-11.11647	-0.7732849
1493777251197	2.253296	-11.708191	-0.4519043
1493777251197	1.3326263	-12.44516	-1.879364
1493777251197	1.0565948	-13.813599	-3.9119873
1493777251197	2.8643188	-14.420319	-1.973999
1493777251198	2.3384247	-15.084595	-2.848236
1493777251198	0.56632996	-13.165405	-0.6251526
1493777251198	-2.9663696	-12.29451	1.1112671
1493777251198	-4.6826935	-12.546783	5.6758575
1493777251198	-5.1517334	-14.531921	3.5561981
1493777251198	-3.6005402	-15.6059265	0.051864624
1493777251198	-1.9911041	-15.16304	-2.2012482
1493777251198	3.4428558	-12.627502	0.94421387
1493777251198	3.4371185	-11.451691	0.58262634
1493777251198	1.58638	-9.15564	1.9768219
1493777251198	-0.37921143	-6.661911	2.6857452
1493777251198	-1.7903595	-5.842285	3.6766205
1493777251198	-2.5650024	-4.9987946	3.4410858
1493777251198	-2.607605	-4.1766205	2.7170258
1493777251198	-2.1293488	-3.62883	1.9190063
1493777251198	-2.1273499	-2.6741943	2.100174
1493777251198	-2.2719421	-1.4440918	2.6221313
1493777251198	-1.5982513	-1.0472412	2.495758
1493777251198	-0.8318634	-2.4882507	0.87971497
1493777251198	0.19569397	-7.1165314	-5.62088
1493777251198	0.5601196	-14.908173	-14.571747
1493777251198	-0.3269806	-19.474823	-17.780594
1493777251198	-0.37635803	-17.597626	-11.525955
1493777251198	-0.9206238	-8.983704	-4.531357
1493777251198	-1.844101	-0.14723206	-4.893158
1493777251198	-4.6128845	-1.5862579	-3.7532043
1493777251198	-6.58992	-10.406891	1.8033142
1493777251208	-1.7352905	-14.998093	4.041504
1493777251208	0.9560089	-15.84462	-1.5188446
1493777251208	0.13484192	-9.671265	2.183075
1493777251208	-0.99028015	-5.1391754	6.331909
1493777251209	0.72055054	-6.661499	4.0314636
1493777251209	2.6467285	-9.594284	3.0944824
1493777251209	3.2098694	-11.502869	3.6019135
1493777251209	3.0724182	-12.505722	2.3566437
1493777251209	3.1736908	-12.558502	0.7344818
1493777251209	0.21817017	-10.3526	-0.15722656
1493777251209	-1.3235474	-8.908722	0.44674683
1493777251209	-1.2371368	-9.112839	0.8811493
1493777251209	-0.3907318	-8.982819	0.6726837
1493777251209	0.18641663	-8.957321	0.54730225
1493777251209	0.22137451	-8.893906	-0.28529358
1493777251209	0.7812042	-8.820068	0.43011475
1493777251209	1.9389038	-8.723038	1.0449982
1493777251209	2.2042847	-9.631729	0.6298523
1493777251209	2.0838318	-10.515335	-0.35134888
1493777251209	2.5659943	-10.290543	-1.852829
1493777251209	3.0220642	-10.307175	-2.9423523
1493777251209	1.9602203	-10.848007	-1.2371521
1493777251209	-0.32450867	-11.507217	-1.7375641
1493777251209	0.7774811	-11.716568	-1.3437347
1493777251209	2.1758575	-12.021317	-0.5681
1493777251209	0.41101074	-13.089081	-3.2928467
1493777251209	1.6398468	-13.535202	-3.8882446
1493777251209	3.1669617	-14.984741	-1.9383392
1493777251209	1.4840088	-15.187424	-2.8548737
1493777251209	-0.40940857	-13.092987	1.7144775
1493777251209	-3.6021423	-11.74202	3.5315552
1493777251209	-4.599243	-13.488815	5.2817535
1493777251209	-4.82576	-15.1610565	0.8959503
1493777251209	-3.920868	-16.024506	-0.6785126
1493777251209	-2.6144104	-15.08017	-2.8259277
1493777251209	4.944977	-12.439728	0.34274292
1493777251209	4.3157196	-10.213318	1.5024872
1493777251209	1.2628326	-7.8485565	1.7631683
1493777251209	-0.33633423	-5.6305237	3.2239075
1493777251209	-1.8344269	-4.329117	3.9378815
1493777251209	-2.3291473	-3.6619568	3.6766052
1493777251209	-2.3595886	-2.9397736	3.2645416
1493777251209	-2.0589752	-2.4931488	2.780075
1493777251210	-2.158142	-1.8570557	2.5430298
1493777251210	-2.2586212	-1.5976105	1.7279358
1493777251210	-1.0156708	-3.0485535	0.27522278
1493777251210	0.14308167	-7.140732	-3.311554
1493777251210	-0.2632904	-14.354843	-12.409576
1493777251210	-1.0548859	-19.474823	-18.411453
1493777251210	0.026870728	-17.505524	-12.395905
1493777251210	-0.07585144	-10.611801	-5.13266
1493777251210	-0.69644165	-3.388855	-3.2208557
1493777251210	-3.1569214	-5.7417755	-5.4739075
1493777251210	-4.8246307	-14.229004	-4.470581
1493777251210	-0.53860474	-15.649689	3.416275
1493777251210	-0.6538849	-11.156509	2.758667
1493777251210	-3.6794739	-5.8666687	0.70695496
1493777251210	-1.1195068	-3.4532623	5.99527
1493777251210	1.8399658	-7.5763855	5.525589
1493777251210	3.0967407	-11.265472	3.138153
1493777251210	3.5483246	-12.421188	2.7164154
1493777251210	3.100891	-12.510208	1.9627838
1493777251210	2.4775696	-11.799988	0.7176666
1493777251210	0.7419586	-10.225433	0.11212158
1493777251210	-1.7490234	-8.724762	0.41157532
1493777251210	-1.7371368	-9.08223	0.58251953
1493777251210	-1.1316833	-9.325851	0.12530518
1493777251210	-0.4643097	-9.301788	0.14439392
1493777251210	-0.06036377	-8.703354	-0.079711914
1493777251210	0.256073	-8.332794	-0.042648315
1493777251210	1.4724731	-8.500626	0.9675598
1493777251210	1.69487	-9.181839	1.079361
1493777251210	1.4841003	-9.919861	0.21322632
1493777251210	2.0231476	-10.135422	-1.0832214
1493777251210	2.5207214	-10.288116	-2.3152466
1493777251210	1.9788971	-11.207367	-1.4853516
1493777251210	-0.38305664	-11.863266	-0.6813507
1493777251210	0.04425049	-11.598892	-0.7763214
1493777251210	1.9005737	-11.620392	-0.6808777
1493777251210	1.3407898	-12.73674	-2.4479218
1493777251210	2.4014893	-14.222534	-2.5370026
1493777251211	3.4711304	-15.148163	-1.2633972
1493777251211	1.9171143	-15.0004425	-2.4803162
1493777251211	-0.38485718	-12.637695	-0.51142883
1493777251211	-2.0374603	-11.256866	1.3696747
1493777251211	-4.092758	-11.8029785	5.0455017
1493777251211	-4.089813	-14.066971	2.9995575
1493777251211	-3.191742	-14.934204	-0.028076172
1493777251211	-3.0308075	-15.349518	-1.379425
1493777251211	2.8747406	-12.616043	1.7398224
1493777251211	3.8586273	-11.6970825	0.9497986
1493777251211	1.9325562	-9.396545	2.2484894
1493777251211	-0.34066772	-7.53743	2.6268158
1493777251211	-1.7714844	-6.0607452	3.754013
1493777251211	-2.7024384	-5.6646423	3.060608
1493777251211	-2.7279663	-4.8687286	2.7054138
1493777251211	-2.6323547	-3.9853973	2.2060852
1493777251211	-2.4788513	-3.1128998	2.4636536
1493777251211	-2.3217163	-1.9353638	2.5030823
1493777251211	-1.4130402	-1.3225098	1.9116821
1493777251211	-0.39015198	-3.0208588	0.17771912
1493777251211	0.13716125	-7.9747467	-4.898712
1493777251211	-0.8187561	-15.21077	-13.562241
1493777251211	-0.7110748	-19.474823	-18.340454
1493777251211	0.6990051	-16.00087	-12.158264
1493777251211	0.47465515	-8.095657	-4.12706
1493777251211	-0.87568665	-3.0561829	-2.9296722
1493777251211	-4.6998444	-8.523956	-3.8986816
1493777251211	-4.3041687	-16.398895	1.049057
1493777251211	-0.6780243	-17.16951	-0.71131897
1493777251211	-1.1354828	-8.963013	2.5324402
1493777251211	-3.3349	-0.65675354	5.0110016
1493777251213	-0.6194763	-3.0627594	4.779663
1493777251213	3.9330597	-10.219376	5.1523438
1493777251213	5.3078766	-14.093338	3.145996
1493777251213	3.510849	-14.056412	2.5868683
1493777251213	2.461731	-12.609909	1.8626862
1493777251213	0.4816742	-10.416336	0.34413147
1493777251213	-1.9452667	-8.9574585	0.0710907
1493777251213	-1.1071625	-9.104431	1.0971222
1493777251213	-1.019165	-9.394165	0.96951294
1493777251213	-1.2899475	-9.107361	0.6445465
1493777251213	-0.9197693	-8.994812	0.48590088
1493777251213	0.1085968	-8.388855	-0.45422363
1493777251213	0.54345703	-8.194717	0.12712097
1493777251213	1.4831085	-8.649261	1.3317413
1493777251213	1.7936707	-9.989487	1.297348
1493777251213	2.167038	-10.754532	-0.1878357
1493777251213	2.8381348	-10.179489	-1.9617462
1493777251213	2.2543488	-10.837814	-2.443985
1493777251213	0.9213867	-11.740402	-1.35289
1493777251213	0.41236877	-11.63443	-1.3834076
1493777251213	2.5494232	-12.111832	-1.8202362
1493777251213	2.9591827	-11.837738	-2.6229858
1493777251213	1.9076233	-12.398956	-4.7295837
1493777251213	4.0113373	-14.87294	-2.1955261
1493777251213	1.6604462	-16.19339	-2.5809937
1493777251213	-0.08337402	-13.875519	-1.195404
1493777251213	-2.7689362	-13.032425	2.3557434
1493777251213	-2.8770905	-12.5837555	6.4650726
1493777251213	-4.322296	-14.009201	4.013733
1493777251213	-4.133301	-15.808334	0.4614563
1493777251213	-2.394516	-16.49443	-1.7632294
1493777251213	4.080765	-13.159576	-0.18882751
1493777251213	3.3240356	-10.99707	1.0281677
1493777251213	0.41236877	-8.209244	1.4137726
1493777251213	-1.08461	-5.69606	2.7162628
1493777251213	-1.0619354	-4.6712494	3.5938416
1493777251213	-1.4678802	-4.410019	2.6120453
1493777251214	-1.3370819	-3.9055634	1.7718658
1493777251214	-1.3107758	-3.4812012	1.2334747
1493777251214	-2.0648499	-2.7511444	2.0851746
1493777251214	-2.492813	-1.9124298	2.6051636
1493777251214	-1.438797	-1.9455719	1.9928589
1493777251214	-0.23710632	-3.6415863	0.13476563
1493777251214	-0.1486969	-8.043442	-3.9651337
1493777251214	-1.9745331	-15.098434	-12.252304
1493777251214	-0.5677948	-19.474823	-18.754196
1493777251214	2.2522888	-17.920761	-13.286087
1493777251214	1.2342987	-11.025574	-4.616913
1493777251214	0.37330627	-2.6904907	-3.051056
1493777251214	-2.4078827	-3.4016113	-4.4586487
1493777251214	-4.5706787	-12.323303	-0.7982025
1493777251214	-1.6091461	-17.364365	4.083786
1493777251214	-1.5204773	-14.625931	-0.8514099
1493777251214	-3.569809	-6.3129272	1.3677521
1493777251214	-3.2138977	-2.317566	7.292282
1493777251214	0.8119507	-6.9223785	5.796417
1493777251214	3.5925293	-11.374207	3.6919708
1493777251214	4.007126	-12.715317	2.9846191
1493777251214	3.7453308	-12.640396	2.4437714
1493777251214	3.05661	-11.787933	0.5890503
1493777251214	0.67266846	-10.100388	-0.8116913
1493777251214	-0.7245178	-8.85379	0.6888275
1493777251214	-0.3807068	-8.969986	1.1814423
1493777251214	-0.45307922	-8.914322	0.2727356
1493777251214	-0.52308655	-8.78186	0.5611725
1493777251214	-0.018051147	-9.341187	-0.26281738
1493777251214	0.62483215	-9.306717	0.032333374
1493777251214	1.4715424	-8.676331	0.79963684
1493777251214	2.2015533	-9.132706	0.6085663
1493777251214	2.312683	-10.181564	-0.10346985
1493777251214	2.6987457	-9.929855	-1.5667267
1493777251214	2.6721954	-9.747269	-2.0646667
1493777251214	1.6345367	-10.785553	-1.0006866
1493777251214	-0.14411926	-10.942108	-0.36984253
1493777251214	0.45210266	-11.264145	0.18171692
1493777251214	2.1332092	-11.946823	0.21479797
1493777251214	0.59098816	-13.128479	-2.2144928
1493777251214	1.2008972	-13.478165	-2.4843292
1493777251215	2.4762878	-14.692459	-2.1282654
1493777251215	2.493454	-15.288757	-3.153061
1493777251215	-0.3525238	-13.409149	-2.24852
1493777251215	-2.816681	-11.729843	1.6445618
1493777251215	-4.9156647	-11.710022	4.682953
1493777251215	-5.297455	-13.801468	4.100067
1493777251215	-4.7540894	-14.6636505	-0.13214111
1493777251215	-4.5779114	-15.434143	-1.8578033
1493777251215	1.8346558	-13.117355	1.0064392
1493777251215	3.8982239	-11.835236	0.65478516
1493777251215	2.078247	-9.378494	1.4576569
1493777251215	-0.083602905	-6.8977203	2.131897
1493777251215	-1.9015503	-5.6696167	3.129303
1493777251215	-2.4773254	-5.3294983	3.0652466
1493777251215	-2.5907745	-4.688553	2.3970795
1493777251215	-2.0798492	-4.2747498	1.8280945
1493777251215	-1.9934387	-3.7146606	1.7983398
1493777251215	-2.4543152	-2.5947418	2.3105469
1493777251215	-1.946106	-1.884903	2.431137
1493777251215	-1.0653992	-2.3200989	1.3040771
1493777251215	-0.53422546	-5.3796234	-1.5787811
1493777251215	-0.18856812	-13.213867	-10.811417
1493777251215	0.18640137	-19.474823	-18.301605
1493777251215	0.39305115	-19.398895	-13.261368
1493777251215	0.09680176	-12.577576	-7.2652283
1493777251215	-0.31173706	-1.4969482	-3.475937
1493777251215	-2.953186	-1.6119843	-1.5644073
1493777251215	-4.498108	-10.32753	2.2331085
1493777251215	-1.6933746	-17.136658	4.619934
1493777251215	-1.5608368	-15.997055	-5.991104
1493777251215	-0.85739136	-7.4839935	1.2185364
1493777251215	-2.0082703	-2.9057007	9.634323
1493777251215	-0.9543915	-7.320587	4.292465
1493777251215	3.4276276	-11.364014	2.7927094
1493777251215	4.7301025	-12.225983	3.3868866
1493777251215	3.7420654	-12.07695	1.9259033
1493777251215	2.8576202	-11.93988	0.72003174
1493777251215	0.82948303	-10.7260895	0.10670471
1493777251215	-1.4044647	-9.288498	-0.082733154
1493777251215	-1.3921814	-9.082977	0.68444824
1493777251215	-1.0751038	-8.943527	0.21186829
1493777251216	-0.38659668	-8.887741	-0.22201538
1493777251216	0.128479	-8.400299	-0.13121033
1493777251216	0.44129944	-8.199692	0.7115631
1493777251216	1.0061188	-8.319733	1.4186401
1493777251216	1.0852509	-8.619736	1.7394867
1493777251216	1.1245728	-9.255112	0.5277252
1493777251216	1.8107758	-9.841537	-1.0116577
1493777251216	2.4021606	-10.166916	-3.1306458
1493777251216	2.6544495	-10.762405	-1.7160187
1493777251216	1.6503143	-11.652557	1.6688538
1493777251216	0.5079498	-12.351791	-0.34443665
1493777251216	1.7979431	-12.983994	-1.0422668
1493777251216	0.69299316	-13.113129	-3.234253
1493777251216	0.24130249	-12.825531	-3.2961426
1493777251216	2.4546661	-13.484695	-1.4450073
1493777251216	2.9996643	-14.223816	-2.4734955
1493777251216	-0.12646484	-14.5238495	-3.83844
1493777251216	-1.4707031	-12.240021	2.462204
1493777251216	-3.1946716	-11.312775	3.7873077
1493777251216	-3.847824	-13.006973	3.8300018
1493777251216	-3.9985352	-14.197617	-0.005004883
1493777251216	-3.2299805	-14.445847	-1.0564728
1493777251216	0.64430237	-12.802475	0.16748047
1493777251216	3.138733	-11.722443	-0.14764404
1493777251216	2.5687256	-10.005432	1.6994171
1493777251216	0.3677826	-8.069214	1.8256226
1493777251216	-0.8274536	-6.556061	2.9585571
1493777251216	-1.6855011	-6.4209595	2.7881012
1493777251216	-1.9324646	-5.6481476	2.5911255
1493777251216	-1.9353943	-5.0035706	2.1134186
1493777251216	-2.2359009	-3.9898224	2.284668
1493777251216	-2.626114	-2.5109863	2.4561615
1493777251216	-1.7874451	-1.6904755	2.2085419
1493777251216	-0.9999542	-2.3982239	0.96125793
1493777251216	-0.17289734	-5.524048	-1.9050903
1493777251216	-0.14414978	-11.984802	-9.777725
1493777251216	-0.816864	-18.165665	-17.064316
1493777251216	0.24128723	-19.474823	-13.973923
1493777251216	0.8670349	-13.978653	-7.4018707
1493777251216	0.49147034	-3.7158508	-3.5594635
1493777251217	-3.109436	-3.2970734	-2.2524567
1493777251217	-6.8777466	-11.945709	0.87260437
1493777251217	-4.2633514	-17.226318	3.2259064
1493777251217	-0.970871	-14.742767	-5.8786774
1493777251217	1.2430115	-6.5469666	3.0652008
1493777251217	-1.4036255	-2.6739655	9.371429
1493777251217	-1.0314941	-7.508484	4.8437347
1493777251217	3.553421	-11.252106	4.3304596
1493777251217	5.5286255	-12.37561	3.9692993
1493777251217	4.1143036	-12.112732	2.8197937
1493777251217	2.6578522	-11.749359	1.7065582
1493777251217	1.1709747	-10.884201	0.992157
1493777251217	-1.01091	-9.346802	0.38180542
1493777251217	-1.9409637	-8.833008	0.7422638
1493777251217	-1.9458771	-9.039902	0.33317566
1493777251217	-0.88656616	-8.769882	0.35594177
1493777251217	0.33415222	-8.373398	0.78460693
1493777251217	0.40361023	-8.51268	2.2180023
1493777251217	0.7978821	-9.00705	1.2568054
1493777251217	1.3693848	-9.516632	0.8036499
1493777251217	1.2948914	-9.536301	-0.35507202
1493777251217	1.80719	-10.040497	-1.178482
1493777251217	2.7960052	-10.496368	-1.9713745
1493777251217	3.4592896	-10.27182	-1.7575531
1493777251217	2.418045	-10.300751	-1.3752289
1493777251217	1.0326385	-10.662201	0.068603516
1493777251217	0.41229248	-11.300552	0.02519226
1493777251217	-0.27386475	-11.442078	-0.17010498
1493777251217	-2.237503	-12.405762	-1.7853088
1493777251217	-1.6783905	-13.260361	-3.7071228
1493777251217	3.2566986	-14.334381	-1.1988068
1493777251217	5.4492645	-16.196472	-2.0820618
1493777251217	3.105957	-14.025772	0.006515503
1493777251217	-3.5036469	-12.24559	2.3914032
1493777251217	-5.242401	-11.556046	3.3891602
1493777251217	-3.3451385	-13.187012	4.4821167
1493777251217	-1.7675476	-15.125534	1.6317139
1493777251217	-2.4149323	-16.64737	-0.19429016
1493777251217	-2.7697296	-14.535187	-0.77575684
1493777251218	1.8917542	-12.10585	1.5904541
1493777251218	2.0435028	-9.952911	3.332962
1493777251218	-0.72062683	-7.638214	2.906845
1493777251218	-1.8605652	-6.3972626	3.5153503
1493777251218	-2.176773	-5.613571	3.260666
1493777251218	-2.0785675	-4.7256775	3.055252
1493777251218	-2.1568756	-4.465332	2.431549
1493777251218	-1.5847778	-3.8957062	2.396988
1493777251218	-1.4091034	-3.0631409	2.8411865
1493777251218	-1.301651	-2.0424652	2.582962
1493777251218	-1.0125885	-1.8260956	1.3570709
1493777251218	-0.7056732	-3.8930511	-0.8963165
1493777251218	-0.5896454	-9.470291	-8.858353
1493777251218	-1.0487366	-16.64502	-16.71083
1493777251218	-0.059005737	-19.474823	-13.9339905
1493777251218	0.42037964	-14.547562	-8.857513
1493777251218	-1.128479	-3.7813263	-4.4270477
1493777251218	-3.6300354	0.23576355	-3.4912567
1493777251218	-6.6449585	-7.809067	-3.012909
1493777251218	-2.4730377	-17.200516	0.77474976
1493777251218	3.6706085	-17.038727	-4.3020782
1493777251218	2.2542114	-7.6464844	2.3629303
1493777251218	-4.802948	-1.32724	6.6650085
1493777251218	-4.1938477	-4.837555	3.6999817
1493777251218	2.1936798	-10.808853	4.234558
1493777251218	6.442856	-14.072037	4.1187286
1493777251218	5.04274	-14.318726	2.1751099
1493777251218	2.5497131	-11.573273	1.2059631
1493777251218	0.98695374	-9.856583	1.1567078
1493777251218	-1.2783356	-9.523773	0.53482056
1493777251218	-2.057724	-9.813339	0.56889343
1493777251218	-1.2293243	-10.405823	0.10044861
1493777251218	-0.07572937	-9.349014	-0.6926727
1493777251218	-0.13246155	-8.303284	0.012069702
1493777251218	-0.16134644	-7.615082	0.68356323
1493777251218	0.9327698	-8.094681	1.7883301
1493777251218	1.5191803	-8.852982	1.9181061
1493777251218	1.2077789	-8.98114	1.4096527
1493777251218	1.1138153	-9.0230255	0.3166809
1493777251219	1.4711761	-9.123383	-1.0277405
1493777251219	1.6865997	-9.636124	-2.184372
1493777251219	1.2347107	-10.911011	-2.1324768
1493777251219	0.017181396	-11.749725	-1.9976196
1493777251219	0.6974335	-11.943314	-2.0537567
1493777251219	1.4180756	-12.113678	-1.4040375
1493777251219	0.11489868	-12.604767	-3.0282288
1493777251219	1.4127197	-14.890396	-4.150833
1493777251219	1.8135376	-15.274384	-2.6120605
1493777251219	1.7731781	-15.403854	-1.3832092
1493777251219	-0.118133545	-13.711945	0.77749634
1493777251219	-2.3201904	-12.33783	4.627777
1493777251219	-4.729233	-13.834457	4.7742615
1493777251219	-4.24852	-15.2682495	2.2756958
1493777251219	-2.818924	-14.722046	-0.116378784
1493777251219	-2.7340698	-12.85965	-1.5261688
1493777251219	2.1262207	-11.378494	2.048767
1493777251219	2.7302704	-10.414322	1.026123
1493777251219	1.2350464	-8.396225	2.3318787
1493777251219	-0.46165466	-7.009094	2.5100403
1493777251219	-1.104538	-6.0782623	3.4488983
1493777251219	-2.2147827	-4.8442993	3.695572
1493777251219	-2.8563995	-4.105011	3.3236542
1493777251219	-3.0727692	-3.6871948	2.4565125
1493777251219	-2.7711182	-3.185318	2.3644714
1493777251219	-2.7236633	-2.423294	2.4181976
1493777251219	-1.9233551	-2.4446564	2.3526154
1493777251219	-0.8356018	-4.0991974	1.1617126
1493777251219	-0.10298157	-8.198257	-3.0868683
1493777251219	-0.44769287	-15.050461	-12.55127
1493777251219	-0.43841553	-19.474823	-18.606339
1493777251219	0.6048126	-15.889709	-13.260803
1493777251219	0.6462555	-4.9928894	-5.429489
1493777251219	-1.5339966	0.3129425	-1.5777435
1493777251219	-4.8742523	-8.944397	1.1833801
1493777251219	-3.011795	-18.523605	1.2266846
1493777251219	-0.516098	-16.796936	-6.41568
1493777251219	0.05708313	-7.1688232	4.7210846
1493777251219	-4.191391	-1.9177246	10.849136
1493777251219	-3.8618622	-6.501251	5.6003265
1493777251219	2.3357544	-11.768539	4.287735
1493777251220	6.723419	-13.906906	3.810257
1493777251220	5.42157	-13.857956	2.7902527
1493777251220	1.764679	-12.121002	1.4833832
1493777251220	-0.5055847	-10.281479	0.13771057
1493777251220	-2.555954	-9.407654	-0.92048645
1493777251220	-2.5853577	-8.815979	-0.49830627
1493777251220	-1.4503326	-8.729172	-0.13258362
1493777251220	-0.20936584	-8.609436	-0.029876709
1493777251220	0.5258789	-8.093262	0.59303284
1493777251220	0.6026306	-7.9957733	0.878067
1493777251220	1.3927917	-8.8013	0.6906433
1493777251220	1.497818	-9.40036	-0.056747437
1493777251220	1.3060455	-9.193329	-0.9324951
1493777251220	1.4581451	-9.357269	-1.3709717
1493777251220	1.6637115	-9.9086	-1.8215027
1493777251220	1.6889648	-10.800018	-2.2739258
1493777251220	0.57466125	-11.422104	-2.2493591
1493777251220	-0.097854614	-11.605835	-2.8327332
1493777251220	1.32164	-11.527191	-1.8973694
1493777251220	1.2320709	-11.818039	-1.6686554
1493777251220	1.1578674	-13.223709	-3.5895233
1493777251220	1.9035339	-15.8508	-2.3134766
1493777251220	1.4325867	-15.473419	-2.2367706
1493777251220	2.3175201	-13.894562	0.6567993
1493777251220	0.46551514	-13.264191	3.0324097
1493777251220	-4.0920258	-12.608887	2.502533
1493777251220	-4.568466	-13.591003	3.8967133
1493777251220	-3.0489044	-14.279083	3.6715088
1493777251220	-0.33607483	-13.456375	1.082367
1493777251220	2.1080933	-11.790787	-0.0867157
1493777251220	3.2367249	-10.304413	0.126297
1493777251220	3.047821	-9.663345	1.7384949
1493777251220	0.30555725	-8.845978	2.508133
1493777251220	-1.1972046	-7.8678284	3.7337036
1493777251220	-2.2756653	-7.2567444	3.620163
1493777251221	-2.3923492	-6.6588287	3.2840424
1493777251221	-1.9620972	-5.876114	2.7758331
1493777251221	-2.0122223	-4.8816986	2.4805298
1493777251221	-2.3427582	-3.726059	2.3096771
1493777251221	-2.3574371	-3.3784637	2.1261444
1493777251221	-1.1745605	-4.8148346	1.1218414
1493777251221	0.58909607	-7.960312	-1.239914
1493777251221	-1.0323486	-12.417404	-5.0894165
1493777251221	-5.0970917	-16.37819	-10.665756
1493777251221	-3.677658	-16.943802	-14.414078
1493777251221	1.6722412	-13.450867	-8.328384
1493777251221	2.2583008	-8.250885	-0.9988098
1493777251221	0.50180054	-4.549515	-1.511734
1493777251221	-1.9535828	-9.5242	-4.4683228
1493777251221	-2.5788116	-17.43016	0.31175232
1493777251221	-1.9267273	-18.884583	0.0440979
1493777251221	0.024139404	-11.827759	-2.4416351
1493777251222	2.9052124	-2.687729	9.056931
1493777251222	0.6565552	-2.7473907	6.503174
1493777251222	0.2735138	-9.199066	1.4172821
1493777251222	2.7803955	-13.6054535	2.5307312
1493777251222	1.7893524	-12.973953	1.6290894
1493777251222	-2.9116058	-9.868423	-0.25875854
1493777251222	-3.282959	-8.248444	-1.2563934
1493777251222	-1.1769257	-8.831772	-0.39689636
1493777251222	0.6658325	-9.950989	0.48350525
1493777251222	1.0998077	-10.014755	0.7790985
1493777251222	0.6983948	-9.470428	0.63053894
1493777251222	0.29180908	-8.9631195	0.76171875
1493777251222	-0.44607544	-9.017868	0.5325775
1493777251222	-0.40802002	-9.190857	1.1508026
1493777251222	-1.359314	-9.11116	1.8269501
1493777251222	-2.3550568	-8.981247	1.852066
1493777251222	-1.654419	-9.044601	2.2493896
1493777251222	-0.92030334	-9.551056	1.5404816
1493777251222	-0.3449402	-11.077881	0.046722412
1493777251222	0.52856445	-12.261047	0.5079498
1493777251222	0.48538208	-12.694183	-0.38459778
1493777251222	0.8046112	-11.200104	-1.7960358
1493777251222	2.6878204	-9.176895	1.4420624
1493777251222	0.26004028	-8.488098	1.2826233
1493777251222	-2.2727814	-8.569519	1.5968628
1493777251222	-0.5410614	-8.968094	3.4176483
1493777251222	0.59339905	-9.634735	4.1546173
1493777251222	0.40652466	-9.465698	3.840332
1493777251222	0.20033264	-9.289413	2.9184875
1493777251222	0.40968323	-9.488113	2.6843262
1493777251222	-0.2579651	-9.882751	1.9858246
1493777251222	-1.0032654	-10.212128	1.8504944
1493777251222	-1.0848236	-10.469208	1.9458923
1493777251222	-0.7018738	-10.255981	2.1500244
1493777251222	-0.22749329	-9.87767	2.524887
1493777251222	-0.12440491	-9.584152	2.7536163
1493777251222	-0.15559387	-9.590103	2.776657
1493777251222	-0.0859375	-9.810776	2.8463287
1493777251222	-0.17185974	-10.094727	2.6454926
1493777251222	-0.21606445	-10.206512	2.2052002
1493777251223	-0.33825684	-9.998184	2.0072937
1493777251223	-0.5319061	-9.76004	1.674408
1493777251223	-0.50971985	-9.745514	1.2358246
1493777251223	-0.046569824	-9.783737	1.130722
1493777251223	0.55451965	-9.905136	1.4321136
1493777251223	0.66067505	-10.627975	1.4375305
1493777251223	0.50172424	-11.577942	1.4205017
1493777251223	0.16572571	-12.008972	1.2168732
1493777251223	-0.2775421	-11.72435	0.7453003
1493777251223	-0.8381653	-11.361328	0.26379395
1493777251223	-1.2350769	-11.234634	0.03302002
1493777251223	-1.6096802	-11.210297	0.251297
1493777251223	-1.9451141	-11.045563	0.5009613
1493777251223	-1.8232422	-10.345566	0.7642822
1493777251223	-1.3144531	-9.231064	0.69595337
1493777251223	-1.2099304	-9.1063385	1.0765686
1493777251223	-1.5331116	-9.835403	1.8185577
1493777251223	-2.0712128	-10.39444	1.4396973
1493777251223	-2.0935516	-10.823242	0.5974426
1493777251223	-1.7848206	-10.590698	0.16343689
1493777251223	-0.39715576	-10.223358	0.635376
1493777251223	0.53959656	-9.6792145	1.3889465
1493777251223	-0.79893494	-9.414413	0.37756348
1493777251223	-1.6640625	-9.668488	-0.030899048
1493777251223	-2.0387878	-9.6167755	-0.14405823
1493777251223	-2.5090027	-9.153503	0.12371826
1493777251223	-2.6482086	-8.5520935	0.0680542
1493777251223	-3.0059204	-7.9517975	-0.07003784
1493777251223	-3.3403168	-7.16716	-0.047302246
1493777251223	-3.4020386	-6.5224	0.028549194
1493777251223	-2.429947	-6.218918	-0.009552002
1493777251223	-1.2168884	-6.125519	0.059326172
1493777251223	-0.53860474	-5.8312836	-0.50057983
1493777251223	0.20579529	-5.9857635	-1.56427
1493777251223	1.2469788	-7.2395782	-2.9755096
1493777251223	2.5431976	-9.080246	-4.2503204
1493777251223	2.36409	-10.98613	-5.4287415
1493777251223	0.8139496	-12.042038	-6.904999
1493777251223	-0.15708923	-12.919785	-9.093018
1493777251224	-0.28416443	-13.075226	-7.495178
1493777251224	-0.85939026	-10.766159	-6.058502
1493777251224	-1.7702789	-6.8499603	-4.250061
1493777251224	-2.7875977	-4.2445984	-1.4090729
1493777251224	-3.4636536	-5.7963104	1.7928162
1493777251224	-3.8552246	-12.920807	4.5878143
1493777251224	-3.852417	-17.996338	3.9898834
1493777251224	-1.7432709	-17.119705	-1.3834229
1493777251224	-0.16615295	-11.504562	-4.2374268
1493777251224	-0.44192505	-7.878952	-4.4455414
1493777251224	0.41549683	-4.71138	0.52456665
1493777251224	1.2375183	-5.2260284	2.8177795
1493777251224	0.9248047	-8.780441	3.6371918
1493777251224	0.72169495	-11.299072	3.9430542
1493777251224	1.0125427	-11.8828125	2.613327
1493777251224	1.140686	-11.249405	-0.08666992
1493777251224	0.9361572	-10.315842	-2.0498962
1493777251224	0.41522217	-10.093445	-1.5557861
1493777251224	0.085861206	-10.159454	-0.62101746
1493777251224	-0.3958435	-9.900421	0.7264404
1493777251224	-0.8772125	-9.851059	1.7352448
1493777251224	-0.88249207	-9.968124	2.0882874
1493777251224	-0.96687317	-9.6098175	2.0052948
1493777251224	-0.8256836	-9.517685	1.6725922
1493777251224	-0.4340515	-9.797623	1.8656311
1493777251224	-0.099090576	-10.186493	2.0761871
1493777251224	-1.2207031E-4	-10.141449	1.8483276
1493777251224	-0.19836426	-9.802521	1.3833771
1493777251224	-0.23835754	-9.613617	1.3622284
1493777251224	-0.18441772	-9.661667	1.8255157
1493777251224	-0.53208923	-9.683044	1.7568207
1493777251224	-0.5003967	-9.839188	1.5502014
1493777251224	-0.14756775	-10.105499	1.8102417
1493777251224	-0.18276978	-10.337814	1.7597046
1493777251224	-0.72761536	-10.124207	1.0222626
1493777251224	-0.8925476	-9.893448	-0.064956665
1493777251224	-0.4252472	-9.843277	-0.3407898
1493777251224	0.0017089844	-9.802887	-0.23110962
1493777251225	-0.023452759	-9.774963	-0.06550598
1493777251225	-0.269104	-9.626511	0.5074768
1493777251225	-0.96681213	-9.440872	1.0084991
1493777251225	-1.5534058	-9.3385315	0.85069275
1493777251225	-1.2943268	-9.454437	0.5671234
1493777251225	-0.7140045	-9.635162	0.5827637
1493777251225	-0.6442871	-9.742111	0.5574646
1493777251225	-0.7227478	-9.767685	0.35510254
1493777251225	-0.6130371	-10.023529	-0.34902954
1493777251225	-0.27215576	-10.161362	-1.4310303
1493777251225	1.2227173	-10.62561	-2.2232819
1493777251225	2.400177	-12.169647	-1.1866455
1493777251225	2.4919739	-13.715546	-0.49284363
1493777251225	1.7536621	-12.937729	1.6628876
1493777251225	-2.228485	-11.734802	1.0669556
1493777251225	-4.6744995	-10.653122	0.28652954
1493777251225	-3.6756897	-10.178009	0.13659668
1493777251225	-2.3831635	-9.514572	0.22740173
1493777251225	-1.5997162	-9.825684	1.0127563
1493777251225	-0.86376953	-11.415009	1.6930695
1493777251225	-0.5697937	-12.877014	2.5507202
1493777251225	-1.1457367	-12.717209	3.2381897
1493777251225	-1.9460907	-10.998047	2.5567474
1493777251225	-1.0505219	-9.72403	0.89372253
1493777251225	-1.309433	-8.2146	-0.45663452
1493777251225	-1.8729553	-6.7275696	-0.7659607
1493777251225	-1.959259	-6.428192	-0.50061035
1493777251225	-1.6268005	-7.257431	-0.24943542
1493777251225	-1.4582977	-7.7746277	0.09062195
1493777251225	-1.4355164	-7.943741	0.25741577
1493777251225	-1.9613037	-8.087433	0.21279907
1493777251225	-2.4963684	-8.448273	0.0025482178
1493777251225	-2.636734	-8.983215	-0.7406006
1493777251225	-2.160614	-9.611496	-2.0050201
1493777251225	-1.7937622	-10.065887	-3.1285248
1493777251225	-2.0399323	-10.024368	-3.903534
1493777251225	-2.5459747	-9.758881	-4.8535767
1493777251225	-2.7535553	-9.490402	-5.68808
1493777251226	-2.5675507	-9.369644	-5.181244
1493777251226	-2.3335266	-9.4713745	-3.3768768
1493777251226	-2.4280548	-9.6519165	-1.972702
1493777251226	-3.0001526	-9.732681	-2.3159485
1493777251226	-3.548462	-9.553665	-3.0572357
1493777251226	-3.4947662	-9.098999	-2.8166962
1493777251226	-3.6169586	-8.653046	-2.5202637
1493777251226	-4.140442	-8.259293	-2.5134583
1493777251226	-4.3805084	-7.7660522	-1.6793365
1493777251226	-3.9890747	-7.514862	-0.52641296
1493777251226	-3.25914	-7.6182556	-0.6882019
1493777251226	-2.7504883	-7.8139496	-1.542984
1493777251226	-2.43161	-7.8728943	-1.7962036
1493777251226	-2.2962341	-8.058395	-1.7813416
1493777251226	-2.4860992	-8.416672	-1.402832
1493777251226	-2.9717712	-8.565689	-1.0366821
1493777251226	-3.5237885	-8.484497	-0.90275574
1493777251226	-4.083023	-8.619278	-1.1945953
1493777251226	-4.118515	-8.823471	-1.5193939
1493777251226	-3.5397186	-8.933334	-1.5188446
1493777251226	-2.8828278	-8.856064	-1.6358643
1493777251226	-2.3518066	-8.839981	-1.5923767
1493777251226	-2.076477	-9.327515	-1.7502441
1493777251226	-2.528122	-10.598511	-2.4151154
1493777251226	-2.8130646	-10.882721	-2.6123505
1493777251226	-1.566742	-10.616974	-3.08313
1493777251226	0.11155701	-10.2009735	-3.2514496
1493777251226	-0.09370422	-9.800751	-1.8917389
1493777251226	-0.6227112	-9.691132	-0.73628235
1493777251226	-2.3247375	-11.143173	-0.6971588
1493777251226	-3.607376	-12.681854	-1.0448303
1493777251226	-2.9571533	-10.7939	-2.5598755
1493777251226	-2.559723	-8.724472	-0.40368652
1493777251226	-2.0654755	-8.560425	1.1799927
1493777251227	-1.077774	-8.924011	1.2188263
1493777251227	0.23847961	-9.464813	1.4483948
1493777251227	0.830246	-10.124512	1.6319733
1493777251227	0.44317627	-9.823532	0.17875671
1493777251227	-0.118255615	-10.051178	0.9225464
1493777251227	-0.3094635	-9.698715	0.6843567
1493777251227	-0.7688751	-9.798782	0.40621948
1493777251227	1.2372894	-10.146698	0.86177063
1493777251227	1.0830688	-9.90097	0.8218384
1493777251227	0.18939209	-9.678116	0.69480896
1493777251227	0.38415527	-8.85849	0.9936676
1493777251227	1.3827515	-8.795425	0.7995453
1493777251227	2.3170166	-9.32608	0.40826416
1493777251227	2.2388916	-9.76947	0.20658875
1493777251227	1.780838	-9.839325	0.24601746
1493777251227	1.0151062	-9.816757	0.10197449
1493777251227	0.5431061	-9.721161	0.13407898
1493777251227	0.4779358	-9.466949	0.09686279
1493777251227	0.50468445	-8.999756	0.3100891
1493777251227	0.43011475	-8.96405	0.7999115
1493777251227	0.16122437	-9.259186	0.7861481
1493777251227	0.35455322	-9.481094	0.7196808
1493777251227	0.7810211	-9.8954315	1.0553589
1493777251227	0.7008362	-10.537781	1.4651337
1493777251227	0.47384644	-11.20665	1.8636475
1493777251227	0.40350342	-11.730026	1.6244812
1493777251227	0.75071716	-11.62764	0.81144714
1493777251227	1.4188843	-11.458252	0.53756714
1493777251227	1.6443787	-11.601242	0.46228027
1493777251227	1.4446106	-12.142883	-0.41836548
1493777251227	1.7868805	-12.566727	-0.97335815
1493777251227	2.3593445	-12.414337	-1.2404938
1493777251227	2.2723694	-13.290848	-1.5899963
1493777251227	2.348709	-12.51767	-1.8651123
1493777251227	1.4199829	-11.596481	-1.7922058
1493777251227	-0.67048645	-11.129868	-1.7484589
1493777251227	-3.287323	-10.949448	-1.1026459
1493777251227	-4.59964	-10.977631	-0.3559265
1493777251227	-4.4595337	-11.21521	1.0987854
1493777251228	-3.8834076	-11.654526	3.055542
1493777251228	-2.7300873	-12.406387	3.6627655
1493777251228	-0.65605164	-11.619034	1.9458771
1493777251228	-0.19700623	-10.856354	-0.693161
1493777251228	0.6700592	-11.34288	-1.8787537
1493777251228	2.7541656	-11.227493	-0.4315338
1493777251228	1.4454346	-9.040161	0.65400696
1493777251228	-0.5235443	-7.4767456	1.5445709
1493777251228	-2.0642395	-6.906418	1.9335022
1493777251228	-2.31221	-7.0963745	1.2711029
1493777251228	-1.3753357	-6.9768677	0.4941864
1493777251228	-0.44525146	-6.959091	-0.21385193
1493777251228	-0.6769562	-5.721405	0.28302002
1493777251228	-1.9068451	-4.0972137	1.0796967
1493777251228	-1.8657379	-3.741867	1.7658386
1493777251228	-0.7221985	-4.015579	1.370758
1493777251228	-0.63168335	-4.505783	0.21813965
1493777251228	-0.70539856	-5.7796326	-1.7248993
1493777251228	0.25735474	-9.57634	-6.0924377
1493777251228	2.3773193	-14.251251	-12.01474
1493777251228	2.8750153	-19.474823	-16.435135
1493777251228	3.0196228	-18.326965	-10.777115
1493777251228	-0.27418518	-10.319717	-6.586975
1493777251228	-0.80807495	-3.1691437	-4.429123
1493777251233	-2.4305267	-3.6066437	-0.6920624
1493777251233	-3.7353668	-13.187912	3.6422882
1493777251233	-1.4626923	-18.341492	5.2914276
1493777251233	-0.5189209	-15.544373	-3.1473846
1493777251233	-1.9082947	-10.068283	-8.542206
1493777251233	-1.496109	-3.1821747	1.7847595
1493777251233	-1.6680145	0.66796875	11.395493
1493777251233	-2.1956482	-7.962921	3.6342773
1493777251233	3.764557	-13.43013	1.8205261
1493777251233	5.074005	-13.927383	4.088623
1493777251233	3.1450806	-12.329498	3.1087189
1493777251233	0.90335083	-10.573944	1.0373383
1493777251233	-0.70628357	-9.466217	-0.0035095215
1493777251233	-0.63371277	-9.278397	0.6499939
1493777251233	-0.11555481	-8.808289	1.4413605
1493777251233	-0.73101807	-9.013931	0.75761414
1493777251233	-0.6539612	-8.972366	0.38069153
1493777251233	-0.39311218	-8.511032	0.6215973
1493777251233	-0.0574646	-8.204178	1.3792572
1493777251233	0.3778534	-8.34053	2.1783752
1493777251233	0.556427	-8.649277	1.979065
1493777251233	0.45100403	-9.152313	0.8984375
1493777251233	0.3235016	-9.459946	-0.29553223
1493777251233	0.42149353	-9.88327	-0.9386139
1493777251233	0.2523346	-10.61084	-0.57380676
1493777251233	-0.13121033	-11.483139	0.08467102
1493777251233	0.57844543	-12.288925	0.19721985
1493777251233	1.0821838	-12.26535	0.14961243
1493777251233	0.026611328	-12.511353	-0.55892944
1493777251233	-0.22462463	-13.57312	-2.2186432
1493777251233	1.8552094	-14.220108	-1.9004822
1493777251233	2.5970917	-14.582779	-0.9070282
1493777251233	1.4557495	-14.317062	-2.4026337
1493777251233	-2.153473	-13.11496	-0.84391785
1493777251233	-4.262985	-11.426285	-0.12940979
1493777251233	-4.296997	-10.535843	3.7681885
1493777251233	-3.7155914	-11.929565	4.658127
1493777251234	-2.5728607	-13.272125	2.2093658
1493777251234	-1.6100159	-13.480057	-0.4136963
1493777251234	1.6678009	-12.098297	-2.7929077
1493777251234	6.547333	-11.616211	0.35697937
1493777251234	2.85289	-9.7300415	0.94918823
1493777251234	0.3715515	-7.036804	1.9570618
1493777251234	-0.61112976	-6.731018	1.8123627
1493777251234	-1.3927612	-5.880493	1.5899048
1493777251234	-2.9169312	-5.577469	0.8707886
1493777251234	-2.624878	-5.9226227	1.6327972
1493777251234	-2.1680908	-5.221527	1.8103027
1493777251234	-2.1484528	-3.0651093	1.5396576
1493777251234	-1.1334839	-3.3391876	2.230011
1493777251234	-0.6570282	-4.2049866	1.930954
1493777251234	-0.63157654	-4.716797	0.7963257
1493777251234	0.34550476	-6.586899	-1.8847198
1493777251234	1.491806	-10.948135	-6.692627
1493777251234	1.6838684	-16.830612	-15.282883
1493777251234	2.8464355	-19.329636	-17.59404
1493777251234	1.810791	-16.077942	-8.320847
1493777251234	-0.36218262	-6.4431915	-4.4341736
1493777251234	-1.4513092	-7.362961	-2.3858185
1493777251234	-4.213516	-14.082947	1.0438995
1493777251234	-2.7437286	-17.218857	4.764694
1493777251234	1.7307281	-14.718384	-3.3623657
1493777251234	2.2049408	-9.13681	-5.835251
1493777251234	-2.4486237	-1.1773987	8.990509
1493777251234	-5.1082764	-2.3142242	5.9500275
1493777251234	0.08287048	-8.538925	1.063858
1493777251234	3.2669525	-14.0598755	3.5061035
1493777251234	4.2308044	-12.186615	3.2810516
1493777251234	3.40094	-9.847168	2.6298218
1493777251234	1.3669281	-14.212891	1.3058472
1493777251234	-0.22021484	-13.891403	0.6138153
1493777251234	-1.4273987	-14.410904	-0.504303
1493777251234	-1.9262085	-13.032089	-0.7669525
1493777251234	-2.1822815	-11.770706	-0.20874023
1493777251234	-1.5288391	-11.06105	0.7337494
1493777251234	-0.47904968	-11.291687	2.2827911
1493777251234	1.3713379	-11.409149	2.7232819
1493777251234	1.0014038	-15.277039	1.1534119
1493777251235	2.7801208	-13.845642	1.0797577
1493777251235	0.2446289	-10.751022	-3.7024384
1493777251235	2.9189758	-10.682297	2.3121643
1493777251235	4.2622833	-12.466232	1.1024628
1493777251235	2.7158966	-12.01532	-1.4595032
1493777251235	1.9811401	-10.394501	-2.4296722
1493777251235	0.7950897	-10.847626	-0.45220947
1493777251235	0.4723816	-9.654312	7.1006775
1493777251235	0.38430786	-15.81282	3.4454803
1493777251235	-1.5344238	-17.828873	-2.8940735
1493777251235	4.32135	-10.78038	4.6089478
1493777251235	6.771881	-6.931793	9.290161
1493777251235	6.4544067	-6.993347	7.727768
1493777251235	6.577011	-6.445099	7.5740967
1493777251235	5.4182587	-8.13649	9.745911
1493777251235	5.5960236	-6.912277	12.568878
1493777251235	2.5512085	-8.112015	12.138641
1493777251235	-0.93296814	-9.163269	9.573868
1493777251235	-3.9093933	-9.146606	6.7838135
1493777251235	-5.1893463	-10.861496	5.3224335
1493777251235	-4.191681	-9.695847	5.249756
1493777251235	-2.5689697	-8.326004	6.63179
1493777251235	-0.77737427	-7.7933655	8.252121
1493777251235	-1.1043091	-10.85791	8.745529
1493777251356	-3.034851	-13.252884	8.111923
1493777251356	-3.797989	-11.645569	7.1705933
1493777251356	-2.3745422	-8.183014	5.719101
1493777251356	-1.731369	-6.515671	2.0100098
1493777251356	-8.378326	0.5626068	-16.535873
1493777251356	-15.541611	1.7294617	0.42800903
1493777251356	-16.823135	2.974411	-1.4814758
1493777251356	-3.3660278	0.7691345	-2.4938812
1493777251356	2.9708557	1.2006836	0.64460754
1493777251356	4.388077	1.8239594	9.947449
1493777251357	4.4130554	4.552185	19.277008
1493777251357	6.08696	2.311386	18.771667
1493777251357	4.761078	1.2560577	14.322311
1493777251357	1.2448883	0.9266205	6.6472015
1493777251357	-1.4524384	-0.8313904	4.557205
1493777251357	-3.5292358	-0.27246094	6.4857483
1493777251357	-1.315979	2.2727966	14.4066925
1493777251357	3.1499481	2.6965485	15.488419
1493777251357	4.321289	3.7628632	7.562851
1493777251357	1.4706421	6.363846	1.0676575
1493777251357	-0.82832336	5.9381866	4.6200714
1493777251357	-1.4772949	6.912079	7.6060486
1493777251357	-0.64923096	10.122345	10.337128
1493777251357	0.8355713	9.709259	10.218842
1493777251357	3.096054	5.027054	7.112854
1493777251357	-4.576706	1.8233948	0.558136
1493777251357	-8.296204	-0.3414917	0.46444702
1493777251357	-2.297699	1.831955	11.24498
1493777251357	3.2416534	4.229431	14.239532
1493777251357	2.0040894	3.785904	9.551712
1493777251357	-0.53604126	2.9745178	6.878845
1493777251357	0.73439026	3.5171967	7.184067
1493777251357	1.5796356	3.9466553	7.8505707
1493777251357	0.1592102	2.2323608	7.6031036
1493777251358	0.4459076	2.0610352	8.80191
1493777251358	0.5107727	3.1389313	8.451279
1493777251358	0.7169037	3.7093964	6.937561
1493777251358	2.820938	4.407593	9.016632
1493777251358	3.7105255	5.706085	8.052811
1493777251358	1.8183136	4.338852	8.913315
1493777251358	0.82011414	3.832962	9.922424
1493777251358	1.3602448	4.5693054	6.8103485
1493777251358	1.3312378	4.0282593	2.0798035
1493777251358	1.4192505	3.3051758	5.2779694
1493777251358	3.8607788	3.675827	10.805862
1493777251358	1.9986725	1.254364	8.634216
1493777251358	4.771393	3.5189667	11.4166565
1493777251358	7.578842	1.9551239	14.021164
1493777251358	5.160309	-1.3060303	15.674454
1493777251358	1.3001251	-1.5755157	15.06517
1493777251358	-0.18499756	-0.21374512	17.749664
1493777251358	1.479538	0.17532349	15.197571
1493777251367	3.882492	-1.1944427	1.5066528
1493777251387	3.8381042	0.72753906	9.866898
1493777251407	4.716614	-0.611145	9.186111
1493777251428	5.2948	-0.75050354	11.4002075
1493777251448	4.0940094	-1.4750824	9.925354
1493777251467	0.7095032	8.392334E-4	10.506531
1493777251486	1.7341919	-0.6125488	10.101791
1493777251506	1.1808319	-1.0373383	10.804733
1493777251526	1.5966797	-0.339386	10.642883
1493777251545	1.318512	0.17440796	9.898758
1493777251565	0.049041748	1.3183136	8.204788
1493777251585	1.4253082	1.7945251	7.154602
1493777251605	1.3102417	1.6423187	6.406555
1493777251625	0.566803	1.3701935	7.6119537
1493777251643	0.6339874	0.53437805	11.18425
1493777251664	-0.6572418	-0.018997192	12.101959
1493777251684	-0.38807678	1.2181854	9.624023
1493777251704	0.61634827	1.6613159	8.986938
1493777251724	0.40222168	1.4863281	8.76413
1493777251743	0.3684082	1.3232422	9.346649
1493777251764	0.15437317	1.4338226	9.654434
1493777251783	-0.596756	1.1927795	9.061356
1493777251807	-0.50180054	1.0408936	8.688431
1493777251824	0.17059326	1.35289	8.670624
1493777251843	0.68722534	1.711441	9.08876
1493777251863	0.99890137	1.9800415	9.217316
1493777251883	1.0010223	1.5907135	8.406113
1493777251902	0.79185486	1.3149872	7.968231
1493777251923	0.34120178	1.1491547	8.473328
1493777251941	0.2735138	0.67381287	8.766937
1493777251961	-0.5760193	0.83106995	10.006744
1493777251981	-0.4606018	0.4848938	12.61673
1493777252000	-0.95454407	-0.5450897	15.405609
1493777252021	-1.249649	-1.0955353	14.615036
1493777252040	-0.5439148	-0.49353027	10.79689
1493777252060	-2.0914764	0.5741577	4.592224
1493777252080	-2.3954163	1.3046265	5.5383606
1493777252100	-1.1714478	0.66696167	7.9239197
1493777252119	-1.2542725	0.24336243	9.698624
1493777252139	-2.3085327	0.21150208	11.841263
1493777252159	-2.5252533	0.37271118	11.211716
1493777252179	-2.0931854	0.4927826	10.093002
1493777252199	-2.07193	0.66485596	9.134216
1493777252219	-1.933258	0.56411743	9.543411
1493777252238	-2.2298431	0.18206787	10.41478
1493777252258	-2.757141	0.22868347	10.007462
1493777252278	-2.9201965	0.24760437	8.975052
1493777252299	-2.7052155	0.66970825	9.193344
1493777252320	-2.4238434	1.1822662	9.751938
1493777252339	-2.2739563	1.0364685	9.506699
1493777252357	-2.120819	0.5995331	8.948761
1493777252376	-2.1294556	0.4669037	8.773529
1493777252396	-2.0145416	0.6817169	9.232239
1493777252416	-1.8930511	1.0218506	9.120743
1493777252436	-1.7528687	1.2689819	9.304764
1493777252476	-1.4649963	0.976532	9.793777
1493777252495	-2.5339966	0.5887146	9.131271
1493777252515	-2.4663239	0.81741333	9.210449
1493777252535	-1.9718933	1.4264526	9.722656
1493777252554	-2.1553192	1.0089264	9.828857
1493777252574	-2.6644592	0.11932373	9.9384
1493777252594	-3.0425873	-0.3612976	10.534409
1493777252614	-2.662735	-0.35377502	10.617233
1493777252634	-2.107788	0.31565857	10.437042
1493777252653	-2.0916443	0.542099	10.256561
1493777252673	-2.098648	0.23802185	10.0849
1493777252694	-2.3286743	0.006164551	9.437729
1493777252714	-2.5477753	-0.048034668	9.083664
1493777252733	-2.455719	0.13513184	9.301819
1493777252752	-2.2268372	0.5809326	9.479446
1493777252773	-1.4945374	1.2150116	9.184158
1493777252792	-1.1037292	1.4841919	8.618988
1493777252812	-0.97164917	0.8173523	9.3389435
1493777252854	-0.9856415	0.5345459	10.6502075
1493777252854	-1.6692047	1.1039886	10.893845
1493777252876	-2.300064	1.8582153	10.272018
1493777252891	-2.8627014	2.0247803	9.701141
1493777252912	-2.915039	1.6854095	9.360596
1493777252931	-2.624878	1.5234985	9.185501
1493777252950	-2.3984528	1.5025635	9.075485
1493777252970	-2.3430634	1.5214691	9.230362
1493777252991	-1.974411	1.6580963	9.525513
1493777253010	-1.3785095	2.013977	9.319916
1493777253030	-1.0394897	2.3838348	8.954132
1493777253049	-1.0865021	2.378296	9.116989
1493777253069	-1.431778	2.0153809	9.232315
1493777253090	-1.6977539	1.8719635	9.137695
1493777253109	-1.7809448	2.0163422	9.082581
1493777253129	-1.6134186	2.0951538	9.301743
1493777253148	-1.4692383	2.0424805	9.8728485
1493777253168	-1.2975922	2.031845	10.045685
1493777253188	-1.1000061	2.0547485	9.715469
1493777253207	-1.0574188	2.055542	9.495575
1493777253227	-0.95147705	2.2938385	9.337585
1493777253248	-0.8836975	2.839859	8.934799
1493777253267	-0.878006	2.894455	9.222229
1493777253287	-0.9715271	2.3344574	9.352051
1493777253306	-1.0298157	2.173706	9.338242
1493777253326	-1.0306396	2.225708	10.181137
1493777253347	-1.1781616	2.1833038	10.335358
1493777253366	-1.2672272	2.3993835	9.063843
1493777253386	-1.1020355	2.4283295	8.677902
1493777253405	-1.0711975	2.1589355	9.278473
1493777253425	-0.8617096	2.3283844	9.969879
1493777253445	-0.6648407	2.701233	10.255798
1493777253465	-0.58880615	2.3910065	9.048172
1493777253485	-0.5967865	2.4733124	7.9534607
1493777253505	-0.4217987	2.9441528	8.231827
1493777253525	-0.50190735	2.7969513	9.932388
1493777253545	-1.0033112	1.9848022	10.36261
1493777253584	-0.9972992	1.9586945	9.536957
1493777253603	-0.39712524	2.6220703	8.60228
1493777253628	0.032455444	2.9122925	8.570023
1493777253644	1.8310547E-4	2.730423	9.027893
1493777253663	-0.2616577	2.539032	10.423645
1493777253683	0.30986023	2.5181885	11.90715
1493777253702	-0.36756897	3.388733	10.574982
1493777253722	-0.67944336	3.070877	8.745789
1493777253742	-0.34909058	2.85318	9.07106
1493777253762	-0.15148926	3.126297	9.024994
1493777253781	-0.20358276	2.972458	8.846313
1493777253801	0.10797119	3.1055298	9.233368
1493777253821	0.25717163	3.1317444	9.589127
1493777253840	0.1109314	3.0509186	9.314301
1493777253859	0.0677948	3.0323486	9.303299
1493777253880	-0.10600281	2.9824982	9.19455
1493777253900	-0.14389038	2.86438	9.1017
1493777253920	0.047607422	2.9584808	9.073257
1493777253939	0.2485199	3.109024	9.3423
1493777253959	0.35733032	3.1892548	9.434479
1493777253979	0.18762207	3.0769348	9.017471
1493777253999	-0.05218506	2.9938965	8.881424
1493777254018	-0.33769226	2.8188477	8.896637
1493777254040	-0.53074646	2.743988	9.252167
1493777254060	0.0046691895	3.2052002	10.097504
1493777254078	0.58903503	3.5634308	10.2612
1493777254098	0.3065338	3.2795105	9.5550995
1493777254119	0.16191101	3.3272705	9.177933
1493777254139	0.07333374	3.4308167	9.156494
1493777254157	-0.12193298	3.3450928	9.3815
1493777254178	-0.2967682	3.1927795	9.745346
1493777254197	-0.44821167	3.0497742	9.76767
1493777254217	-0.5648651	3.049881	9.44902
1493777254236	-0.55766296	3.0787048	9.213974
1493777254256	-0.55210876	3.1063385	9.358887
1493777254276	-0.48005676	3.1380768	9.512161
1493777254296	-0.54296875	3.1458435	9.444962
1493777254316	-0.72865295	3.0221405	9.429779
1493777254336	-0.8763275	2.9922333	9.384323
1493777254356	-0.87268066	3.034912	9.074997
1493777254375	-0.7608032	3.1966248	9.087463
1493777254395	-0.66937256	3.241684	9.440796
1493777254415	-0.6337433	3.2950592	9.61882
1493777254436	-0.61190796	3.2807465	9.370804
1493777254454	-0.5709839	3.1841278	9.259827
1493777254474	-0.542511	3.1976776	9.176636
1493777254499	-0.55822754	3.2313232	9.056534
1493777254513	-0.7081604	3.0923004	8.913849
1493777254533	-0.7702637	3.151886	9.0325775
1493777254553	-0.5479889	3.1857452	9.105896
1493777254573	-0.25450134	3.3123474	9.197449
1493777254592	-0.23101807	3.530365	9.331924
1493777254612	-0.3685608	3.4060974	9.444946
1493777254632	-0.24761963	3.2739868	9.372665
1493777254652	-0.16809082	3.4781952	9.105087
1493777254691	-0.054885864	3.6623993	8.947113
1493777254710	-0.008163452	3.6739502	8.470383
1493777254731	0.05722046	3.765686	8.492996
1493777254751	-0.17478943	3.7198486	8.762299
1493777254770	-0.38963318	3.5278168	8.862122
1493777254790	-0.4423828	3.5314026	8.789139
1493777254810	-0.2197113	3.7350922	9.00441
1493777254830	-0.17564392	3.8669434	8.820175
1493777254849	-0.25331116	3.7947083	8.529724
1493777254869	-0.3542328	3.7615204	8.516876
1493777254889	-0.2886505	3.8325195	8.665283
1493777254909	-0.2501526	3.8576355	8.808502
1493777254929	-0.18714905	3.8479156	9.196716
1493777254948	-0.33522034	3.7202606	9.287003
1493777254967	-0.61683655	3.5055695	9.082535
1493777254988	-0.69487	3.45784	9.174286
1493777255008	-0.6029358	3.5164337	9.274277
1493777255027	-0.5102997	3.5795746	9.135757
1493777255047	-0.47714233	3.631424	9.063644
1493777255067	-0.575943	3.6237335	8.953201
1493777255087	-0.7139435	3.540741	8.860886
1493777255107	-0.76268005	3.5068054	8.806046
1493777255126	-0.6718445	3.5549011	9.061707
1493777255146	-0.6183319	3.5980988	9.533234
1493777255166	-0.6817169	3.5846558	9.730255
1493777255186	-0.666214	3.5067139	9.48996
1493777255205	-0.57421875	3.5045013	9.113663
1493777255225	-0.45077515	3.550232	9.02652
1493777255245	-0.25624084	3.6145325	9.196533
1493777255264	-0.098098755	3.7152557	9.254456
1493777255284	-0.16513062	3.7127075	9.04187
1493777255304	-0.32398987	3.6217651	8.907043
1493777255324	-0.34020996	3.585373	8.939011
1493777255344	-0.24636841	3.666397	8.926926
1493777255364	-0.18569946	3.756012	9.007553
1493777255384	-0.16946411	3.7583008	9.18222
1493777255403	-0.3050537	3.6711578	9.153519
1493777255423	-0.4118042	3.604065	9.123398
1493777255443	-0.35424805	3.6273804	9.221268
1493777255463	-0.3182373	3.6263275	9.381165
1493777255482	-0.25231934	3.5322876	9.439896
1493777255502	-0.2502594	3.5899658	9.386459
1493777255522	-0.26101685	3.5720978	9.203323
1493777255542	-0.24153137	3.5295563	8.982956
1493777255562	-0.21868896	3.5200195	9.03064
1493777255581	-0.25956726	3.4725494	9.043533
1493777255601	-0.28727722	3.414383	8.995377
1493777255621	-0.23553467	3.4222717	8.899689
1493777255641	-0.098587036	3.5419464	8.752563
1493777255660	-0.18151855	3.5128174	8.736481
1493777255680	-0.30200195	3.4118042	8.786835
1493777255700	-0.19894409	3.5049896	8.977875
1493777255721	-0.15190125	3.581421	9.353699
1493777255739	-0.24459839	3.4043427	9.432785
1493777255759	-0.2689972	3.3440857	9.464737
1493777255799	-0.05683899	3.4968567	9.355972
1493777255818	0.031845093	3.6727448	9.027496
1493777255839	-0.107925415	3.607254	9.038345
1493777255858	-0.07180786	3.496231	8.985046
1493777255878	-0.13948059	3.5370636	9.2339325
1493777255898	-0.043624878	3.4936523	9.404236
1493777255917	-0.07884216	3.514328	9.430389
1493777255937	-0.13769531	3.466751	9.184799
1493777255957	-0.15084839	3.4089203	9.037033
1493777255977	-0.08442688	3.3765411	8.851242
1493777255997	-0.13851929	3.4207	9.094513
1493777256016	-0.14282227	3.3397064	9.067078
1493777256036	-0.09182739	3.3651123	9.054642
1493777256056	-0.13461304	3.3542023	9.086639
1493777256074	-0.21195984	3.2473755	9.154861
1493777256095	-0.2733307	3.0649567	9.06871
1493777256115	-0.38742065	2.8968353	9.176346
1493777256135	-0.4802246	2.84227	9.220047
1493777256155	-0.6032715	2.832428	9.258377
1493777256174	-0.4884796	2.9274445	9.376053
1493777256194	-0.1794281	3.2176666	9.245453
1493777256214	0.0990448	3.4513702	9.21051
1493777256234	0.18812561	3.5124054	9.3940735
1493777256254	0.18229675	3.557602	9.419815
1493777256273	0.32341003	3.5934448	9.309418
1493777256293	0.5614624	3.7020416	9.2291565
1493777256313	0.6729584	3.7818298	9.252762
1493777256333	0.6702728	3.6696167	9.462967
1493777256353	0.50697327	3.4277802	9.726959
1493777256372	0.2849121	3.203125	9.716507
1493777256392	0.19776917	3.1327667	9.526596
1493777256412	0.1749878	3.2530823	9.340149
1493777256432	0.115356445	3.2566986	9.055786
1493777256452	0.17706299	3.207779	9.016113
1493777256471	0.24873352	3.2570038	9.284027
1493777256492	0.3056183	3.247284	9.519196
1493777256511	0.19337463	3.1499176	9.322205
1493777256531	0.08413696	3.135849	9.312027
1493777256550	0.1375122	3.1349792	9.488098
1493777256570	0.2384491	3.0866547	9.646072
1493777256590	0.22276306	3.0208893	9.650558
1493777256610	0.103271484	2.892334	9.399063
1493777256630	-0.009796143	2.782364	9.376541
1493777256652	0.06391907	2.7883453	9.241791
1493777256669	0.20544434	2.8670044	9.020309
1493777256689	0.28408813	2.8957825	9.167786
