accelerometer_timestamp	accelerometer_x_data	accelerometer_y_data	accelerometer_z_data
1493783214366	-0.85546875	7.1202545	6.5293427
1493783214385	-0.78201294	7.1022186	6.9502716
1493783214406	-0.74598694	7.065094	7.192276
1493783214425	-0.71543884	7.079468	6.904007
1493783214447	-0.6981659	7.1125183	6.409012
1493783214465	-0.66278076	7.093338	6.6060333
1493783214485	-0.72662354	7.0917053	6.401016
1493783214504	-0.73262024	7.0908356	6.165741
1493783214524	-0.67248535	7.171234	6.278961
1493783214544	-0.7077637	7.162735	6.513626
1493783214564	-0.88497925	7.135269	6.611191
1493783214583	-0.98721313	7.065338	6.6067963
1493783214603	-0.9920349	7.0852966	6.650421
1493783214623	-0.8832092	7.1459503	6.797867
1493783214643	-0.8149719	7.171219	6.690933
1493783214662	-0.8032837	7.2144623	6.527481
1493783214682	-0.93136597	7.1508484	6.4511414
1493783214702	-0.9174042	7.0801697	6.450287
1493783214722	-0.92459106	7.04393	6.456894
1493783214742	-0.9702301	7.0846252	6.377304
1493783214761	-0.93577576	7.0595245	6.1312714
1493783214781	-1.0252228	7.0154266	5.8991394
1493783214801	-1.1455994	6.842453	5.9835052
1493783214821	-0.57951355	6.954529	6.499634
1493783214841	0.22723389	7.2266693	6.8551636
1493783214861	0.61987305	7.3608093	6.924881
1493783214880	0.3111267	7.205673	6.721863
1493783214900	-0.21002197	6.894058	6.2479706
1493783214920	0.29258728	6.4424133	4.079727
1493783214940	0.32362366	6.529068	4.337143
1493783214959	0.23809814	6.2775726	5.3839417
1493783214979	-0.08979797	5.3311005	4.0295105
1493783214999	0.14491272	4.1650543	2.1163025
1493783215019	0.06211853	3.3963013	2.3177795
1493783215039	0.21426392	3.028534	2.8782196
1493783215058	-0.06991577	2.02417	2.2967834
1493783215078	1.1089478	1.2625732	1.6572418
1493783215098	3.119049	1.3363953	1.2613983
1493783215118	3.2321167	0.045410156	0.7935486
1493783215138	4.5673523	-1.9778137	1.1459503
1493783215157	6.0529633	-3.0559235	2.707428
1493783215178	4.286087	-3.44841	3.676651
1493783215197	4.095871	-4.9048767	4.2773895
1493783215217	3.9950562	-6.057617	3.3846283
1493783215236	7.1112366	-6.8876343	3.9128418
1493783215256	12.489685	-5.413376	8.430222
1493783215276	16.339401	-4.196823	11.685059
1493783215296	14.717834	-4.0768127	10.622116
1493783215316	7.311432	-10.947891	7.364456
1493783215336	17.694305	0.36964417	4.6956024
1493783215355	16.211884	-3.6038513	5.063919
1493783215375	19.409912	0.002029419	3.6039581
1493783215415	18.228912	-2.18013	2.5683746
1493783215436	18.439896	-1.3213501	0.47244263
1493783215454	18.994644	-0.70480347	-0.8023834
1493783215474	18.859467	-0.87332153	-0.9960785
1493783215494	16.547073	-2.0903778	0.38230896
1493783215513	13.7872925	-3.3713837	0.62957764
1493783215533	12.4709015	-2.7770233	-1.4419403
1493783215553	11.718887	-2.8524017	-5.067642
1493783215573	11.738144	-2.9217682	-7.5316772
1493783215593	11.070923	-3.8441772	-7.1482697
1493783215612	9.523651	-4.9767	-5.145706
1493783215632	8.761536	-5.328018	-0.87675476
1493783215652	9.144119	-4.882782	3.073532
1493783215672	8.786407	-5.1807404	2.684021
1493783215692	8.42952	-5.174942	2.1427155
1493783215711	8.639679	-4.749466	1.3343811
1493783215732	8.698257	-4.425064	0.119766235
1493783215751	8.305771	-4.2871246	-1.2441559
1493783215771	8.885849	-3.745758	-1.4472046
1493783215791	8.944336	-3.538086	-1.2739563
1493783215810	7.901062	-3.430008	-3.094284
1493783215830	7.2382507	-2.8986206	-6.330658
1493783215850	7.37648	-3.712799	-5.860779
1493783215870	8.635742	-3.836319	-1.5042877
1493783215890	9.191299	-3.7584534	0.1876831
1493783215909	8.827957	-3.6311188	-2.6775818
1493783215929	7.757553	-3.379654	-2.0618286
1493783215949	7.7286987	-3.9886627	-0.8235779
1493783215969	8.333893	-4.037918	-1.5779724
1493783215989	7.8583984	-4.1128693	-1.7437439
1493783216008	7.466049	-4.486801	-1.0118256
1493783216028	6.9737244	-4.7385864	-0.65283203
1493783216048	7.4685974	-4.564804	0.16975403
1493783216068	7.7444153	-4.702881	-1.3508453
1493783216088	7.2528534	-5.0477905	-3.271881
1493783216107	6.5471954	-5.3519135	-3.0448608
1493783216127	6.904007	-5.0937805	-1.8552551
1493783216147	8.425751	-4.7747498	-2.3182373
1493783216167	8.546295	-5.0273438	-1.6194
1493783216187	6.613846	-5.7084656	-1.0925293
1493783216206	5.6074677	-6.2100677	-1.8499451
1493783216226	6.3388977	-6.2480316	-2.1018982
1493783216246	8.382919	-5.389969	-2.4658508
1493783216266	9.28212	-5.367523	-1.1368713
1493783216286	8.142334	-5.9043884	-0.2692566
1493783216305	8.022949	-6.318039	-0.23313904
1493783216325	7.503418	-8.417267	-2.1033936
1493783216345	6.52005	-5.383896	0.9139862
1493783216365	8.259796	-6.880661	-1.4824371
1493783216385	7.5394287	-6.718399	-1.4595795
1493783216405	5.878235	-7.8279877	-0.34146118
1493783216425	6.029419	-7.222275	0.27519226
1493783216444	7.5119476	-6.321106	-1.2483063
1493783216464	7.114105	-6.2048798	-1.560669
1493783216483	6.5651245	-6.120407	-0.66067505
1493783216503	6.347122	-6.1184998	-0.1681366
1493783216523	7.296402	-5.5598907	0.17936707
1493783216563	6.6167145	-6.3175964	-1.3094025
1493783216582	5.0321655	-6.623749	-0.4358673
1493783216602	7.383484	-6.2586975	2.091629
1493783216622	6.426834	-7.3806763	1.6674194
1493783216642	7.2932587	-8.450287	2.043045
1493783216661	6.040222	-8.981735	0.42536926
1493783216681	6.922348	-8.314117	-0.16281128
1493783216701	6.719742	-9.476044	7.0160675
1493783216721	4.7997284	-9.337173	1.2825623
1493783216741	5.071686	-10.168091	2.885666
1493783216761	4.4327087	-9.236801	2.2526245
1493783216780	3.8741455	-9.501358	1.3504333
1493783216801	3.9894104	-10.050659	0.981308
1493783216820	3.7318268	-11.003647	1.0831909
1493783216840	2.688385	-11.597641	1.3204346
1493783216860	0.23849487	-11.422974	1.0592041
1493783216879	0.0687561	-9.251282	0.18991089
1493783216899	-0.7501221	-8.061371	1.0117493
1493783216919	0.8167572	-6.1607513	2.8342285
1493783216939	11.036316	-5.3752594	3.9016266
1493783216958	10.489212	-5.2196045	0.7879181
1493783216978	8.219086	-5.846222	-1.0199432
1493783216998	6.1311646	-6.8546143	-2.6555786
1493783217018	4.115448	-8.139618	-3.0187988
1493783217038	1.8351288	-8.348877	-0.16915894
1493783217057	-2.1936188	-12.655228	3.6790314
1493783217077	0.26591492	-14.242065	2.848053
1493783217097	3.2983093	-11.734146	-1.151825
1493783217117	4.5335236	-10.012054	-1.525177
1493783217137	3.0166779	-12.5711975	0.26101685
1493783217156	0.62086487	-12.029144	-3.2821045
1493783217176	2.3344574	-8.033081	-4.3511963
1493783217196	3.066681	-11.206345	1.4807281
1493783217216	3.8759766	-11.919479	1.4110565
1493783217236	3.7202911	-9.720001	-0.6055145
1493783217255	3.3376617	-7.992096	0.25332642
1493783217275	2.563614	-8.96373	1.2357483
1493783217295	3.1490326	-8.62709	2.09404
1493783217315	2.746872	-9.041229	0.7606354
1493783217335	2.485672	-9.812119	0.27653503
1493783217354	2.4852448	-9.657852	0.08503723
1493783217374	-0.119628906	-5.4414673	-0.008743286
1493783217394	0.78826904	-3.3285217	-0.5780792
1493783217414	-0.60827637	-3.5325317	0.21214294
1493783217433	0.697937	-3.2703247	-0.19891357
1493783217453	-0.11553955	-7.520172	-1.0099945
1493783217473	1.2149963	-11.547943	-0.8674927
1493783217493	0.06564331	-7.446396	1.9468994
1493783217513	2.3342133	-8.712372	0.030151367
1493783217532	3.27919	-12.934082	-0.33335876
1493783217553	2.334381	-13.295105	-0.17137146
1493783217573	3.504425	-10.658203	0.17314148
1493783217593	2.0793457	-12.768906	0.20396423
1493783217612	2.1392365	-12.614731	-0.15896606
1493783217632	1.1092529	-11.833817	0.45674133
1493783217651	0.71707153	-10.294098	0.57144165
1493783217672	0.9329071	-8.046219	0.25253296
1493783217691	0.76646423	-6.3425293	-0.12005615
1493783217731	0.56069946	-8.328873	1.1281738
1493783217750	2.4361115	-12.83638	-1.9806519
1493783217771	2.1123962	-16.726898	1.525589
1493783217790	2.9440002	-10.876968	2.8830109
1493783217810	2.7226563	-10.585876	2.1623993
1493783217830	1.6942902	-10.412323	0.95895386
1493783217850	0.9730835	-11.918564	0.38142395
1493783217869	1.1925201	-11.423706	0.7361603
1493783217889	0.76182556	-9.859024	0.4315033
1493783217910	-0.5297699	-9.060028	0.8218384
1493783217929	-0.97924805	-8.427139	2.3347168
1493783217949	-0.92866516	-7.863968	1.4501953
1493783217968	0.68122864	-8.686768	1.8899536
1493783217988	2.645172	-9.639816	1.6226196
1493783218007	3.153122	-10.475464	0.985672
1493783218028	2.663498	-10.025391	0.2930603
1493783218047	2.015564	-9.78038	0.0993042
1493783218067	1.3788757	-9.974243	0.17303467
1493783218087	0.61724854	-9.965775	0.2237854
1493783218107	0.3438263	-9.797653	0.46998596
1493783218126	0.009780884	-9.65361	1.2365112
1493783218146	0.23840332	-9.562561	0.90496826
1493783218166	0.8545532	-9.75589	0.56048584
1493783218186	1.6682587	-9.93132	0.40748596
1493783218205	2.6407318	-10.341751	0.16920471
1493783218226	3.309723	-10.868225	0.03416443
1493783218246	3.1814728	-11.185425	-0.3843689
1493783218265	2.6435852	-11.18689	-0.8982086
1493783218285	2.2362366	-11.099747	-0.9788971
1493783218304	2.1117096	-11.008179	-1.1530304
1493783218325	2.7190094	-11.257462	-1.1729736
1493783218344	3.4977417	-11.533035	-1.0044861
1493783218364	3.4767456	-11.263641	-1.379837
1493783218384	2.9346313	-10.953644	-2.1429749
1493783218404	2.522934	-10.827469	-1.5654602
1493783218423	1.3403625	-9.915863	-0.54338074
1493783218443	-1.2336578	-9.673401	-1.2526245
1493783218463	-2.9987946	-11.341705	-0.6364441
1493783218483	-2.9543152	-13.348679	0.9650421
1493783218503	-0.59498596	-13.245285	1.7134857
1493783218523	1.8648376	-11.74559	4.68779
1493783218542	2.3640442	-11.303284	2.203949
1493783218562	2.8263397	-11.431641	-0.57429504
1493783218582	2.1698608	-11.249771	-1.0664215
1493783218602	0.8337555	-10.328827	-0.0423584
1493783218622	-0.40003967	-9.46904	0.78593445
1493783218641	-1.1344299	-7.9610596	0.66867065
1493783218661	-1.3753662	-7.1907806	0.6515198
1493783218681	-1.198349	-6.8424683	1.2851715
1493783218701	-1.5484924	-6.9276123	1.2704773
1493783218721	-1.510086	-6.318039	0.93447876
1493783218741	-1.7508392	-5.830353	0.33740234
1493783218760	-1.6914215	-5.53685	-0.08699036
1493783218780	-1.4589386	-5.992401	-0.80249023
1493783218800	-1.0092163	-6.7890625	-1.7091675
1493783218820	-0.6314392	-8.461487	-4.0396576
1493783218858	-0.009689331	-11.316895	-7.583206
1493783218879	1.5743408	-13.2743225	-9.640976
1493783218899	2.340866	-12.701981	-8.474442
1493783218918	1.1864319	-11.430222	-7.470398
1493783218938	0.13475037	-10.207764	-5.102707
1493783218958	-1.0291138	-8.809204	-4.7180023
1493783218978	-1.6043701	-7.165039	-4.5903015
1493783218998	-2.1866455	-8.372772	-3.0577087
1493783219018	-3.5098114	-12.459549	-1.5115662
1493783219037	-2.9344635	-14.334793	-1.6240845
1493783219057	-1.1676178	-13.042267	-0.7438965
1493783219077	0.5080261	-9.96962	1.2478333
1493783219097	0.12498474	-7.355774	4.856186
1493783219116	-1.421341	-6.7116547	5.1148987
1493783219136	-2.2779846	-7.850876	2.8928528
1493783219156	0.13531494	-10.66452	1.3353882
1493783219176	4.9980316	-11.713516	2.6714172
1493783219196	7.9741974	-10.687927	1.7253418
1493783219215	6.3980865	-10.023071	0.09764099
1493783219235	2.771286	-9.678146	-0.3955536
1493783219255	0.17279053	-9.4730835	0.051757813
1493783219275	-0.99993896	-9.410355	-0.12583923
1493783219295	-1.1741791	-9.389694	0.004272461
1493783219315	-0.57229614	-9.603577	0.37480164
1493783219335	0.669281	-10.030563	-0.14379883
1493783219355	1.9730682	-9.87645	-0.51301575
1493783219374	2.80661	-9.39061	0.5409851
1493783219394	2.685379	-9.212738	1.6278229
1493783219416	1.7348022	-9.206421	2.168457
1493783219434	0.9155731	-9.305145	1.6846161
1493783219454	0.61782837	-9.662888	0.5569
1493783219473	0.8420563	-9.941925	-0.09660339
1493783219493	1.1815186	-10.279495	-0.8366852
1493783219512	1.6009674	-10.748474	-1.1268005
1493783219533	2.4210663	-11.026367	-0.8966522
1493783219552	3.3718414	-10.963684	-1.2017365
1493783219572	4.234131	-10.748718	-1.5524597
1493783219592	4.7824097	-10.576508	-0.8924866
1493783219612	4.117813	-10.790024	-0.49797058
1493783219631	2.946991	-11.687332	-1.5007019
1493783219651	2.238083	-12.03952	-2.7944489
1493783219671	2.748886	-10.998016	-3.333023
1493783219691	3.3676758	-10.709656	-2.0716248
1493783219711	1.3606873	-10.198242	-1.3447723
1493783219733	-1.7664642	-11.291473	-0.7474823
1493783219751	-3.4539185	-13.541992	1.227768
1493783219770	-2.4423676	-14.026215	2.9764862
1493783219790	-1.4046631	-13.275314	2.966919
1493783219810	-0.43806458	-12.328171	0.62106323
1493783219833	1.0145416	-11.712067	1.131424
1493783219855	2.15979	-10.953354	-0.71972656
1493783219869	1.9598694	-10.01741	-0.4781494
1493783219895	1.3984528	-9.139877	0.3594513
1493783219914	0.18411255	-8.213013	0.26516724
1493783219932	-0.49250793	-6.96109	0.63920593
1493783219954	-1.2134857	-6.121292	0.9192505
1493783219973	-1.5483246	-5.611679	1.3025513
1493783219991	-1.489563	-5.5457306	1.3195953
1493783220014	-1.6228638	-5.402954	0.5553589
1493783220047	-1.9363251	-5.247238	-0.05064392
1493783220067	-1.7244873	-5.8882446	-1.5000916
1493783220087	-1.3745728	-7.5384216	-3.1058655
1493783220107	-0.4414673	-10.325867	-6.13385
1493783220126	0.4322815	-13.61026	-8.803482
1493783220147	0.88256836	-14.343765	-10.683243
1493783220166	0.07196045	-11.781372	-8.926834
1493783220186	-1.1982574	-9.022278	-5.161072
1493783220206	-1.826828	-9.180389	-3.253296
1493783220225	-2.1332703	-12.881134	-1.5236664
1493783220245	-1.5056305	-13.193634	-1.5840454
1493783220265	0.43440247	-10.479645	0.2614441
1493783220285	0.7295227	-8.094513	3.8342438
1493783220305	-0.73269653	-8.032471	5.437134
1493783220326	-1.9441223	-9.170685	3.581833
1493783220347	-0.34822083	-10.117828	1.2192535
1493783220366	2.7557373	-10.597015	0.64123535
1493783220387	5.1727753	-10.297241	0.9772339
1493783220407	5.051895	-9.840775	0.5803528
1493783220428	3.334549	-10.409912	0.599823
1493783220449	0.84199524	-10.424133	0.42739868
1493783220468	-0.996109	-9.733185	-0.19772339
1493783220489	-1.8488159	-9.612762	-1.257019
1493783220508	-1.8251648	-9.801514	-1.3223572
1493783220529	-0.5266113	-9.662476	-0.929245
1493783220548	1.44104	-9.543167	-0.47035217
1493783220567	3.174881	-9.414413	-0.07006836
1493783220587	3.6456604	-9.123932	-0.13034058
1493783220608	3.1095734	-9.129028	-0.4610443
1493783220626	2.5798035	-9.296371	-0.70155334
1493783220647	2.255066	-9.3354645	-0.9541931
1493783220666	1.7811279	-9.485138	-1.4876404
1493783220686	1.411377	-9.962662	-1.731308
1493783220707	1.5087433	-10.452881	-1.4028931
1493783220726	1.9373322	-10.47821	-1.4303894
1493783220753	1.9158936	-9.88678	-1.9562225
1493783220763	1.4422607	-9.00975	-3.04451
1493783220783	1.2501831	-8.328018	-4.100815
1493783220801	1.7799072	-8.754486	-3.7424316
1493783220821	3.0180664	-11.155426	-2.2500916
1493783220841	4.8672943	-14.513977	-0.07026672
1493783220864	5.8660583	-15.929413	0.49908447
1493783220885	2.7973785	-14.54184	0.5578003
1493783220903	-2.5290527	-12.633804	0.83480835
1493783220923	-4.491974	-10.871445	0.45680237
1493783220943	-1.9923859	-10.255203	0.9687042
1493783220964	1.7537079	-10.46666	2.0879364
1493783220983	2.7091217	-10.804642	0.7314453
1493783221003	1.2265778	-11.59552	-0.76023865
1493783221023	-1.1071625	-11.610596	-1.2444916
1493783221042	-2.6079865	-10.50032	-1.5040283
1493783221062	-2.677353	-8.838638	-0.6580963
1493783221083	-1.6677246	-7.309265	-0.07455444
1493783221102	-1.202652	-6.9501038	-0.7524872
1493783221122	0.13764954	-6.6751556	-0.35473633
1493783221138	2.1122131	-7.299362	0.050094604
1493783221162	2.0657654	-8.181702	0.13865662
1493783221181	0.83773804	-9.206955	-0.086135864
1493783221221	-0.71746826	-9.918228	-0.37423706
1493783221239	-1.7295532	-10.111908	-0.80122375
1493783221257	-2.3829956	-10.243637	-1.2604675
1493783221276	-2.110489	-9.736877	-1.8768616
1493783221296	-1.741333	-9.065216	-1.690918
1493783221316	-1.7814941	-9.056427	-1.7419739
1493783221336	-1.5642548	-9.525879	-2.146637
1493783221355	-1.0330505	-9.562042	-3.008194
1493783221376	-0.12619019	-8.885162	-2.9603271
1493783221398	0.5348358	-7.5881195	-1.8938293
1493783221415	0.8605194	-6.5158844	-0.2957306
1493783221435	0.77838135	-6.789963	2.1217804
1493783221457	-0.6719055	-9.627701	2.5751953
1493783221476	-1.0304871	-13.237549	1.24823
1493783221499	1.0249329	-14.739456	-1.2689056
1493783221519	3.606018	-13.8480835	-6.328842
1493783221536	3.1460266	-12.064438	-5.695389
1493783221558	1.5260162	-10.166992	-1.957901
1493783221577	1.9111023	-8.770599	1.700531
1493783221597	2.5661316	-8.099609	1.867096
1493783221616	2.3789673	-8.09581	0.56230164
1493783221636	1.6242981	-8.835144	-1.0110321
1493783221657	0.21018982	-10.041962	-2.3894043
1493783221676	-1.2332764	-10.543228	-2.8637543
1493783221696	-1.1369171	-10.104935	-2.3685303
1493783221715	-0.2796173	-9.598526	-1.7302856
1493783221737	0.6191101	-9.631775	-1.4437714
1493783221755	1.7380524	-9.884552	-0.9204712
1493783221771	2.08786	-9.80159	-0.5409088
1493783221791	0.95610046	-9.325027	-0.8777008
1493783221812	-0.4285736	-9.224503	-1.7170868
1493783221830	-0.13815308	-9.557907	-2.3312073
1493783221850	1.3106232	-9.819763	-2.475769
1493783221873	2.3230133	-9.709503	-2.454071
1493783221892	2.6089325	-9.199265	-2.1031036
1493783221912	2.2382965	-8.519318	-1.8499146
1493783221932	1.567215	-8.702744	-1.9965515
1493783221950	1.3503418	-9.036331	-1.8739166
1493783221973	1.2613068	-9.177002	-2.3650818
1493783221993	1.3542786	-9.327911	-2.7717285
1493783222013	0.89837646	-9.587341	-2.595459
1493783222034	0.25286865	-9.793961	-2.4074097
1493783222052	-0.06376648	-9.744492	-2.396576
1493783222072	-0.03529358	-9.669617	-1.8912201
1493783222094	0.21809387	-9.590134	-2.1005402
1493783222112	0.6425934	-9.77359	-2.4261475
1493783222131	1.610199	-9.974915	-2.255188
1493783222151	1.7767944	-10.066101	-2.296997
1493783222171	1.5718079	-10.477325	-2.2715454
1493783222190	1.068222	-10.718689	-2.6677094
1493783222212	0.58303833	-10.435318	-2.876831
1493783222228	0.24256897	-9.813385	-2.747589
1493783222253	-0.27874756	-9.315262	-2.7035065
1493783222266	-0.18945313	-9.094315	-2.4352417
1493783222306	0.30773926	-9.182007	-2.2227936
1493783222325	0.9507446	-9.118942	-2.4265442
1493783222345	1.9071503	-8.954163	-3.0576782
1493783222365	2.8014374	-8.972717	-3.370285
1493783222386	3.213913	-9.038849	-3.1172333
1493783222406	3.2718506	-8.98082	-3.3563385
1493783222426	3.1468964	-8.769791	-4.4509125
1493783222445	3.0621338	-8.892151	-5.790436
1493783222467	3.6423492	-8.938034	-5.6880646
1493783222486	3.3650208	-9.74765	-3.8986664
1493783222508	1.3136292	-11.658279	-3.2706604
1493783222525	-0.9746399	-13.337814	-3.6899872
1493783222543	-1.2460175	-14.885956	-4.6734924
1493783222563	-1.4463959	-14.536179	-4.126358
1493783222583	-1.7359772	-13.804092	-2.3005676
1493783222600	-2.8170776	-12.941818	0.30500793
1493783222620	-3.6164703	-11.823425	0.8048401
1493783222639	-3.3301697	-11.526672	0.42382813
1493783222660	-2.6529083	-11.057709	-0.84602356
1493783222679	-1.4712219	-10.204025	-1.729065
1493783222703	-0.784317	-8.765564	-0.76660156
1493783222722	-0.46118164	-7.035614	0.33233643
1493783222739	-0.46037292	-5.850952	0.5979309
1493783222759	-0.3070984	-5.4204254	0.4684906
1493783222778	0.05822754	-5.408661	-0.15068054
1493783222798	0.40841675	-5.547394	-1.2041016
1493783222818	0.16696167	-5.8435516	-2.7324677
1493783222837	-0.29890442	-6.261688	-4.421707
1493783222862	-0.43588257	-6.8850403	-5.926361
1493783222879	-0.7650757	-7.4157867	-6.4212036
1493783222902	-1.5354767	-7.986191	-6.339142
1493783222921	-2.1216888	-8.904266	-6.446045
1493783222941	-2.3613892	-9.899216	-6.619339
1493783222963	-2.66922	-10.413895	-6.4594574
1493783222984	-2.7844086	-9.923447	-6.1669617
1493783223002	-2.7418976	-8.17627	-6.141464
1493783223022	-3.161911	-6.038162	-4.523407
1493783223043	-5.354477	-7.064377	-1.6886139
1493783223062	-6.949936	-13.783447	-0.053985596
1493783223081	-4.6343384	-18.605377	-2.8179321
1493783223098	-0.14715576	-15.795731	-2.0121613
1493783223115	4.3002014	-8.665176	5.3774567
1493783223135	4.505188	-5.665573	9.865829
1493783223154	2.2043152	-7.9451294	8.321762
1493783223174	0.515625	-11.483276	5.3505554
1493783223194	1.8695221	-12.791855	2.0004272
1493783223214	5.6793213	-11.385971	-2.027542
1493783223234	6.1085052	-9.747772	-1.4720306
1493783223254	3.9280396	-8.849396	-0.46788025
1493783223273	1.8587189	-8.162598	-0.6669922
1493783223292	0.34658813	-8.474716	-2.263855
1493783223313	1.6148224	-9.492142	-0.7789612
1493783223332	3.4664001	-11.18486	-0.6798401
1493783223352	3.9644165	-11.380188	-0.5697632
1493783223372	3.8949127	-9.66655	-1.7297363
1493783223391	2.7806091	-8.811523	-1.2508698
1493783223412	0.3996277	-8.925018	0.63394165
1493783223451	-0.9507141	-8.690994	0.9189453
1493783223471	-0.7735748	-8.951248	0.63856506
1493783223490	1.618454	-10.268738	0.8139038
1493783223511	2.5181885	-10.595322	0.4459381
1493783223531	2.5040588	-10.085815	-0.81347656
1493783223550	3.1376648	-10.115845	-1.2035065
1493783223570	4.3431854	-10.443588	-0.7152252
1493783223590	4.7085876	-10.439484	-0.76908875
1493783223610	4.5123444	-10.204437	-1.5487213
1493783223629	4.1457977	-9.926163	-2.119995
1493783223649	4.294998	-9.858948	-2.4892273
1493783223669	5.2641907	-10.798126	-1.8313141
1493783223689	5.2612305	-12.366364	-1.578186
1493783223709	3.870819	-12.250717	-1.4511108
1493783223728	0.97457886	-11.795441	-0.95407104
1493783223747	-3.0610657	-13.724136	0.07621765
1493783223768	-6.0687103	-17.110016	2.307663
1493783223788	-6.276184	-18.526443	3.2747498
1493783223808	-4.5586395	-15.973236	1.0587006
1493783223827	-1.5096436	-12.712158	1.2073822
1493783223847	3.1638641	-10.574753	0.58532715
1493783223867	6.246994	-9.626053	-1.0417328
1493783223887	5.233963	-9.253555	0.5471649
1493783223907	1.4434509	-8.956192	1.1465912
1493783223926	-1.4948578	-7.815033	1.56781
1493783223948	-2.4687653	-6.3217773	1.8048401
1493783223966	-2.066452	-5.0026703	2.4115906
1493783223986	-1.3529358	-4.022888	2.9618835
1493783224006	-1.2653046	-3.665039	2.550888
1493783224025	-1.1739044	-3.848526	1.4065399
1493783224044	-1.130722	-4.603897	-0.20526123
1493783224065	-1.2411957	-5.8938446	-1.4307098
1493783224085	-1.3698425	-7.9115295	-3.6950378
1493783224104	-1.4566498	-10.624374	-6.981735
1493783224124	-1.3443909	-12.9218445	-9.373123
1493783224144	-1.5065308	-13.815018	-10.562607
1493783224164	-1.743988	-12.786819	-9.846558
1493783224184	-0.75094604	-11.290787	-6.8002014
1493783224203	-0.51474	-9.179977	-5.0676575
1493783224223	-1.7659607	-6.287964	-5.129318
1493783224243	-3.1885376	-4.7479706	-2.8527832
1493783224263	-5.409256	-8.286392	-1.2512207
1493783224283	-5.6260223	-17.051147	-3.0315704
1493783224303	-2.5127106	-19.474823	-3.9160614
1493783224322	4.437668	-11.761459	3.3061829
1493783224342	3.3295135	-4.8552704	10.362244
1493783224362	-0.5228119	-4.1493225	9.300812
1493783224382	-2.0003052	-7.697052	5.1324615
1493783224401	0.3346405	-12.030029	2.129181
1493783224421	5.326126	-13.180023	2.5559998
1493783224441	7.751953	-11.908279	1.0971985
1493783224461	5.406433	-9.526901	-0.88301086
1493783224481	1.9358215	-8.722519	-0.89024353
1493783224500	-0.95224	-8.569534	0.015075684
1493783224520	-2.1310577	-8.485153	-0.4973297
1493783224540	-2.143097	-9.302338	-0.07658386
1493783224560	0.75457764	-10.137756	0.29774475
1493783224599	3.8875275	-10.54863	-0.19448853
1493783224619	4.8369904	-9.711517	-1.3140869
1493783224639	3.283722	-9.156082	-1.6039581
1493783224659	1.9481812	-9.231888	-0.37696838
1493783224678	1.5067596	-9.629776	1.2740936
1493783224698	1.3380737	-9.826675	1.1126556
1493783224718	1.081253	-9.870224	0.6003418
1493783224738	0.8751068	-9.926071	-0.59750366
1493783224758	0.37408447	-9.976578	-0.578949
1493783224777	0.33241272	-10.171829	-0.651947
1493783224797	1.1186676	-10.39772	-0.42578125
1493783224817	2.6265106	-10.371613	-0.058761597
1493783224837	3.6256714	-9.813965	-0.0716095
1493783224856	3.8490906	-9.369736	0.24461365
1493783224877	2.953537	-9.558517	0.06680298
1493783224896	2.4510193	-10.052353	-2.354538
1493783224916	3.230011	-10.699432	-2.4810638
1493783224936	4.923889	-11.381607	-1.6883698
1493783224955	6.7207184	-11.940353	-0.46949768
1493783224975	6.150528	-12.427658	0.2789917
1493783224995	0.6619568	-11.665146	-0.9707489
1493783225015	-4.5105896	-12.442368	-0.41226196
1493783225035	-4.646866	-15.062012	2.3164368
1493783225056	-2.8684845	-16.021347	3.1683502
1493783225074	-0.9992676	-14.663559	2.4499512
1493783225094	0.35090637	-12.304199	1.2564087
1493783225114	0.59091187	-10.997269	-0.14292908
1493783225134	0.9347229	-10.570923	0.4386444
1493783225153	1.2639923	-9.970352	1.2704315
1493783225173	1.2911224	-8.968613	0.6739044
1493783225193	1.5667114	-7.75972	0.8516083
1493783225213	1.7047577	-6.5566406	1.571991
1493783225233	1.1255493	-5.867874	1.9900818
1493783225253	0.5516968	-5.7211456	1.780014
1493783225272	0.5328064	-5.7220917	1.2896881
1493783225292	0.4597168	-6.141968	0.61183167
1493783225312	0.2240448	-7.1973724	-0.37768555
1493783225332	0.25898743	-8.787567	-1.6609192
1493783225352	0.9628601	-10.444275	-2.5639343
1493783225371	0.66093445	-11.926575	-3.5835724
1493783225391	0.45394897	-12.145645	-4.392395
1493783225411	-0.38601685	-11.770157	-2.7698364
1493783225431	-0.96469116	-11.438492	-0.8629761
1493783225451	-1.5713806	-10.541519	-0.3121338
1493783225470	-2.1421204	-8.738663	-1.3145142
1493783225490	-2.5881348	-7.928787	-0.52841187
1493783225510	-3.1696472	-8.714951	1.2951965
1493783225530	-2.2600708	-10.844299	1.9210358
1493783225550	0.70544434	-12.072296	1.2839355
1493783225569	2.5386658	-11.823044	1.6882629
1493783225589	2.3157654	-11.69487	0.6413727
1493783225608	2.1870728	-11.432465	0.6128082
1493783225629	2.8019714	-10.303665	1.3500977
1493783225648	3.2791443	-8.524216	1.0471191
1493783225668	3.6572266	-7.720413	0.44355774
1493783225688	2.9740143	-8.743393	1.4804688
1493783225707	1.0648499	-10.009003	0.5559387
1493783225748	-0.6672516	-10.710983	-0.18965149
1493783225768	-1.7744751	-10.607239	-1.7507477
1493783225787	-1.0252075	-10.437378	-2.9469757
1493783225807	1.3232269	-10.106796	-2.440155
1493783225827	2.2163696	-10.77179	-1.8394012
1493783225846	2.122223	-10.207153	-0.23136902
1493783225866	1.4830627	-10.064041	1.51857
1493783225886	1.5110016	-9.322006	3.3619385
1493783225906	1.4169617	-8.871902	3.730484
1493783225926	1.5702515	-8.934372	3.0823517
1493783225946	1.7344666	-9.342331	1.1987915
1493783225964	2.0549164	-9.806717	0.3018341
1493783225985	2.1180725	-10.059448	0.42523193
1493783226005	1.7334747	-10.108871	0.26333618
1493783226025	1.4664307	-10.026138	0.22544861
1493783226044	1.6477966	-9.997223	0.33648682
1493783226063	2.1933594	-9.82692	0.4353943
1493783226084	2.823822	-9.646393	0.7897949
1493783226104	3.045929	-9.550415	0.9103546
1493783226124	3.1684113	-9.486923	0.68626404
1493783226143	3.8623962	-9.970963	0.61053467
1493783226163	4.029022	-11.19577	0.706131
1493783226183	2.0695496	-11.774918	0.26435852
1493783226203	-0.64642334	-11.291611	-1.6458435
1493783226222	-1.5542297	-11.102921	-3.813202
1493783226242	-1.1104889	-11.636688	-4.6024933
1493783226261	-0.5752411	-11.978363	-3.6550446
1493783226295	-0.2980957	-11.948563	-1.5916443
1493783226302	0.12870789	-12.079636	-0.39479065
1493783226321	0.9465637	-11.600555	-0.10983276
1493783226341	1.4157104	-10.33197	-0.3419037
1493783226361	2.150711	-9.121262	0.3025818
1493783226387	3.8616943	-8.647919	2.1704407
1493783226406	4.5158234	-8.774033	3.004303
1493783226426	2.557129	-9.628204	1.6671753
1493783226446	0.420578	-10.577499	-0.054153442
1493783226464	-0.7042389	-10.9171295	-0.4238739
1493783226486	-0.8786621	-10.326218	-0.16801453
1493783226505	-0.6937103	-9.5590515	-0.078201294
1493783226525	-1.1273041	-8.990936	-0.31227112
1493783226545	-1.5059204	-8.608139	-0.39183044
1493783226564	-1.803833	-8.380371	-0.52420044
1493783226584	-2.094513	-8.15126	-0.77711487
1493783226604	-2.2175598	-7.7027435	-1.1039124
1493783226624	-2.2735138	-7.242676	-1.443039
1493783226644	-2.2982483	-7.195175	-1.9959259
1493783226663	-1.7033386	-7.636444	-2.9282074
1493783226684	-0.6963959	-9.084305	-4.247864
1493783226703	-0.6333618	-10.1744995	-4.866974
1493783226722	-0.89649963	-10.397614	-5.51857
1493783226739	-0.98594666	-9.827438	-5.4915314
1493783226758	-1.4396667	-9.143478	-4.6826324
1493783226777	-1.3437195	-8.281464	-4.369873
1493783226798	-1.1773987	-8.164078	-5.258911
1493783226817	-2.255127	-10.60173	-3.8792572
1493783226838	-4.1862335	-16.285385	-2.5871124
1493783226858	-2.0183563	-17.131561	-4.0186005
1493783226898	1.6741333	-10.860748	-0.51379395
1493783226918	1.4998627	-6.0594635	4.7085266
1493783226942	-1.2164612	-5.4075317	6.234543
1493783226959	-2.7209473	-7.154999	3.7791595
1493783226976	-1.2582245	-11.123047	3.5393524
1493783226997	1.9754791	-11.4095	2.2127533
1493783227016	5.700409	-12.093887	1.6334076
1493783227037	7.709488	-10.881332	0.2705078
1493783227056	5.285446	-10.090561	0.28614807
1493783227076	1.7093506	-9.496048	-0.37069702
1493783227096	-0.53453064	-9.027817	-0.46679688
1493783227117	-1.8315582	-9.300232	-0.06843567
1493783227137	-2.0711212	-9.662674	-0.013305664
1493783227156	-0.4492798	-9.868057	0.06498718
1493783227173	1.8351593	-9.72113	0.13623047
1493783227196	3.0780792	-9.469757	0.0017852783
1493783227216	2.9438019	-9.26709	0.48446655
1493783227236	1.8184814	-8.987625	1.5970917
1493783227254	1.1203918	-9.088562	1.3353729
1493783227276	1.332901	-9.731934	1.0047913
1493783227293	1.6587067	-10.255081	0.29553223
1493783227312	1.6610413	-10.3281555	-0.38560486
1493783227332	1.4244537	-10.492783	-0.7706909
1493783227353	1.2252808	-10.705322	-0.7726288
1493783227374	1.4860535	-10.708801	-0.5324402
1493783227395	2.190506	-10.621002	-0.5964508
1493783227414	2.9437866	-10.5590515	-0.69911194
1493783227434	3.1710358	-10.382721	-0.7240906
1493783227452	2.5433807	-9.91037	-0.74124146
1493783227471	2.2850494	-10.572815	-1.3771362
1493783227492	3.6371765	-11.969223	-1.575592
1493783227511	4.7754974	-12.286179	-2.0785065
1493783227531	4.2252197	-11.746872	-3.248581
1493783227551	3.1533508	-10.74263	-2.676422
1493783227571	1.5718689	-10.378433	-1.4101715
1493783227588	-1.1806335	-12.020905	-0.035308838
1493783227611	-3.3484192	-15.411713	1.213028
1493783227632	-3.0797424	-16.9832	1.3336945
1493783227651	-1.2384338	-14.562637	0.94389343
1493783227671	0.71702576	-11.751877	2.0429535
1493783227691	3.4769287	-10.318558	0.6663666
1493783227710	4.7474213	-10.06575	0.47019958
1493783227731	3.7712708	-10.501801	0.66778564
1493783227748	0.8791199	-10.29187	-0.220932
1493783227766	-1.1064758	-8.95401	-0.29418945
1493783227787	-0.8097992	-6.843811	0.4971161
1493783227806	-0.6969757	-5.058258	0.86857605
1493783227826	-1.5117798	-4.3633423	0.7111206
1493783227846	-1.848587	-3.9808807	0.631897
1493783227871	-2.3965912	-4.2517853	0.22277832
1493783227890	-1.851593	-4.2660675	-0.5596771
1493783227912	-1.4802246	-4.774582	-1.5905457
1493783227932	-1.2106628	-5.521652	-3.2657013
1493783227951	-1.2597656	-7.2622223	-6.7492523
1493783227972	-0.61665344	-10.153717	-9.459091
1493783227988	0.28694153	-13.1983185	-9.265915
1493783228010	0.62893677	-13.4604645	-8.047836
1493783228028	-0.68774414	-10.705139	-5.9834137
1493783228068	-2.2102509	-7.2700653	-5.1163177
1493783228085	-3.6124725	-5.8766937	-3.6732635
1493783228109	-7.6280365	-12.948593	-2.0932007
1493783228128	-5.451065	-19.474823	-3.2272797
1493783228148	0.99520874	-18.705185	-2.7859802
1493783228168	3.8484802	-9.4496155	2.4078064
1493783228188	1.4763947	-4.0708466	7.668747
1493783228208	-0.37077332	-5.0357056	6.6337585
1493783228227	-0.32818604	-7.485718	3.1809845
1493783228246	0.7384949	-11.198654	2.905136
1493783228273	4.113632	-13.465897	0.657074
1493783228282	6.7158356	-12.926727	-0.48239136
1493783228302	5.4144135	-10.867767	-0.41716003
1493783228324	2.283905	-9.568893	-0.02406311
1493783228342	-0.1399231	-8.659836	-0.43865967
1493783228361	-1.1833801	-8.752457	-0.47711182
1493783228383	-0.3252716	-9.230591	0.1212616
1493783228403	0.8645325	-9.715546	0.7778473
1493783228422	1.9750214	-9.826569	0.52975464
1493783228443	2.5942383	-9.3246765	0.08732605
1493783228463	2.101883	-8.724091	-0.010299683
1493783228482	1.2297516	-8.4266815	0.0942688
1493783228502	0.85002136	-8.735428	-0.19248962
1493783228521	1.4437866	-9.430847	-0.86231995
1493783228542	2.4919586	-9.905045	-1.225769
1493783228563	2.6824188	-9.906021	-1.5188751
1493783228582	2.1509247	-9.775192	-1.6558075
1493783228602	1.6521759	-10.094833	-1.7839813
1493783228620	1.8842926	-10.854874	-1.8067169
1493783228641	2.8586426	-11.20697	-1.4413147
1493783228660	3.3025055	-10.780975	-1.0398102
1493783228679	2.282669	-10.675644	-0.7983551
1493783228696	0.7733154	-10.940277	-1.5532074
1493783228716	1.2113342	-11.961929	-2.8192902
1493783228736	3.8246002	-13.0303955	-3.6890411
1493783228756	6.6731415	-12.7135315	-2.4606018
1493783228776	6.518341	-11.621353	-1.4860535
1493783228795	2.9241943	-10.648621	-1.2078247
1493783228815	-1.6617279	-12.055908	0.076431274
1493783228835	-3.0970612	-14.644852	2.521347
1493783228859	-0.60954285	-15.039963	3.9468842
1493783228875	3.266449	-13.037704	3.6092377
1493783228896	7.3761597	-10.713135	1.166626
1493783228917	9.397354	-9.9045105	-1.5925903
1493783228937	7.310486	-10.590958	-1.2126923
1493783228960	3.9460907	-11.053741	1.0264435
1493783228979	1.4649506	-9.709869	1.6062317
1493783228996	0.86724854	-8.402573	2.1372375
1493783229019	0.05621338	-7.521576	2.6112366
1493783229042	-0.50323486	-6.97818	2.9174347
1493783229059	-1.5102539	-6.7662964	3.1452637
1493783229078	-2.2228088	-6.394699	2.28656
1493783229095	-2.678833	-6.092819	1.3668671
1493783229118	-2.856369	-6.0510864	0.32748413
1493783229157	-3.8240814	-7.0006714	-0.557251
1493783229177	-3.7759247	-7.521118	-0.66241455
1493783229194	-3.0242157	-8.369034	-1.6230774
1493783229217	-1.5254364	-9.73793	-4.5456085
1493783229235	0.7501221	-10.667404	-8.084946
1493783229258	2.4325256	-12.590897	-10.117722
1493783229281	2.7442627	-14.157562	-10.259048
1493783229292	1.8786926	-12.27771	-7.80748
1493783229311	-0.8000641	-8.811386	-5.4026947
1493783229333	-1.6001434	-8.161301	-4.736496
1493783229351	-1.7333679	-13.550827	-2.81839
1493783229371	-0.18885803	-16.199326	1.9470367
1493783229390	-0.24845886	-9.2439575	4.350403
1493783229415	-1.4777374	-6.2538757	4.2375336
1493783229434	-2.245163	-5.766144	5.3759155
1493783229455	-1.9997406	-8.106247	5.8193207
1493783229474	-0.6986084	-12.141647	3.8074188
1493783229494	3.6785583	-13.078918	2.8762817
1493783229514	7.457306	-11.190598	1.4423218
1493783229533	6.0162964	-9.99202	-0.076828
1493783229554	1.8576202	-9.698212	-0.2940979
1493783229573	-1.0437622	-9.325302	0.4010315
1493783229592	-2.2090607	-9.326019	0.8973999
1493783229613	-1.678009	-9.645767	-0.0069732666
1493783229632	0.46347046	-9.939087	-1.0681458
1493783229654	2.9821014	-9.598206	-1.0182648
1493783229672	3.8487244	-9.10437	0.3410797
1493783229690	2.643097	-8.902222	2.583252
1493783229714	0.4851532	-9.032654	2.866394
1493783229731	-0.6578827	-9.100815	1.6177521
1493783229750	-0.38572693	-9.445633	0.6569824
1493783229769	0.98490906	-10.418289	0.24409485
1493783229789	1.8195648	-11.207581	0.21575928
1493783229806	1.7470245	-11.320175	-0.7622833
1493783229826	2.0088348	-11.2795105	-1.7498169
1493783229846	2.9231567	-11.135727	-1.7331085
1493783229866	3.8936615	-11.166092	-1.3334656
1493783229886	3.8654327	-11.117615	-1.1236877
1493783229907	2.2442932	-10.776871	-2.5479584
1493783229928	2.233551	-10.883209	-4.416382
1493783229947	4.7170563	-11.6718445	-4.2530518
1493783229967	7.682495	-11.567215	-2.0308533
1493783229986	7.739395	-11.644226	-0.8181305
1493783230009	1.7703857	-12.177902	0.26460266
1493783230028	-4.0115204	-14.540329	0.9926605
1493783230048	-6.2635345	-17.689484	2.9694824
1493783230068	-5.044876	-16.770264	2.7810364
1493783230087	-2.8374481	-13.708237	1.3556976
1493783230107	-0.019943237	-11.028076	0.7424927
1493783230127	3.856903	-9.560791	-0.8327484
1493783230145	5.076523	-9.682907	-0.20524597
1493783230167	3.8672485	-9.491287	1.5443726
1493783230186	1.3026581	-8.603516	2.266983
1493783230204	-0.85523987	-6.9937286	2.7796173
1493783230226	-1.6974182	-5.290573	2.5512085
1493783230247	-2.1240845	-4.3161774	2.5140228
1493783230263	-2.539505	-4.017044	2.0011444
1493783230302	-2.2265472	-4.617111	1.4718628
1493783230321	-1.3426666	-5.1283264	0.3722229
1493783230343	-1.0556793	-5.742676	-0.7281647
1493783230361	-1.0985107	-6.690689	-1.5430298
1493783230380	-1.4741364	-8.338974	-3.2234497
1493783230401	-1.5752411	-11.163895	-8.369736
1493783230422	0.17492676	-14.899185	-13.303696
1493783230443	1.3214111	-16.136185	-12.07048
1493783230462	0.9392395	-12.856247	-6.8002777
1493783230481	-0.93211365	-8.293091	-4.7638702
1493783230503	-2.8283386	-5.4230194	-4.6532745
1493783230523	-5.006378	-9.126175	-3.9114838
1493783230542	-5.940384	-16.354721	-2.7307434
1493783230563	-1.6154022	-17.968704	-0.18920898
1493783230582	1.9826355	-13.928986	1.5775604
1493783230602	1.8920898	-6.4389496	6.314804
1493783230622	0.3206482	-4.6649323	8.153564
1493783230642	0.34269714	-6.1358795	6.4826202
1493783230664	0.61557007	-10.477554	3.4429474
1493783230681	3.6495209	-13.48317	1.686615
1493783230700	7.512985	-12.739929	0.14677429
1493783230723	6.5560303	-10.15863	-1.0311737
1493783230740	2.3717346	-8.563675	-0.80981445
1493783230759	-1.1787415	-8.25235	-0.5215149
1493783230779	-2.7784119	-8.60318	0.061538696
1493783230796	-2.3102417	-9.3407135	-0.084243774
1493783230819	0.11117554	-9.806946	0.033309937
1493783230835	3.1633759	-9.851364	0.11695862
1493783230855	4.249359	-9.59639	-0.7981262
1493783230875	3.3181458	-9.219543	-0.50917053
1493783230896	1.7700806	-8.856552	0.6295166
1493783230917	1.007782	-8.717865	0.74845886
1493783230936	1.0635529	-8.996033	0.3182068
1493783230957	1.5558319	-9.578537	0.1869049
1493783230976	1.6930847	-10.225281	-0.33113098
1493783230997	1.538681	-10.750641	-1.2910767
1493783231018	1.9867706	-11.104416	-1.8273315
1493783231037	3.2045898	-11.057541	-1.5111389
1493783231057	5.2937775	-10.575775	-0.26187134
1493783231077	6.5988617	-10.763672	0.9992981
1493783231096	5.5404816	-12.113647	0.01966858
1493783231117	2.8128967	-13.042007	-1.5934448
1493783231136	3.2209473	-12.753906	-2.7588654
1493783231156	3.4279175	-12.200027	-2.9822845
1493783231176	-0.066726685	-11.119843	-2.475586
1493783231196	-3.4290466	-11.411758	-1.9407806
1493783231215	-4.4590607	-13.603714	1.2143097
1493783231235	-4.2266846	-16.112976	3.8602753
1493783231255	-3.055191	-16.091217	2.8106537
1493783231276	-1.4219513	-13.765167	0.47879028
1493783231312	0.11871338	-11.843857	0.90937805
1493783231312	1.1838379	-10.136047	1.2042236
1493783231332	2.3379364	-9.509186	-0.06838989
1493783231349	1.7479706	-8.981491	0.36743164
1493783231370	0.48490906	-8.056656	0.872345
1493783231390	-0.4559021	-6.9937744	1.2617798
1493783231432	-0.6990509	-6.215561	1.7507782
1493783231449	-0.62942505	-4.974457	1.6239014
1493783231469	-0.82144165	-4.5151215	1.9489899
1493783231489	-1.4943848	-4.3542175	1.7916412
1493783231508	-1.5729828	-4.3488464	1.1195831
1493783231528	-1.1322937	-4.4871826	0.13703918
1493783231548	-0.8029785	-5.4898834	-1.3744202
1493783231566	-0.5285187	-7.442932	-3.2896576
1493783231587	-0.18826294	-11.1418915	-7.921036
1493783231610	0.5296631	-15.25824	-11.841766
1493783231631	-0.029251099	-15.434189	-12.825729
1493783231650	-1.3975525	-12.440109	-10.073914
1493783231667	-1.7197418	-10.069214	-6.084732
1493783231686	-1.7187805	-9.297455	-4.405655
1493783231704	-3.4387207	-11.736542	-5.107956
1493783231725	-4.564316	-15.709854	-4.4796906
1493783231744	-3.5881653	-14.171555	-1.2408905
1493783231766	-1.290451	-8.9783325	3.8158875
1493783231785	-0.0745697	-5.6793976	6.19722
1493783231807	0.18989563	-5.8412323	7.6053314
1493783231823	0.9048462	-8.636993	6.785095
1493783231843	2.8068237	-11.578873	4.520569
1493783231863	5.213623	-13.182739	2.1353455
1493783231885	6.9680023	-12.628952	0.0068511963
1493783231904	6.227585	-10.781143	-0.7722931
1493783231926	3.4893494	-9.20163	-0.14396667
1493783231945	0.9107208	-8.298523	0.8952179
1493783231967	-1.340622	-8.08342	1.0968475
1493783231987	-2.8126068	-8.800888	-0.09629822
1493783232006	-2.1336975	-9.794022	-0.49578857
1493783232028	0.58766174	-10.294342	0.2939148
1493783232046	3.776062	-9.901657	0.9845123
1493783232067	4.6995697	-9.5256195	0.008453369
1493783232087	4.00943	-9.408279	-0.6939392
1493783232105	3.1383972	-9.400162	-0.29322815
1493783232126	2.8693695	-9.475555	0.27833557
1493783232145	2.5918732	-9.419266	0.35127258
1493783232165	1.7872009	-9.38678	-0.19212341
1493783232185	0.9112549	-9.753555	-0.6034546
1493783232205	1.4029083	-10.257126	-0.6967468
1493783232225	2.5121918	-10.449493	-1.3794098
1493783232245	3.1044617	-10.421478	-1.9336853
1493783232264	3.6464844	-10.1883545	-1.425354
1493783232283	4.156891	-10.02211	-0.6448517
1493783232304	4.1513214	-10.17482	-1.6253815
1493783232320	4.0793457	-11.069275	-3.174881
1493783232339	5.5646057	-13.456131	-1.9054413
1493783232359	6.6310425	-14.006317	0.46728516
1493783232379	2.2533417	-12.046875	-1.6277008
1493783232399	-4.7552643	-11.505753	-3.2543488
1493783232421	-8.442612	-14.750534	-0.06858826
1493783232440	-7.4661713	-18.56372	3.1444702
1493783232462	-4.8277283	-18.108215	2.6830444
1493783232482	-1.521164	-14.635056	1.9720306
1493783232499	1.85112	-11.302216	1.1269989
1493783232518	3.9961395	-10.092453	-2.281372
1493783232543	6.1498413	-9.900925	-0.75619507
1493783232581	3.1247253	-9.732361	1.5219879
1493783232602	0.1121521	-8.179947	0.76828
1493783232618	-0.8977814	-6.775818	0.9002533
1493783232643	-0.17974854	-5.4893646	1.5307465
1493783232662	0.06913757	-4.2256165	2.0066376
1493783232680	-1.5612946	-4.2103577	1.6648102
1493783232699	-2.4409943	-4.5517426	1.1054535
1493783232720	-1.9316711	-4.5903625	0.119018555
1493783232740	-0.8787384	-4.6332397	-0.69784546
1493783232759	-0.1455841	-4.958496	-1.5657196
1493783232778	-0.2036438	-5.9516907	-3.4754639
1493783232803	-1.1864929	-7.549942	-5.6888275
1493783232814	-2.246399	-9.646408	-7.749176
1493783232834	-2.1125488	-11.756821	-9.160278
1493783232854	-0.683548	-12.44516	-9.20459
1493783232874	0.027160645	-12.203262	-8.319855
1493783232893	-0.44883728	-11.457748	-7.269165
1493783232915	-1.4373779	-9.554886	-5.717041
1493783232935	-2.4720001	-6.435852	-4.7142944
1493783232956	-3.9310913	-5.7744446	-3.2521667
1493783232975	-6.56427	-10.820663	-1.7147522
1493783232995	-6.851944	-17.5018	-3.1978302
1493783233014	-2.7826538	-19.23909	-4.419235
1493783233036	2.8805237	-12.95726	0.26690674
1493783233056	4.737442	-3.128891	8.188263
1493783233076	1.5467987	-1.6559143	10.353638
1493783233095	-0.66448975	-5.6955566	6.9026947
1493783233113	0.97665405	-11.929718	3.464569
1493783233135	4.6158752	-14.579651	2.242508
1493783233155	8.232437	-12.726883	1.1114349
1493783233174	8.096054	-11.138367	-0.024429321
1493783233195	3.636734	-9.525757	-0.8535156
1493783233213	-0.105148315	-8.160873	-1.0405731
1493783233235	-1.9604645	-8.127274	-0.8793335
1493783233253	-3.1166077	-9.775009	-1.8946381
1493783233273	-1.7790833	-10.895889	-1.8808746
1493783233292	2.0128784	-10.35376	-0.7362213
1493783233308	4.8870697	-9.38974	-0.15660095
1493783233332	5.1298523	-8.940903	0.20825195
1493783233349	3.723587	-9.019394	1.1302185
1493783233368	1.9732056	-8.931412	1.439743
1493783233388	0.9214325	-8.778229	1.3822937
1493783233411	0.82484436	-8.9999695	1.2259674
1493783233431	0.56199646	-9.281021	0.8148346
1493783233449	0.35794067	-9.4216	0.17933655
1493783233470	0.5891266	-10.088959	-0.82141113
1493783233490	1.4268188	-10.77066	-1.0994415
1493783233513	3.0592346	-10.799805	-1.4914093
1493783233530	5.2626343	-10.646393	-1.1159668
1493783233551	6.188904	-10.598038	-0.17871094
1493783233573	5.0993958	-10.768066	-0.64356995
1493783233589	2.7572174	-11.843277	-1.9394989
1493783233609	2.6942444	-14.445938	-1.322113
1493783233626	4.2908783	-13.811447	-3.5949707
1493783233652	5.3555756	-11.943985	-3.489914
1493783233689	2.3261719	-9.696381	-1.6321411
1493783233709	-1.3093414	-10.167313	-1.3883057
1493783233726	-4.023285	-13.662231	1.9246368
1493783233749	-4.7622833	-17.43892	4.143692
1493783233767	-3.9304657	-17.098038	1.8626556
1493783233787	-1.3784332	-13.84523	0.146698
1493783233806	1.9233856	-11.112259	2.0479736
1493783233826	4.4041443	-10.186066	-1.8030548
1493783233843	5.619858	-9.242645	0.39938354
1493783233863	3.113861	-9.043274	1.8575287
1493783233883	0.16381836	-8.119949	2.0503082
1493783233903	-1.6540527	-6.779129	1.3749542
1493783233924	-1.554596	-5.6495667	2.327774
1493783233945	-1.0397797	-4.790161	2.6667175
1493783233963	-1.5269318	-4.2464447	2.1771545
1493783233984	-1.6737213	-3.95047	1.7669983
1493783234004	-1.3782959	-4.13472	0.80836487
1493783234024	-1.1259308	-4.745819	-0.48231506
1493783234046	-1.2512512	-5.791992	-2.0128632
1493783234065	-1.5929718	-7.5350647	-4.207611
1493783234085	-2.198883	-10.57341	-7.608734
1493783234105	-1.7115173	-14.266434	-11.354813
1493783234124	0.13909912	-15.937378	-12.989548
1493783234145	0.72753906	-13.590576	-9.315323
1493783234164	0.14611816	-9.992538	-5.974533
1493783234184	-2.0932617	-7.5168	-4.9059296
1493783234202	-4.728348	-10.249649	-4.686203
1493783234224	-5.357483	-15.522507	-3.7338715
1493783234244	-3.572403	-15.725906	-0.5312195
1493783234263	-0.6007538	-10.909988	3.2534027
1493783234283	0.8740692	-6.2462463	5.5427246
1493783234299	0.65678406	-5.6900177	7.296524
1493783234318	1.3633728	-7.905304	7.188019
1493783234342	2.5239716	-11.414749	4.661499
1493783234358	4.425064	-13.202988	1.1638947
1493783234378	7.1057587	-12.775681	-0.10826111
1493783234397	5.948456	-10.863388	-0.86709595
1493783234418	2.4931335	-8.935822	-0.8595276
1493783234442	-0.08882141	-8.107193	0.12780762
1493783234462	-1.7595978	-8.45256	0.28302002
1493783234481	-1.9818115	-9.14299	0.16618347
1493783234501	-1.043045	-9.80394	0.10583496
1493783234520	1.3256226	-9.791443	0.5141144
1493783234540	3.0293732	-9.50795	-0.41589355
1493783234560	3.2200165	-9.137421	-1.2748108
1493783234582	2.5162506	-9.082916	-1.0295715
1493783234600	1.949173	-9.559128	-0.22279358
1493783234619	2.222107	-9.546997	0.6478729
1493783234638	2.645218	-9.274918	-0.027008057
1493783234659	2.0957184	-10.280334	-0.91326904
1493783234676	1.3383942	-11.305252	-1.2571106
1493783234695	2.2480469	-11.181488	-1.7195129
1493783234714	3.6547394	-10.924835	-1.1481934
1493783234734	4.5420685	-10.626831	-0.3217926
1493783234754	4.773712	-10.619644	-0.31022644
1493783234792	3.1132965	-11.56427	-2.0008545
1493783234811	2.9783478	-14.327667	-3.0812988
1493783234831	4.845169	-13.922546	-3.7520447
1493783234851	4.3692017	-11.201141	-2.0396423
1493783234870	1.1871338	-9.83548	-2.7179108
1493783234891	-3.6515808	-10.037857	-1.8694305
1493783234912	-5.098633	-13.253204	0.87586975
1493783234931	-3.5787811	-15.816956	3.15773
1493783234951	-1.2634125	-15.368332	2.6965637
1493783234970	1.3853455	-13.037109	1.4447479
1493783234995	4.1445465	-10.982483	0.16065979
1493783235014	5.4453278	-9.728256	-1.342865
1493783235032	3.9648438	-9.709488	0.07145691
1493783235054	1.1352997	-9.398148	1.429718
1493783235073	-0.5970764	-8.424271	1.3610382
1493783235094	-0.7445221	-6.890167	0.92471313
1493783235113	-0.66552734	-5.959839	1.377182
1493783235135	-0.8310394	-5.777664	2.008789
1493783235152	-1.4832458	-5.546707	1.923111
1493783235173	-1.8211823	-5.0957947	1.2337036
1493783235193	-1.552887	-4.4211273	0.571579
1493783235213	-1.653122	-4.664963	-0.38206482
1493783235234	-1.8705597	-6.1815796	-1.4421997
1493783235253	-1.677185	-8.280869	-2.7378387
1493783235271	-1.2962189	-11.327591	-6.256027
1493783235289	-0.25224304	-14.347	-10.279724
1493783235310	0.87020874	-14.270584	-10.612595
1493783235329	1.2396545	-11.232849	-8.154068
1493783235348	0.8975525	-8.673492	-5.4642944
1493783235367	-0.2157898	-7.6535187	-5.085602
1493783235387	-1.9125671	-9.802444	-6.625778
1493783235407	-3.0520325	-15.900818	-5.6436768
1493783235427	-1.8435364	-17.502258	-1.6420746
1493783235451	-0.06059265	-11.956741	2.2823944
1493783235472	-0.77420044	-6.7641907	4.694214
1493783235490	-2.6907196	-5.4207916	6.0140076
1493783235510	-2.6049042	-6.256363	6.074936
1493783235528	-0.667984	-9.453064	5.396103
1493783235550	2.5292816	-12.411407	4.261429
1493783235569	6.4521027	-12.966507	2.3019257
1493783235589	7.7169952	-11.560654	-0.0995636
1493783235609	4.990906	-10.000778	-1.4323425
1493783235628	1.2972412	-9.201202	-0.48416138
1493783235649	-1.128952	-8.852798	0.77656555
1493783235668	-2.092743	-8.751129	0.8877716
1493783235688	-1.8635254	-9.689865	0.45887756
1493783235708	0.3639679	-10.485107	0.22111511
1493783235727	2.8454285	-10.665665	-0.88630676
1493783235747	3.5920715	-9.892807	-1.7661743
1493783235767	3.1783447	-9.414886	-0.7615967
1493783235786	2.5095978	-9.072159	1.0359497
1493783235805	2.0742493	-9.050171	1.6248016
1493783235825	1.7855835	-9.376572	1.2133789
1493783235843	1.566742	-9.736877	-0.42504883
1493783235862	1.1851196	-9.692108	-1.0765839
1493783235881	1.0620117	-9.811798	-1.4346161
1493783235903	1.6140442	-10.075104	-0.75679016
1493783235942	2.7781525	-10.358414	-0.6388855
1493783235963	4.3674316	-10.388412	-0.34510803
1493783235983	4.5244293	-10.102768	0.08769226
1493783236003	2.3911133	-10.115204	-1.500412
1493783236024	0.9715729	-10.558624	-3.544464
1493783236043	3.8060608	-11.612274	-3.013214
1493783236064	6.4907074	-12.751038	-2.4078522
1493783236082	6.4122925	-12.493195	-1.275528
1493783236104	2.344101	-10.930695	-0.8508606
1493783236123	-2.5042877	-11.611191	-0.7577362
1493783236145	-4.8792877	-15.188217	2.055725
1493783236163	-4.950363	-17.730392	3.3311005
1493783236182	-2.9055786	-16.298904	0.9013519
1493783236203	-0.11260986	-13.579178	-0.53796387
1493783236222	1.711319	-11.784729	0.1517334
1493783236239	4.2075653	-9.970734	1.109726
1493783236262	4.6970673	-9.386917	0.7017975
1493783236282	2.1904602	-9.057983	0.7264099
1493783236300	0.043289185	-8.016998	0.8858795
1493783236326	-0.7279968	-6.387329	1.4540558
1493783236337	-0.9050751	-5.1953278	2.2521667
1493783236357	-0.84291077	-4.51709	2.3688507
1493783236376	-1.1514282	-4.4976044	2.4002228
1493783236396	-1.3187408	-4.579605	1.8120422
1493783236416	-1.4507141	-4.8237915	0.46350098
1493783236438	-1.6627045	-5.744507	-0.9824066
1493783236460	-1.7713318	-7.4921265	-2.0095825
1493783236479	-1.9281921	-10.035706	-4.202469
1493783236499	-1.4001312	-13.296799	-8.592026
1493783236519	-0.18128967	-15.154022	-11.501022
1493783236537	0.18919373	-13.332748	-10.512512
1493783236559	-0.20300293	-10.557083	-7.163269
1493783236576	-0.6265259	-9.068924	-4.4496613
1493783236598	-1.0134888	-7.4908905	-4.4388733
1493783236618	-1.5915985	-6.8880615	-4.5334167
1493783236637	-3.5837402	-10.4095	-2.8375244
1493783236658	-4.4740906	-15.746719	-1.2093506
1493783236677	-1.6401215	-15.952621	-0.301239
1493783236697	1.2926788	-10.473114	1.2943573
1493783236717	1.2502441	-6.082199	4.894333
1493783236735	-0.42347717	-5.604019	6.8476715
1493783236757	-0.48519897	-7.990036	4.6146545
1493783236776	2.214264	-11.443161	3.0102234
1493783236796	6.749069	-12.150925	1.4651642
1493783236816	7.806778	-11.237686	-0.39424133
1493783236844	4.341278	-10.10527	-1.2543335
1493783236852	0.9660187	-9.61113	-0.6863098
1493783236872	-1.8737793	-9.323959	-0.40415955
1493783236891	-2.7025757	-8.915237	-0.3201294
1493783236912	-2.4013062	-9.078278	-0.18544006
1493783236931	-0.20661926	-9.640228	-0.025039673
1493783236953	2.1231842	-9.565445	0.03213501
1493783236972	3.173523	-9.324936	-0.9811096
1493783236993	2.348999	-9.11171	-1.4266357
1493783237012	2.075821	-9.10347	-0.4837494
1493783237031	2.4743347	-9.392273	0.15644836
1493783237073	2.4047241	-9.568268	0.03929138
1493783237074	2.9564667	-9.9236145	-1.2512207
1493783237093	3.3958435	-9.62532	-1.9667206
1493783237132	3.2330017	-9.527939	-2.1467743
1493783237149	2.8567963	-10.148209	-1.3526917
1493783237172	2.6380157	-10.820587	-1.3008423
1493783237191	2.5547638	-10.85643	-2.1848297
1493783237214	2.0294037	-10.304993	-3.190979
1493783237231	1.8562775	-10.078888	-4.1004944
1493783237252	4.2441864	-11.381577	-3.0243683
1493783237272	7.33255	-13.066467	-0.36465454
1493783237289	5.734207	-12.296341	0.47927856
1493783237309	-1.194458	-11.7491	0.11581421
1493783237328	-6.760483	-14.023056	0.0687561
1493783237347	-6.5687256	-16.198822	2.463852
1493783237366	-2.495285	-15.421967	2.4973602
1493783237386	1.9365082	-12.818527	1.3507996
1493783237405	4.5081024	-10.240997	0.7696991
1493783237425	3.9613037	-9.20842	0.34339905
1493783237445	2.0455322	-9.106628	1.1464691
1493783237467	0.08280945	-8.725403	1.6312561
1493783237486	-1.1381073	-8.198685	1.547821
1493783237507	-0.6135864	-7.105591	1.2696381
1493783237525	0.865921	-6.0846405	1.4421082
1493783237546	1.8405457	-5.6701965	1.4240112
1493783237568	2.2941895	-6.018341	1.3043213
1493783237587	2.480423	-6.9364166	0.75857544
1493783237607	2.5762482	-8.14389	0.4025116
1493783237628	2.387619	-9.795792	-0.11853027
1493783237646	2.0227509	-11.172852	-1.3367004
1493783237667	1.9075623	-11.640137	-1.5230103
1493783237686	0.98609924	-11.059448	1.3021545
1493783237706	-2.3012543	-10.360916	4.700592
1493783237726	-6.356186	-10.775299	5.4435883
1493783237744	-10.092819	-12.386826	3.5324707
1493783237764	-8.891998	-12.957703	1.1046753
1493783237782	-3.3299103	-11.737793	1.2339935
1493783237803	1.9397736	-10.171097	1.7605133
1493783237824	3.9000397	-9.58696	1.8147888
1493783237847	2.6016235	-10.542923	0.9598236
1493783237861	1.2447815	-11.720444	-0.45611572
1493783237881	1.9057465	-11.431229	-1.9077148
1493783237900	2.963211	-10.177277	-2.3308563
1493783237920	2.6716309	-9.295853	-1.614685
1493783237940	1.525528	-9.476639	-0.039367676
1493783237963	0.6655884	-9.850311	1.2314606
1493783237981	0.49516296	-10.011978	0.32621765
1493783238001	-0.56851196	-9.627136	-2.3240051
1493783238023	6.66597	-8.731567	1.3598633
1493783238040	1.2416992	-9.001862	-2.69812
1493783238060	1.7418213	-10.275772	-0.846405
1493783238081	1.489685	-9.873154	1.8791199
1493783238102	0.7410736	-9.404953	2.2390442
1493783238121	1.3252411	-9.539078	2.0761871
1493783238142	1.6345062	-9.977219	1.019928
1493783238159	2.5272827	-10.100952	0.78811646
1493783238180	2.7033386	-9.709396	0.19303894
1493783238222	2.9510956	-9.537598	0.6678314
1493783238223	2.406433	-9.771942	0.70906067
1493783238257	1.7450104	-10.145782	0.81347656
1493783238279	1.7469788	-9.7747345	1.5659637
1493783238297	1.6635284	-9.657074	1.8602295
1493783238319	1.810257	-9.739624	1.4357452
1493783238345	2.2394867	-9.704819	0.94306946
1493783238358	2.4494934	-9.88739	0.45144653
1493783238375	2.8305664	-9.847168	-0.2549591
1493783238394	3.352707	-9.5494995	-0.4771576
1493783238415	3.486847	-10.024429	-0.7303314
1493783238434	2.743103	-11.396423	-0.62986755
1493783238455	1.75383	-11.421585	-0.7709961
1493783238476	0.06794739	-11.078812	-1.5267181
1493783238495	-0.8003235	-10.601624	-2.479828
1493783238516	0.0320282	-9.735977	-2.5475922
1493783238535	0.39881897	-9.99501	-3.0127258
1493783238555	0.7663727	-12.422058	-2.0364838
1493783238577	2.4437103	-14.719955	0.78759766
1493783238597	5.342087	-13.768723	-0.12521362
1493783238617	7.425598	-11.137085	-2.3490448
1493783238636	7.899536	-10.221573	-0.97727966
1493783238655	4.776016	-10.189621	1.2654724
1493783238676	0.11253357	-10.03389	2.0361633
1493783238696	-2.0089111	-9.643631	1.4637909
1493783238716	-2.276825	-9.111298	0.95777893
1493783238735	-1.975235	-8.674164	0.60795593
1493783238753	-1.9915161	-8.938324	-0.42733765
1493783238775	-1.6469879	-9.143906	-1.1387634
1493783238794	-1.1292725	-8.532761	-1.1317596
1493783238813	-0.9192505	-7.150421	-1.0702667
1493783238832	-1.2645416	-5.991211	-1.1988678
1493783238852	-2.1556702	-5.5595856	-1.7500305
1493783238870	-2.830185	-5.5556183	-2.5710144
1493783238890	-2.8010101	-6.176117	-3.6742706
1493783238909	-2.3128052	-7.46315	-4.9358673
1493783238929	-2.216034	-8.888779	-5.661438
1493783238949	-2.4081268	-9.552963	-5.785675
1493783238972	-2.4333801	-9.761124	-5.83963
1493783238989	-2.5745087	-9.367065	-5.7766876
1493783239012	-2.42424	-8.49852	-5.9113464
1493783239031	-2.239685	-7.2309113	-5.679001
1493783239052	-3.888916	-10.487976	-6.9480896
1493783239071	-3.3375702	-17.704895	-7.4516144
1493783239092	0.11395264	-16.488037	-3.778366
1493783239113	0.35279846	-7.201416	3.7508545
1493783239132	-2.7448578	-3.6338654	1.5576019
1493783239151	-3.4170685	-4.820923	2.8147278
1493783239171	-2.5847168	-7.9777985	6.081375
1493783239191	0.83992004	-10.761139	4.3168335
1493783239211	4.594223	-15.772812	2.6853943
1493783239232	6.4391785	-14.907791	0.77212524
1493783239250	6.2823486	-13.505753	-1.6794739
1493783239269	4.218521	-10.792221	-2.185257
1493783239288	1.6152802	-9.04747	-0.47270203
1493783239305	-0.552063	-8.751892	1.4034271
1493783239358	-1.650589	-9.086029	-0.005874634
1493783239358	-1.2834167	-9.419815	-0.42201233
1493783239385	0.7763214	-9.89502	-0.27511597
1493783239404	1.6873779	-9.729294	-1.2339478
1493783239424	1.6522675	-8.627472	-1.2834778
1493783239444	1.5776062	-7.788864	-1.0835571
1493783239466	0.8990021	-7.9243317	-0.20213318
1493783239488	1.46875	-8.387314	1.0980072
1493783239507	1.5454102	-8.780975	1.4593811
1493783239527	2.1336823	-9.162827	0.58010864
1493783239547	2.831833	-10.044693	-1.1304932
1493783239565	3.0239258	-11.259705	-2.665741
1493783239587	3.0093384	-11.554474	-2.7345123
1493783239606	2.8043518	-11.366837	-0.82662964
1493783239626	2.1002502	-11.413818	0.2431488
1493783239646	2.3243866	-11.682663	-0.28056335
1493783239663	3.2727509	-11.511108	-0.7427368
1493783239686	3.927475	-11.059921	-2.0597382
1493783239705	4.247345	-11.196701	-3.562317
1493783239725	5.1342316	-11.943665	-3.8349457
1493783239745	5.8051605	-11.899368	-2.5374298
1493783239764	4.5348816	-11.1501465	-1.1017303
1493783239785	0.1040802	-11.4496155	-1.9390106
1493783239804	-3.4004517	-13.738998	-0.16725159
1493783239823	-4.0731506	-16.96553	2.8401642
1493783239844	-3.7472687	-17.643692	2.90036
1493783239861	-1.7498779	-15.524689	0.78411865
1493783239882	1.6615753	-12.707108	0.20480347
1493783239899	5.3282013	-10.717651	0.07215881
1493783239919	6.1705627	-10.038025	0.31858826
1493783239939	3.4654388	-10.032379	1.1711884
1493783239959	0.47195435	-8.942932	0.9163208
1493783239981	-0.9045105	-6.84729	1.0640411
1493783240002	-1.0931396	-4.7222595	2.1471558
1493783240020	-1.289505	-3.222992	2.5685272
1493783240038	-1.8887024	-2.6481628	2.4552917
1493783240063	-2.258316	-3.0550537	1.8706818
1493783240082	-2.0587616	-3.8609467	0.59768677
1493783240101	-1.8882446	-4.707382	-0.8735657
1493783240121	-1.7980652	-5.8081207	-2.1136627
1493783240141	-2.2088623	-8.228989	-5.7865143
1493783240160	-2.2486572	-11.544037	-9.336655
1493783240181	-1.5003204	-14.896088	-10.750153
1493783240200	-1.0096741	-14.268692	-9.510254
1493783240220	-1.3304596	-10.292557	-6.739975
1493783240238	-2.9024963	-7.704376	-5.1279755
1493783240256	-7.225052	-11.84079	-4.462265
1493783240278	-5.878845	-18.211624	-3.8126526
1493783240298	-0.021865845	-15.6405945	-1.3514557
1493783240318	3.8106842	-8.004349	6.9211884
1493783240336	1.2159271	-4.643326	8.687988
1493783240362	-2.5899506	-7.431259	8.281982
1493783240375	-1.6179657	-10.406006	4.752411
1493783240394	2.2975922	-12.885895	0.45492554
1493783240414	7.7927856	-12.377106	-1.0200195
1493783240433	8.278946	-11.36615	0.5419769
1493783240474	4.7081757	-10.249802	0.7767792
1493783240495	0.036331177	-9.528778	-0.79260254
1493783240514	-3.0829468	-8.922012	-1.8060455
1493783240535	-3.020523	-8.802246	-1.9280701
1493783240554	-1.6022186	-9.340759	-0.44734192
1493783240573	1.984909	-9.94371	1.0765533
1493783240596	4.750046	-9.642273	0.6519623
1493783240615	5.219345	-9.182159	-0.10726929
1493783240636	3.777649	-8.657379	-0.10177612
1493783240655	1.7517242	-8.391251	0.5941925
1493783240675	0.9286499	-8.424698	0.3908844
1493783240695	0.8942871	-8.733475	-0.02192688
1493783240714	1.2994537	-9.301788	-0.18592834
1493783240735	1.3129578	-10.292007	-0.84407043
1493783240754	0.95170593	-10.127853	-1.3209686
1493783240771	1.0648193	-9.895096	-1.1065674
1493783240790	2.3987274	-10.519653	-1.0491486
1493783240810	4.2138214	-10.935211	-1.113205
1493783240831	5.6539154	-10.678711	-0.23646545
1493783240860	5.44545	-10.533417	-0.03843689
1493783240874	4.1035004	-10.984528	-1.8279572
1493783240887	3.8841705	-12.517502	-2.829895
1493783240907	5.1977386	-13.574005	-2.824646
1493783240926	5.468689	-12.640015	-2.843811
1493783240946	2.0815125	-11.171997	-3.6770325
1493783240965	-2.7529602	-11.496048	-3.6072083
1493783240990	-4.934265	-14.541702	-0.06663513
1493783241009	-5.092682	-17.983612	2.655182
1493783241029	-3.4328766	-17.501953	2.3171234
1493783241049	-0.8114319	-13.90509	1.2396698
1493783241067	2.2751617	-10.942062	0.30697632
1493783241086	4.991333	-9.96907	-1.0362701
1493783241110	4.6549683	-9.926254	-0.56347656
1493783241129	2.4207458	-9.498917	1.1308746
1493783241154	0.6689148	-8.660065	1.4721985
1493783241170	-0.30807495	-7.25708	1.2623596
1493783241190	-0.67266846	-5.815445	1.6831055
1493783241209	-1.34935	-4.985092	2.0237732
1493783241229	-2.2269897	-4.6863403	2.210312
1493783241249	-2.6699371	-4.653717	1.9007721
1493783241269	-2.3524323	-4.506592	1.1161652
1493783241287	-1.6836243	-4.508972	-0.013519287
1493783241308	-1.4832458	-5.365494	-1.4981842
1493783241328	-2.0810394	-7.2274933	-3.1907501
1493783241348	-2.959076	-9.928329	-6.4234924
1493783241369	-3.0268402	-13.290665	-8.618347
1493783241383	-1.2453156	-14.823868	-9.820206
1493783241403	-0.79600525	-13.385239	-8.841309
1493783241423	-0.85292053	-10.682449	-7.3197937
1493783241443	-1.4180908	-8.16658	-5.4880676
1493783241462	-2.0827332	-6.3050537	-5.0263977
1493783241485	-4.296936	-8.866989	-3.6437988
1493783241503	-5.284073	-15.845718	-2.3010101
1493783241526	-0.2538147	-17.00792	-1.7740936
1493783241544	2.204773	-11.335876	-0.5613098
1493783241565	2.5131378	-6.9691925	4.480118
1493783241584	0.014633179	-5.626709	8.182663
1493783241623	-0.71698	-7.6175385	5.465454
1493783241645	0.10601807	-10.160477	3.5503693
1493783241664	3.3111725	-12.407883	1.3161163
1493783241684	6.0582123	-12.42363	0.0049743652
1493783241703	6.0153656	-10.656601	0.080596924
1493783241723	2.7859497	-9.410965	0.1862793
1493783241744	0.12573242	-8.665466	0.44638062
1493783241763	-1.7132263	-8.409103	-0.5413513
1493783241783	-1.5019226	-8.76207	-1.0667267
1493783241803	-0.11959839	-9.690582	-0.033828735
1493783241822	1.933609	-9.84996	-0.54130554
1493783241843	3.2798462	-9.051544	-0.7506256
1493783241860	2.950409	-8.87233	-0.95632935
1493783241879	2.6173248	-8.937256	-0.15586853
1493783241901	2.396469	-9.383163	0.42448425
1493783241918	2.1877441	-9.6609955	-0.3625946
1493783241937	2.3026123	-9.641785	-1.6042328
1493783241957	2.9761963	-10.082413	-1.9095764
1493783241977	3.7687073	-10.969757	-1.7252197
1493783242002	3.8455963	-11.451462	-1.9872742
1493783242021	3.373886	-11.324631	-2.8685303
1493783242041	3.620575	-10.879364	-3.4138794
1493783242060	4.247406	-11.241745	-4.3012695
1493783242082	4.80748	-13.144562	-4.4581757
1493783242100	5.986725	-14.257599	-2.3579712
1493783242119	5.0750427	-13.165924	-0.8726196
1493783242139	-0.32351685	-12.473267	-1.4523468
1493783242159	-5.5512543	-14.254883	0.17460632
1493783242177	-6.777008	-17.131058	3.219345
1493783242199	-5.16626	-16.806046	2.8432617
1493783242218	-2.4080505	-14.1154785	1.2058105
1493783242238	1.3817596	-11.313599	-0.07180786
1493783242258	5.4510193	-9.746887	-0.66889954
1493783242277	6.531494	-9.190262	0.0864563
1493783242298	3.904602	-8.878143	0.72520447
1493783242317	0.77285767	-8.132721	0.8231659
1493783242337	-0.721405	-6.6438904	1.2506866
1493783242358	-0.87150574	-5.053253	1.874176
1493783242373	-1.2753448	-3.898056	2.3761597
1493783242394	-2.248352	-3.6777496	2.4380188
1493783242412	-2.4786835	-4.08519	1.8367767
1493783242432	-2.0447693	-4.6938934	0.42593384
1493783242452	-1.3609009	-5.57045	-1.3845062
1493783242474	-1.101593	-7.043976	-3.236969
1493783242494	-1.2518921	-8.865463	-5.1825256
1493783242514	-1.8176422	-10.741013	-6.4475555
1493783242533	-2.0509033	-11.913727	-7.6833496
1493783242553	-1.5948486	-11.221466	-7.665924
1493783242573	-1.1095734	-10.414825	-7.1730194
1493783242594	-0.792511	-10.766113	-6.5203094
1493783242614	-0.61868286	-11.386246	-6.312622
1493783242635	-1.1008148	-9.301666	-6.2760925
1493783242654	-2.1307068	-6.1664276	-5.039917
1493783242673	-2.2728577	-5.030884	-4.856827
1493783242690	-5.047699	-11.135056	-3.3059845
1493783242713	-5.520935	-19.110687	-1.4819946
1493783242753	-2.3767395	-18.181763	-4.726013
1493783242772	-0.11871338	-14.158279	-3.5293274
1493783242792	1.4830322	-7.399948	4.1187897
1493783242813	0.60917664	-3.9322052	9.150864
1493783242831	0.2685089	-4.9100494	7.671829
1493783242852	0.35346985	-9.122223	3.9446259
1493783242873	2.9007416	-13.48465	3.3916473
1493783242888	6.620743	-13.671707	0.7370453
1493783242907	7.1078186	-11.575333	-1.7533417
1493783242927	4.779175	-8.999741	-2.4224548
1493783242947	1.1547852	-8.440353	-0.5133209
1493783242966	-0.98698425	-8.177734	0.40499878
1493783242987	-1.6190338	-8.392563	0.0664978
1493783243008	-1.045044	-9.478638	-0.46125793
1493783243027	-0.35121155	-10.2183075	-0.8727722
1493783243048	1.4273376	-9.680466	-0.77960205
1493783243068	2.5039673	-8.827759	-0.6528778
1493783243087	2.20961	-8.621674	0.020706177
1493783243110	1.3088837	-8.983078	0.81251526
1493783243129	1.3772278	-9.306137	0.83081055
1493783243149	1.7529907	-9.631958	0.8854828
1493783243168	1.8433075	-9.662231	0.9623871
1493783243187	1.2727509	-9.891922	0.04650879
1493783243208	0.7100067	-10.3405	-1.3235321
1493783243228	1.0478668	-10.773117	-2.2855988
1493783243248	2.4776764	-11.059021	-2.092163
1493783243267	4.0226593	-10.957413	-0.81796265
1493783243288	5.045868	-10.812424	0.27586365
1493783243307	4.906891	-10.666687	-0.7566223
1493783243326	4.194092	-10.935928	-3.1982422
1493783243346	4.3111725	-11.730103	-4.89859
1493783243367	4.8154755	-11.8211975	-4.6544495
1493783243393	5.3262177	-11.353073	-2.9345703
1493783243402	1.9500122	-11.877228	-1.5080414
1493783243422	-3.6912384	-14.834549	-0.8330078
1493783243442	-6.721573	-18.35559	1.864563
1493783243461	-6.2825623	-19.474823	3.0879364
1493783243483	-3.3980865	-16.020706	2.4366608
1493783243503	0.24481201	-12.185562	2.0747833
1493783243522	5.716812	-10.699844	-2.160324
1493783243543	6.9764557	-11.553116	-2.606598
1493783243562	4.196518	-11.166458	-1.5466003
1493783243583	0.12236023	-9.677414	-0.53744507
1493783243604	-1.0028992	-7.381439	1.142456
1493783243624	-1.0901794	-5.311722	2.4774628
1493783243643	-1.667572	-3.6070251	2.650055
1493783243663	-2.5532227	-2.751114	2.690918
1493783243683	-3.3414154	-2.7355042	2.0842896
1493783243702	-2.5880127	-3.0956879	1.204071
1493783243722	-1.5472565	-3.6775055	0.25357056
1493783243742	-0.8408661	-4.2242737	-1.1025543
1493783243763	-0.5353546	-4.973053	-2.7318726
1493783243784	-1.1577454	-5.8663025	-4.0465393
1493783243802	-1.7158966	-7.149582	-4.355011
1493783243822	-1.8181152	-9.0233	-6.1899567
1493783243846	-0.62316895	-11.35144	-8.872482
1493783243878	0.17520142	-13.496002	-9.311493
1493783243899	-0.28071594	-13.888351	-9.447922
1493783243915	-1.3114777	-12.2908325	-8.32692
1493783243934	-3.5397797	-9.594971	-5.922119
1493783243954	-4.5045166	-8.492905	-4.967148
1493783243974	-5.5489044	-12.337906	-2.1287842
1493783243993	-7.02446	-16.31697	-3.9655304
1493783244025	-4.8756256	-17.135986	-5.5786133
1493783244034	1.9130096	-11.682373	-2.8220062
1493783244094	6.017868	-6.58342	5.0240784
1493783244094	3.7756195	-4.7653503	8.707321
1493783244094	1.5700073	-6.874649	7.103134
1493783244113	1.2743683	-10.752457	3.790802
1493783244132	2.649414	-13.512756	-0.29974365
1493783244152	5.3094788	-12.558914	-1.9079895
1493783244172	4.3415375	-10.884369	-1.0970001
1493783244191	1.6242523	-8.997131	0.50486755
1493783244212	-0.4022827	-8.186386	1.0965576
1493783244231	-1.6747742	-8.299103	0.059646606
1493783244251	-1.8149719	-8.963882	-0.640213
1493783244271	0.28938293	-9.4702	-0.1511383
1493783244290	2.6089172	-9.576492	0.75987244
1493783244311	3.6290436	-9.5278015	0.24923706
1493783244330	3.1280518	-9.367065	-0.9392395
1493783244351	2.4175262	-9.053345	-1.0393524
1493783244371	1.653244	-8.983093	-0.009017944
1493783244392	1.3603668	-9.284988	0.36982727
1493783244411	1.7090912	-9.467926	-0.015899658
1493783244432	2.0285645	-9.340515	-0.1177063
1493783244450	1.9757233	-9.371094	-0.32044983
1493783244470	1.6732178	-10.024216	-0.6060333
1493783244489	1.5983734	-10.931183	-1.019104
1493783244509	2.3608398	-11.022568	-0.93992615
1493783244530	3.7369843	-10.859482	0.60331726
1493783244548	4.1795654	-11.005539	1.6161346
1493783244568	2.1618805	-11.065796	-0.5891113
1493783244587	0.6355133	-11.355911	-2.8954926
1493783244607	2.8813782	-12.1528015	-2.8958435
1493783244627	6.0549774	-12.242096	-3.3303528
1493783244647	5.99823	-11.550613	-2.8328247
1493783244666	2.0301971	-10.520569	-3.0220032
1493783244686	-2.2378693	-11.030289	-2.3258362
1493783244706	-4.576126	-14.419998	0.5116577
1493783244726	-5.1735992	-18.52501	3.0220795
1493783244746	-4.055374	-18.684814	2.6388245
1493783244765	-1.5157318	-14.611862	0.5195465
1493783244785	0.18215942	-11.85228	-0.6990509
1493783244805	2.0522766	-10.614395	0.12619019
1493783244825	4.0920563	-10.640396	-0.8470459
1493783244845	2.6290894	-10.503876	-0.025161743
1493783244865	0.89079285	-8.998199	-0.22511292
1493783244885	0.14131165	-6.9076843	0.20397949
1493783244905	-0.16918945	-5.2198486	1.9718018
1493783244925	-0.7917175	-3.8588562	2.3785248
1493783244946	-1.462326	-3.3646698	1.930191
1493783245545	-1.9743958	-3.4001923	1.6571503
1493783245545	-1.8677979	-3.7628326	0.783844
1493783245545	-1.1509094	-3.9776459	-0.062026978
1493783245545	-0.45420837	-4.4619904	-1.6870728
1493783245546	-0.36586	-5.5665283	-3.95253
1493783245546	-1.309845	-7.1623535	-6.2260895
1493783245546	-3.642807	-10.055115	-8.634644
1493783245546	-3.180069	-12.672592	-9.325943
1493783245546	-2.0026398	-14.337051	-9.36441
1493783245546	-2.3075104	-13.794876	-8.273727
1493783245547	-4.1106873	-11.384415	-7.1490936
1493783245547	-6.4945526	-8.967072	-5.9888306
1493783245547	-8.507462	-10.8815155	-2.7955475
1493783245547	-5.469864	-15.792618	-3.1058044
1493783245547	0.61753845	-14.709213	-2.869156
1493783245547	5.0381317	-9.335068	2.9025116
1493783245548	2.1624146	-6.213684	9.471832
1493783245548	-0.8788605	-7.87088	6.112793
1493783245548	0.056396484	-10.362564	3.0507965
1493783245548	3.145584	-11.439682	2.095749
1493783245548	6.3634186	-12.137283	0.66386414
1493783245548	5.9580536	-12.18602	-0.3313141
1493783245548	3.469757	-10.596954	-0.620697
1493783245549	1.7142487	-9.320663	-0.36270142
1493783245549	-0.79333496	-9.0529175	-0.59295654
1493783245549	-1.9261017	-9.029999	-0.7605591
1493783245549	-1.6387177	-9.235016	-0.9495392
1493783245549	-0.2580719	-9.384781	-0.63772583
1493783245549	1.4667358	-9.362457	0.092926025
1493783245560	2.4749298	-9.438843	0.011016846
1493783245583	2.3928833	-9.058472	-0.34803772
1493783245601	1.5800781	-8.520386	-0.065078735
1493783245623	0.8748627	-8.377274	0.23924255
1493783245643	0.68673706	-8.923645	0.38150024
1493783245662	1.2103882	-9.965698	-0.2610321
1493783245682	2.366806	-10.298462	-1.3170166
1493783245703	3.1376038	-10.203049	-1.863617
1493783245722	2.8982239	-10.774368	-1.7283783
1493783245741	2.5359802	-11.272385	-1.3832245
1493783245763	2.9110413	-10.924316	-1.4822693
1493783245781	3.2545013	-10.591995	-1.3668518
1493783245800	3.2857513	-10.620911	-1.2792511
1493783245821	2.9198303	-10.845139	-1.7373962
1493783245840	2.6826324	-11.462784	-3.4732513
1493783245860	3.7567291	-12.528137	-4.923401
1493783245882	5.8982086	-12.523056	-2.7576752
1493783245899	5.581024	-11.647522	-0.66955566
1493783245918	-0.5919342	-11.420761	-0.7291107
1493783245940	-7.0617065	-13.997101	-0.7657471
1493783245958	-6.683655	-16.985596	2.2726746
1493783245979	-3.6592102	-16.648788	2.8027802
1493783245998	-0.049102783	-13.949219	1.6666412
1493783246018	1.5742493	-11.678558	-0.23310852
1493783246038	3.0541077	-10.33136	-1.1026154
1493783246059	3.5863495	-9.864166	-0.023986816
1493783246078	1.6838379	-9.301727	1.3302307
1493783246097	0.19921875	-8.178238	1.2491913
1493783246114	-0.45344543	-6.4493256	0.68548584
1493783246137	-0.18850708	-5.3344727	0.936676
1493783246177	-0.61491394	-4.54422	1.6069946
1493783246196	-1.6370087	-4.4712677	2.1363678
1493783246214	-2.5041199	-4.6206665	1.5298157
1493783246236	-2.2398987	-4.574402	0.4605713
1493783246255	-1.8053436	-4.8708344	-1.1486511
1493783246276	-1.9811096	-5.8293915	-2.6245728
1493783246295	-2.129654	-7.551193	-3.719986
1493783246316	-2.6055603	-9.924271	-6.4933167
1493783246335	-2.2657623	-13.26799	-8.626755
1493783246355	-1.6282043	-15.095947	-9.936523
1493783246375	-0.978302	-13.054749	-7.583908
1493783246394	-0.26211548	-10.197296	-5.56839
1493783246413	-0.29707336	-8.138702	-4.633896
1493783246434	-1.8032379	-6.794861	-4.7214813
1493783246454	-3.5931854	-7.480896	-4.7281494
1493783246474	-4.900955	-12.111877	-3.3004303
1493783246495	-3.9447021	-16.156845	-3.3396149
1493783246511	-1.1647644	-15.340668	-2.740097
1493783246534	0.99601746	-10.379669	0.72935486
1493783246553	0.34106445	-6.1217957	5.063202
1493783246573	-1.6209106	-5.5833893	5.664963
1493783246594	-1.5910797	-7.046585	4.170227
1493783246608	0.6530304	-9.887253	3.6688538
1493783246628	4.9088593	-12.239258	2.1393127
1493783246646	8.669769	-12.5203705	0.26013184
1493783246666	7.2948	-11.203339	-1.0303955
1493783292295	3.2259674	-9.7187195	-1.683197
1493783292295	0.3106079	-9.175415	-0.7932739
1493783292295	-1.5439606	-9.073288	0.29696655
1493783292295	-2.0282135	-8.96492	0.3133545
1493783292295	-1.9659576	-9.406189	-0.26002502
1493783292295	-0.7767792	-9.8138275	-0.35221863
1493783292295	1.3091125	-9.668533	-0.49404907
1493783292295	2.577057	-9.219299	-0.7783661
1493783292295	2.6566467	-9.046967	-0.66885376
1493783292295	2.1984253	-9.015289	0.16072083
1493783292295	1.5633698	-9.004288	0.8774872
1493783292295	0.94950867	-9.195557	0.83587646
1493783292295	0.51872253	-9.743713	0.11109924
1493783292295	0.6625366	-10.09903	-0.34681702
1493783292295	1.113205	-10.186279	-0.5478821
1493783292295	1.210556	-10.678879	-0.5585327
1493783292296	1.1678009	-10.974701	-0.8036041
1493783292296	1.345108	-10.831833	-1.5988464
1493783292296	1.7822876	-10.563232	-1.7674103
1493783292296	3.065796	-10.23616	-0.06317139
1493783292296	4.3351135	-10.320572	1.660553
1493783292296	3.6231995	-10.831985	-0.661438
1493783292296	2.3249054	-11.449783	-1.7632141
1493783292296	3.4311676	-11.415436	-1.185318
1493783292296	6.312256	-11.789246	-1.4813843
1493783292296	6.576126	-11.488235	-0.8319397
1493783292296	1.4021149	-10.182327	-0.9616852
1493783292296	-3.682785	-11.190308	-1.0132751
1493783292296	-5.325012	-13.956314	1.4721222
1493783292296	-4.3312683	-16.619675	3.5315247
1493783292296	-3.0239258	-16.447906	3.362091
1493783292296	-1.2428284	-13.481049	1.3551941
1493783292296	-0.15512085	-12.109665	-0.33599854
1493783292296	1.0907898	-11.471588	-0.18551636
1493783292296	2.1640778	-11.097244	1.6483307
1493783292296	2.3732758	-10.333496	0.08465576
1493783292296	1.6609344	-9.212906	0.36976624
1493783292296	1.2647247	-7.9942627	1.1421509
1493783292296	0.64123535	-7.178726	2.246643
1493783292296	0.06889343	-5.913086	1.9298706
1493783292296	-0.3328247	-4.989502	1.8716278
1493783292297	-0.41105652	-4.438858	1.6783447
1493783292297	-0.3206482	-4.305084	0.76678467
1493783292297	-0.21203613	-5.0439453	-0.1550293
1493783292297	0.17114258	-6.555069	-0.9052887
1493783292297	0.96362305	-8.859238	-2.2366486
1493783292297	2.1173706	-11.808563	-3.9615784
1493783292297	2.3564606	-14.110794	-5.724167
1493783292297	0.7571564	-14.400772	-6.1449127
1493783292297	-1.3930817	-12.9479065	-4.1491394
1493783292297	-1.8189087	-10.626663	-1.6734314
1493783292297	-2.2154694	-8.3085785	0.58776855
1493783292297	-2.573288	-6.6169586	2.3421783
1493783292297	-3.5550842	-6.7265015	2.8518982
1493783292297	-3.213379	-9.511444	2.2522278
1493783292297	0.10580444	-12.848679	2.5387726
1493783292297	2.5252075	-15.303757	2.714676
1493783292297	2.789322	-15.851288	1.9867401
1493783292297	2.563568	-13.355148	1.2135315
1493783292299	3.128296	-10.176727	0.3746643
1493783292300	3.8486176	-8.544586	0.59651184
1493783292300	3.578415	-8.375412	1.458725
1493783292301	2.082962	-8.850845	1.7668152
1493783292301	-0.0048065186	-9.2308655	0.91612244
1493783292301	-1.7037811	-9.344543	-0.3340454
1493783292301	-2.0276184	-9.036316	-1.2813873
1493783292302	-1.5211945	-9.087372	-1.5130157
1493783292302	-0.640152	-9.424927	-1.1125336
1493783292302	0.51097107	-9.877029	-0.55400085
1493783292302	1.2262726	-10.384201	0.10899353
1493783292302	1.6722717	-10.445923	0.91337585
1493783292303	1.908905	-10.15123	1.5940552
1493783292303	1.9030457	-10.020798	1.8710938
1493783292303	1.5507202	-10.053146	1.5026855
1493783292303	1.0487366	-10.076645	0.608963
1493783292303	0.7360382	-10.239395	0.059249878
1493783292303	0.87324524	-10.13765	-0.33998108
1493783292303	1.3394928	-9.93544	-0.20011902
1493783292303	1.8448334	-9.661667	-0.018173218
1493783292303	2.2604523	-9.465958	0.11886597
1493783292303	2.5370026	-9.596832	-0.1729126
1493783292303	3.0444794	-9.664261	-0.27931213
1493783292303	3.6558228	-10.213547	-0.49861145
1493783292303	4.529434	-11.891602	-0.23008728
1493783292303	2.3708344	-14.361359	-0.031097412
1493783292303	-3.1961212	-12.677109	-2.8897095
1493783292303	-3.5769958	-11.058517	-5.286972
1493783292303	-1.8888855	-10.170486	-4.6973114
1493783292304	-1.5477753	-9.887085	-2.470398
1493783292304	-1.9611969	-11.49205	-1.5163269
1493783292304	-0.6045685	-12.444641	-0.77793884
1493783292304	1.8978119	-10.573608	-0.29185486
1493783292304	3.189148	-8.541977	-1.2425842
1493783292304	4.894562	-8.073257	-0.51135254
1493783292304	5.659363	-8.7920685	1.9641266
1493783292304	3.7705536	-10.215027	2.3737793
1493783292304	1.062561	-11.452103	0.7652893
1493783292304	-1.1734467	-11.745743	-0.7724457
1493783292304	-1.7329559	-11.026337	-1.3705139
1493783292304	-1.555481	-10.121506	-0.8009186
1493783292304	-0.19181824	-8.92041	-0.5671387
1493783292304	-1.5633545	-9.103287	-0.624115
1493783292304	-1.7395935	-8.405701	-0.85198975
1493783292304	-1.9797211	-7.908783	-0.9959259
1493783292304	-2.0498657	-7.5546265	-0.87402344
1493783292304	-2.2409668	-7.4974213	-1.4233398
1493783292304	-2.256012	-7.6071167	-2.4163208
1493783292304	-2.2195587	-7.929245	-3.6806488
1493783292305	-1.6256866	-8.306244	-4.471817
1493783292305	-1.4201508	-8.642654	-5.012497
1493783292305	-1.7816467	-8.619827	-5.179611
1493783292305	-1.9826355	-8.4814	-4.8682404
1493783292305	-2.434967	-8.449142	-4.6725006
1493783292305	-2.661621	-8.1666565	-4.4161377
1493783292305	-2.594757	-7.628418	-4.107025
1493783292305	-2.8623657	-6.903656	-3.5177612
1493783292305	-2.966156	-5.701874	-1.7537231
1493783292305	-4.2932587	-5.8859863	-0.28971863
1493783292305	-8.366989	-13.937485	-1.6236115
1493783292305	-5.063034	-19.474823	-7.399124
1493783292305	1.8496552	-16.395004	-4.0642853
1493783292305	2.8077545	-7.783203	4.649887
1493783292305	0.7389679	-2.9339294	6.300873
1493783292305	-0.87571716	-4.2069397	5.395462
1493783292305	-1.5059662	-8.1418915	5.09729
1493783292305	0.33828735	-11.876602	3.5007172
1493783292305	6.8069	-13.127792	2.0822296
1493783292305	9.846832	-13.92569	-0.23667908
1493783292305	7.145874	-12.259262	-2.0293427
1493783292305	2.1966858	-9.345184	-2.302414
1493783292305	-0.5487671	-7.969406	-0.6237335
1493783292305	-2.1532898	-8.115402	0.1546936
1493783292305	-4.3130035	-9.2092285	0.60157776
1493783292306	-2.5993195	-9.511124	-0.35359192
1493783292306	1.6008606	-9.256088	-0.02909851
1493783292306	4.692581	-9.177231	0.53804016
1493783292306	4.8424683	-9.164032	0.27037048
1493783292306	3.0743256	-9.443756	0.17311096
1493783292306	1.3386841	-9.749268	0.08187866
1493783292306	0.6616821	-10.022339	0.18504333
1493783292306	0.901474	-10.299438	-0.5848541
1493783292306	1.4219208	-10.251816	-1.4216003
1493783292306	1.7884216	-10.940613	-2.427414
1493783292306	2.2036438	-12.09108	-2.3805695
1493783292306	3.4782867	-11.734131	-1.1333466
1493783292306	5.293686	-11.033096	-0.15756226
1493783292306	5.076538	-10.698914	-0.5055237
1493783292306	2.25885	-10.954926	-2.8343506
1493783292306	2.0937042	-12.066528	-3.9253387
1493783292306	3.899887	-11.684006	-3.377716
1493783292306	5.991928	-11.865051	-1.1799011
1493783292306	2.7951202	-11.516449	-0.35543823
1493783292306	-4.0029907	-12.343857	-0.7368622
1493783292306	-7.54393	-15.100006	1.1037445
1493783292306	-6.7821503	-17.197464	3.1335144
1493783292306	-4.2391815	-16.159012	2.4931488
1493783292306	-1.0999298	-13.261124	0.8727417
1493783292306	0.36106873	-11.430832	0.2829895
1493783292306	1.858429	-10.115829	1.0353851
1493783292307	3.9425201	-9.443329	0.21949768
1493783292307	3.7636719	-8.757568	0.2906952
1493783292307	2.1322632	-7.27594	0.39637756
1493783292307	0.60842896	-5.7143707	0.7615967
1493783292307	-0.16897583	-4.464218	1.7886963
1493783292307	-0.9448395	-3.3853455	2.5003967
1493783292307	-1.681076	-3.3406372	2.3592834
1493783292307	-1.9811249	-4.000061	1.6516724
1493783292307	-2.0443726	-4.817398	0.18511963
1493783292307	-1.9180298	-5.8671875	-1.3639221
1493783292307	-1.6828308	-7.1992188	-2.190155
1493783292307	-1.590271	-8.835037	-3.3696594
1493783292307	-1.6077576	-11.447708	-7.0159607
1493783292307	-0.69210815	-14.9831085	-12.043381
1493783292307	0.27645874	-16.167984	-13.243378
1493783292307	0.5480652	-13.411118	-8.825607
1493783292307	0.23965454	-9.815002	-4.648941
1493783292307	-1.1322937	-6.838913	-4.0533905
1493783292307	-2.0986633	-5.480789	-3.8613129
1493783292307	-4.763565	-7.4774323	-1.7990723
1493783292307	-6.9490814	-12.365143	-0.3473053
1493783292308	-5.7728577	-17.688568	-0.1984253
1493783292308	-0.6157074	-15.679672	-1.1389313
1493783292308	3.8240814	-8.916885	4.543762
1493783292308	3.18779	-5.321533	8.798111
1493783292308	2.3493805	-7.3490143	5.7365417
1493783292308	1.5145111	-9.677368	2.7176208
1493783292308	3.5690918	-12.613998	2.5459747
1493783292308	7.6114044	-11.828476	1.7581177
1493783292308	6.1992188	-9.972443	-1.2284393
1493783292308	1.8363342	-9.575989	-1.9073029
1493783292308	-1.9885101	-9.106323	-0.69821167
1493783292308	-4.2683716	-9.023132	-1.2888641
1493783292308	-4.126877	-9.149521	-0.08200073
1493783292308	-1.2820892	-9.566711	-0.06100464
1493783292308	3.211914	-10.318024	0.42512512
1493783292308	5.8289337	-10.064438	0.2888031
1493783292308	5.158188	-9.252579	-0.3108673
1493783292308	3.1179657	-9.12204	0.6741028
1493783292308	2.0309448	-9.200226	0.6310272
1493783292308	1.5072174	-9.46759	0.1487732
1493783292308	1.2193146	-9.947098	-0.7082977
1493783292308	1.1635895	-9.948349	-1.4131775
1493783292308	1.3325958	-9.595581	-2.614746
1493783292308	1.6925354	-9.901596	-2.7767792
1493783292308	2.6642761	-10.215668	-2.2331848
1493783292309	4.088669	-9.9570465	-2.3787842
1493783292309	5.6436462	-10.021317	-2.0688171
1493783292309	6.219223	-11.303314	-2.5513153
1493783292309	4.547592	-13.76004	-2.6737518
1493783292309	0.4059906	-14.823883	-3.227066
1493783292309	-4.030472	-15.326096	-2.8281403
1493783292317	-7.949234	-16.142288	0.061691284
1493783292317	-9.041153	-17.18132	2.1786957
1493783292317	-6.601013	-15.559845	3.194809
1493783292317	-2.3066406	-13.010544	2.1635437
1493783292317	0.27513123	-11.14769	2.0786743
1493783292317	0.44812012	-10.202484	0.5522003
1493783292317	-0.19181824	-9.638596	0.032592773
1493783292317	-1.2706909	-8.895172	0.022445679
1493783292317	-1.621994	-7.8371887	0.29769897
1493783292318	-0.78256226	-6.474106	1.2978516
1493783292318	0.16003418	-5.5137787	1.4170532
1493783292318	0.31199646	-4.8034363	1.5764923
1493783292318	-0.66700745	-4.6516266	1.4187317
1493783292318	-1.4815521	-5.0504	0.65722656
1493783292318	-1.5085297	-5.5322876	-0.43611145
1493783292318	-1.4521637	-5.959427	-1.9023285
1493783292318	-0.95414734	-6.787842	-3.369812
1493783292318	-0.32444763	-8.691681	-6.276581
1493783292318	-0.41046143	-11.27002	-9.958282
1493783292318	-1.4777527	-12.6138	-11.261322
1493783292318	-3.1772919	-11.434662	-9.972656
1493783292318	-4.0473175	-9.032486	-6.980072
1493783292318	-2.9747467	-7.5980835	-4.693817
1493783292318	-3.0926666	-8.200592	-2.920456
1493783292318	-5.495056	-12.996201	-1.897049
1493783292318	-3.6214905	-16.8591	-2.705429
1493783292318	0.90704346	-13.366074	-1.730133
1493783292318	2.6891174	-7.873123	4.691742
1493783292318	1.332962	-6.1857758	7.128662
1493783292318	-0.20866394	-8.189499	5.521057
1493783292318	-0.5287781	-11.184387	3.613266
1493783292318	1.1148834	-12.081375	2.6302948
1493783292318	3.8814392	-12.372437	0.9100952
1493783292318	6.1379547	-11.694504	0.09727478
1493783292318	4.9580536	-10.733871	0.2667389
1493783292319	2.5904694	-9.164764	0.50167847
1493783292319	0.1541748	-8.313034	-0.6009064
1493783292319	-0.7803345	-8.17131	-0.32078552
1493783292319	-0.14167786	-8.949387	0.6845703
1493783292319	1.5809784	-10.043655	0.73217773
1493783292319	2.741394	-10.284088	-0.15733337
1493783292319	3.4376526	-9.607819	0.30130005
1493783292319	2.99794	-9.621277	-0.0011749268
1493783292319	2.4259644	-9.085693	-0.98098755
1493783292319	2.5157166	-8.756775	0.083358765
1493783292319	2.7287903	-9.326828	0.12922668
1493783292319	2.8725739	-9.605804	0.052871704
1493783292319	2.703827	-9.614349	-0.1315918
1493783292319	2.5730743	-10.3461	-0.47322083
1493783292319	2.5877228	-10.861572	-2.1177216
1493783292319	3.0807037	-11.209274	-2.2329254
1493783292319	3.7222748	-10.956619	-1.0086975
1493783292319	3.3957672	-10.939011	-1.1981049
1493783292319	1.7608948	-11.040314	-2.291977
1493783292319	1.027298	-11.447739	-3.6274567
1493783292319	3.371872	-12.19426	-3.055008
1493783292319	5.608444	-12.198669	-2.770218
1493783292319	6.043686	-12.381058	-1.7162018
1493783292319	3.1575317	-11.000412	-0.1416626
1493783292319	-1.5752258	-11.067444	-0.21330261
1493783292319	-5.3964233	-15.157654	1.0753479
1493783292320	-5.7328186	-17.35254	3.1204834
1493783292320	-3.7014008	-16.120087	1.3293304
1493783292320	-0.9167023	-13.431885	0.5133667
1493783292320	1.748291	-11.538162	0.037597656
1493783292320	5.212631	-10.158356	-0.72010803
1493783292320	5.8969574	-10.028595	0.5626373
1493783292320	2.5519257	-9.685059	0.4845581
1493783292320	-0.7218628	-8.253784	0.35821533
1493783292320	-1.1286011	-6.2552643	1.7035828
1493783292320	-1.3375702	-4.7843018	2.5848541
1493783292320	-1.3818359	-3.838089	2.913437
1493783292320	-1.7648773	-3.7480316	2.5390625
1493783292320	-2.084198	-4.2211914	1.4630585
1493783292320	-2.1506348	-4.702896	-0.17289734
1493783292320	-2.0772705	-5.3582	-1.4321594
1493783292320	-2.1562042	-6.416855	-2.242508
1493783292320	-2.4094543	-8.379547	-4.4504547
1493783292320	-2.2354126	-11.43927	-8.241333
1493783292320	-0.5230408	-14.484741	-11.356537
1493783292320	0.6564636	-14.295425	-10.506622
1493783292320	0.060958862	-11.043045	-7.6822815
1493783292320	-1.7441559	-9.17659	-6.37706
1493783292320	-4.429367	-13.080063	-6.2009277
1493783292320	-5.4958954	-17.011902	-5.980606
1493783292320	-3.1136932	-14.142029	-2.1225586
1493783292320	-0.019088745	-7.9772797	2.927658
1493783292321	0.6037445	-4.839432	6.591934
1493783292321	-1.2221069	-5.6776886	7.425583
1493783292321	-1.3789978	-8.573868	6.213913
1493783292321	0.9010925	-11.732071	3.4812164
1493783292321	4.22554	-13.179642	-0.046569824
1493783292321	5.991516	-12.859924	-1.1124878
1493783292321	5.0438385	-10.880447	-1.0869446
1493783292321	2.9622955	-9.320831	-0.026123047
1493783292321	1.1395416	-8.597641	0.37287903
1493783292321	-0.033599854	-8.966843	1.4083252
1493783292321	-1.4897003	-9.582062	0.1640625
1493783292321	-1.388794	-9.503326	-1.6956635
1493783292321	0.18426514	-9.422653	-0.803833
1493783292321	1.8044739	-9.610382	0.37860107
1493783292321	2.510025	-9.712372	0.14562988
1493783292321	2.269104	-9.390884	-0.3972168
1493783292321	1.9432831	-8.830536	0.6198578
1493783292321	1.487854	-8.755615	0.7818146
1493783292321	1.5105133	-8.759766	1.2682648
1493783292321	1.6203613	-9.342407	-0.3378296
1493783292321	1.8088531	-9.931641	-1.0162964
1493783292321	1.5013885	-9.896652	-1.2016144
1493783292321	1.3604584	-10.2127075	-1.207962
1493783292321	1.7408752	-10.688873	-1.0825348
1493783292321	3.283905	-10.725388	-1.02388
1493783292321	4.5650787	-10.8927765	0.29458618
1493783292321	4.4800262	-10.914154	0.66555786
1493783292322	2.5583038	-11.084457	-1.2703094
1493783292322	1.4369202	-11.734924	-3.402893
1493783292322	2.7623749	-12.476685	-3.7544708
1493783292322	4.4538116	-12.409073	-3.2911987
1493783292322	4.4216156	-11.727921	-0.8273773
1493783292322	0.27864075	-11.3433075	-1.0679626
1493783292322	-4.7473755	-13.501999	-0.3123474
1493783292322	-5.9120026	-17.456085	2.6586761
1493783292322	-5.2305145	-17.73845	3.0963287
1493783292322	-2.6704254	-14.707352	1.2730255
1493783292322	-1.0294952	-12.089432	0.061462402
1493783292322	0.47653198	-10.457336	0.12207031
1493783292322	2.0047913	-9.739029	0.41828918
1493783292322	1.7885895	-9.494446	-0.4427185
1493783292322	0.51849365	-8.790527	0.30342102
1493783292322	-0.17056274	-7.425827	0.49105835
1493783292322	-0.27471924	-5.952667	1.0180206
1493783292322	-0.6065216	-4.780014	1.4434357
1493783292322	-1.0843964	-4.082443	1.7015686
1493783292322	-1.4711609	-4.1024475	1.4331512
1493783292322	-1.1483612	-4.688568	0.73161316
1493783292322	-0.4253235	-5.4786377	-0.5309906
1493783292322	0.1353302	-6.412491	-1.7270508
1493783292322	0.06825256	-7.7886963	-3.54982
1493783292322	-0.92611694	-9.993637	-6.613785
1493783292322	-1.7628937	-12.192276	-9.126953
1493783292323	-1.3277435	-12.803848	-9.791718
1493783292323	-0.55337524	-12.02243	-8.001877
1493783292323	-0.29797363	-10.936569	-5.663086
1493783292323	-0.23059082	-9.926666	-5.583313
1493783292323	-0.7362213	-8.772797	-5.1600647
1493783292323	-3.365387	-8.098633	-2.2743988
1493783292323	-5.456421	-10.334763	0.43778992
1493783292323	-5.444824	-14.112213	0.17437744
1493783292323	-1.3938293	-14.0972595	-1.1404266
1493783292323	2.4535217	-10.900391	3.4533997
1493783292323	3.4031372	-8.013336	6.794403
1493783292323	2.2404785	-9.788162	5.480652
1493783292323	1.7211761	-9.324982	4.6763916
1493783292324	2.4543762	-11.007568	1.8470001
1493783292324	2.9520721	-12.118973	1.6061096
1493783292324	2.723587	-11.428986	1.1678162
1493783292324	1.0162354	-9.572128	1.2434998
1493783292324	-0.9576111	-8.484985	0.22914124
1493783292324	-2.551712	-8.480606	-1.2453156
1493783292324	-1.3481598	-8.902649	0.50764465
1493783292324	2.2932587	-9.266586	3.2162933
1493783292324	5.1496887	-10.208633	3.13974
1493783292324	6.5530853	-10.325134	0.79219055
1493783292324	5.7536316	-10.006378	-0.5476837
1493783292324	4.4608	-9.73407	0.37045288
1493783292324	4.1158752	-9.100372	1.2809906
1493783292324	3.3402863	-8.564514	1.4294586
1493783292324	2.1138	-9.009384	0.11740112
1493783292324	0.80122375	-9.240051	-0.84710693
1493783292324	0.32336426	-9.363937	-0.6782532
1493783292324	0.91941833	-9.590744	-0.5697937
1493783292324	2.4838715	-10.263748	-0.5088501
1493783292324	4.4970245	-10.6549835	-0.7495575
1493783292324	5.1339874	-10.990906	-1.4086304
1493783292324	4.785446	-11.266113	-1.7611694
1493783292324	3.9762573	-10.972809	-1.9261322
1493783292324	3.1146545	-10.609619	-2.9146576
1493783292324	3.153946	-10.90535	-3.7955475
1493783292325	4.14328	-11.682678	-3.0164032
1493783292325	3.9373016	-11.548279	-1.9159851
1493783292325	2.1766357	-11.92807	-2.5794067
1493783292325	-0.6499481	-12.585358	-2.6002502
1493783292325	-3.442871	-15.967026	-1.3573608
1493783292325	-4.9624634	-18.456467	1.5759277
1493783292325	-3.984497	-16.374008	2.7411041
1493783292325	-2.1177979	-13.706055	2.015091
1493783292325	0.022842407	-11.993164	1.6111145
1493783292325	2.6988983	-10.613159	0.5376129
1493783292325	4.454056	-9.741379	0.1466217
1493783292325	3.320053	-9.068253	0.91226196
1493783292325	0.40330505	-8.369247	1.2082062
1493783292325	-1.0826874	-7.082596	1.358963
1493783292325	-1.1839752	-5.813843	1.550705
1493783292325	-0.77264404	-4.8939667	1.8798523
1493783292325	-0.7309265	-4.4854736	2.1681519
1493783292325	-1.357605	-4.9313965	1.6023865
1493783292325	-1.5102844	-5.533844	0.68504333
1493783292325	-1.194519	-5.800293	-0.70381165
1493783292325	-0.9743805	-6.144226	-2.1878204
1493783292325	-1.5310974	-6.8136444	-4.2244263
1493783292325	-2.5316467	-8.452347	-6.911743
1493783292325	-2.291275	-10.514893	-8.7686
1493783292325	-1.0173798	-11.840424	-8.785675
1493783292325	-0.8538513	-11.335236	-7.915909
1493783292325	-1.553833	-9.663513	-6.2583466
1493783292326	-2.2331696	-7.8791046	-5.6937714
1493783292326	-2.8850555	-7.382614	-4.6540527
1493783292326	-7.9122467	-14.321518	-3.722229
1493783292326	-5.5259857	-19.070862	-5.4463654
1493783292326	0.6943207	-18.251831	-2.088089
1493783292326	5.0833435	-6.7385406	6.612671
1493783292326	-0.21180725	-2.7252197	9.554581
1493783292326	-3.002121	-4.526123	7.3770905
1493783292326	-3.1868896	-9.005096	4.545761
1493783292326	1.3865051	-13.336533	2.5969086
1493783292326	7.740448	-14.721588	1.2406158
1493783292326	9.134445	-13.395096	-0.47010803
1493783292326	5.396408	-10.120636	-0.4234619
1493783292326	2.064743	-8.767731	0.025985718
1493783292326	-0.92427063	-8.506775	-0.20124817
1493783292326	-2.613861	-8.698822	-0.5736542
1493783292326	-2.898346	-9.279037	0.026748657
1493783292326	-1.8716736	-10.035904	-0.34791565
1493783292326	0.70843506	-9.949722	0.48799133
1493783292326	2.383133	-9.047089	0.44174194
1493783292326	2.4515839	-8.55368	0.16415405
1493783292326	1.9401703	-8.575485	0.6885376
1493783292326	1.6144714	-8.743301	0.9153595
1493783292326	2.1350098	-9.2260895	0.4958191
1493783292327	2.8458405	-9.881744	-0.7718811
1493783292327	2.9415283	-10.525314	-1.3594055
1493783292327	2.4511414	-10.728821	-1.8597107
1493783292327	2.05867	-11.152298	-1.6441345
1493783292327	2.701065	-11.311905	-1.0609589
1493783292327	3.863037	-11.132324	-0.12072754
1493783292327	4.174164	-10.895584	0.116485596
1493783292327	2.6256714	-11.096832	-1.3401031
1493783292327	2.2501526	-12.044952	-2.2089539
1493783292327	4.0665894	-12.843292	-2.0213928
1493783292327	4.7119446	-12.583084	-2.6978607
1493783292327	2.1220245	-11.427383	-2.720169
1493783292327	-1.4476624	-10.35553	-1.9376831
1493783292327	-3.9495392	-11.724411	-0.2172699
1493783292327	-4.7756805	-14.68335	2.4465485
1493783292327	-3.8091125	-15.941864	2.7858276
1493783292327	-1.4655762	-14.474777	1.6946716
1493783292327	-0.25942993	-12.197571	0.56340027
1493783292327	-0.19316101	-10.765289	0.5525818
1493783292327	0.49946594	-10.180786	0.6584625
1493783292327	0.6947937	-9.794815	0.08174133
1493783292327	0.9792023	-9.013901	0.49328613
1493783292327	0.6804199	-8.039093	0.25679016
1493783292327	0.43045044	-6.891815	0.42895508
1493783292327	-0.07266235	-5.8684998	1.1800995
1493783292327	-0.8094635	-5.1946564	1.7018738
1493783292327	-1.1992645	-4.8051453	1.9024048
1493783292327	-1.4466248	-4.5482483	1.3656921
1493783292328	-1.4655914	-4.5371857	0.1525116
1493783292328	-1.4897003	-5.2688446	-1.1075745
1493783292328	-1.1620636	-6.748001	-1.8004761
1493783292328	-0.72161865	-9.486206	-5.1616974
1493783292328	0.5054321	-13.503326	-10.5342865
1493783292328	1.4180603	-15.399048	-12.584091
1493783292328	0.24317932	-12.03186	-9.869598
1493783292328	-0.64707947	-9.193558	-5.9138336
1493783292328	-1.097168	-8.403107	-3.2448578
1493783292328	-1.1750336	-8.41571	-3.7997894
1493783292328	-1.4602509	-7.2014313	-4.5793915
1493783292328	-3.2661896	-6.464279	-3.013153
1493783292328	-6.8433075	-13.249252	-3.3181458
1493783292328	-4.7379913	-19.35556	-4.8013916
1493783292328	0.41551208	-17.933243	-4.969208
1493783292328	3.715683	-8.691055	4.0286713
1493783292328	1.8079681	-4.445816	9.993179
1493783292328	-1.821991	-4.337921	8.415466
1493783292328	-3.4086914	-8.090958	3.3137817
1493783292328	-0.01184082	-12.031601	2.4597626
1493783292328	4.403	-14.579346	1.9892273
1493783292328	6.6046143	-13.596893	0.17112732
1493783292328	3.6329803	-11.338364	-0.9401245
1493783292328	-0.17778015	-10.113831	-0.812912
1493783292328	-1.7517548	-9.158829	0.14805603
1493783292328	-1.7536163	-8.781601	1.1834869
1493783292329	-0.65068054	-9.027695	0.731369
1493783292329	1.059082	-9.405365	0.25279236
1493783292329	2.5863342	-9.913361	-0.08189392
1493783292329	3.0127869	-10.113724	-0.66070557
1493783292329	2.5209808	-9.6311035	-1.4167786
1493783292329	1.9283295	-9.143875	-2.065033
1493783292329	1.5250702	-9.510605	-1.6825562
1493783292329	1.2216797	-9.98233	-1.1070251
1493783292329	0.73301697	-10.071243	-0.32273865
1493783292329	0.023330688	-10.374069	1.2255859
1493783292329	-0.33465576	-10.483612	2.712677
1493783292329	0.20072937	-10.307266	2.889267
1493783292329	1.8765411	-10.257538	2.4666138
1493783292329	3.3165436	-10.087067	2.1208649
1493783292329	2.613037	-9.571426	1.2498627
1493783292329	1.2828217	-8.751053	0.28125
1493783292329	1.3398438	-8.481216	0.20283508
1493783292329	2.6940155	-10.2170105	0.52745056
1493783292329	2.8950653	-12.9288025	0.042922974
1493783292329	0.7137604	-13.437424	-1.2632294
1493783292329	-2.3187866	-12.0112915	-2.1809845
1493783292329	-4.853134	-10.836441	-2.4414215
1493783292329	-5.73584	-9.853531	-2.4432983
1493783292329	-5.2723694	-8.913086	-2.3038483
1493783292329	-3.7846832	-8.512924	-1.6250153
1493783292329	-1.7194061	-8.006912	-0.57392883
1493783292330	0.09562683	-7.6401978	-0.10719299
1493783292330	2.1410522	-7.742111	-0.46466064
1493783292330	3.9904175	-8.054382	-0.70880127
1493783292330	1.9236145	-8.519974	-1.6961517
1493783292330	-0.78004456	-8.8537445	-2.7377777
1493783292330	-1.9750061	-8.546387	-1.8610382
1493783292330	-2.210495	-8.269424	-0.14396667
1493783292330	-2.5692291	-8.614273	0.39997864
1493783292330	-3.1674042	-9.403244	0.05102539
1493783292330	-3.4383087	-9.871582	-0.04966736
1493783292330	-3.7668762	-10.060684	-0.99790955
1493783292330	-3.7558136	-9.986694	-1.9045868
1493783292330	-2.8228607	-9.633255	-1.9624176
1493783292330	-2.4844666	-9.200516	-1.7765961
1493783292330	-2.248642	-8.672424	-1.8873749
1493783292330	-1.9480133	-8.120544	-2.0938873
1493783292330	-1.8598175	-8.471695	-2.108139
1493783292330	-2.8879852	-10.276154	-1.9263
1493783292330	-4.644058	-16.858124	-2.7757874
1493783292330	-1.5587921	-15.3168335	-5.517456
1493783292330	2.985962	-8.901413	-4.5699005
1493783292330	4.2141266	-7.420349	1.0286102
1493783292330	3.6396332	-7.6872253	4.129608
1493783292330	2.7080688	-9.279373	3.4920502
1493783292330	1.2710266	-11.001144	4.403244
1493783292330	0.30763245	-11.7087555	2.56427
1493783292331	1.0679779	-10.895309	1.2672882
1493783292331	2.5614014	-9.912857	1.5310364
1493783292331	2.998413	-9.905609	2.3642578
1493783292331	3.1810455	-9.581085	1.6195068
1493783292331	2.7721252	-9.11293	0.56921387
1493783292331	1.8606873	-9.064804	0.025131226
1493783292331	1.5203552	-9.696686	-0.81663513
1493783292331	1.8030396	-10.154144	-1.1117706
1493783292331	1.903717	-9.827255	-0.5033417
1493783292331	1.6490021	-9.666763	-0.04562378
1493783292331	1.321579	-9.433807	0.51390076
1493783292331	1.1285706	-9.241745	0.98335266
1493783292331	1.1985321	-9.64798	0.88900757
1493783292331	1.3497467	-9.723007	0.46394348
1493783292331	1.6266022	-10.056595	-0.49771118
1493783292331	2.0474243	-10.29509	-0.89390564
1493783292331	2.4143372	-10.616531	-1.3016357
1493783292332	3.0017395	-10.792511	-1.7020721
1493783292332	3.511551	-10.920151	-2.1799774
1493783292332	3.716507	-11.044083	-2.5821075
1493783292332	3.6452026	-10.884766	-2.8790436
1493783292332	3.5128937	-10.576431	-3.6232147
1493783292332	4.105835	-11.420013	-4.0061493
1493783292332	5.345398	-12.610123	-2.5202637
1493783292332	4.8915253	-12.089111	-1.3055267
1493783292332	2.2192688	-10.959305	-1.1831055
1493783292333	-1.3835602	-11.430084	-1.6871185
1493783292333	-4.706909	-14.649033	0.09364319
1493783292333	-6.1942596	-17.012115	3.076889
1493783292333	-4.322983	-15.395798	2.7555847
1493783292333	-1.8530579	-12.855392	2.5678864
1493783292333	0.6389618	-10.9375305	3.0658112
1493783292333	3.6111755	-10.208496	-0.6556549
1493783292333	3.6727753	-9.985947	-1.8826447
1493783292334	1.9429474	-9.336945	-0.7797241
1493783292334	0.5096283	-8.3710785	0.9580231
1493783292334	-0.60295105	-6.9931183	1.6568298
1493783292334	-1.309555	-5.5030823	1.988678
1493783292334	-1.5707855	-4.887924	2.5269012
1493783292334	-1.9226227	-4.906311	2.1938171
1493783292334	-1.9953156	-5.0976715	1.6946259
1493783292334	-1.4606934	-5.292038	0.44683838
1493783292334	-1.1333466	-5.686661	-0.8979492
1493783292334	-0.83680725	-6.447525	-2.542923
1493783292335	-0.69485474	-8.173767	-4.8975983
1493783292335	-1.1930695	-10.905441	-9.278244
1493783292335	-1.3540344	-13.183075	-11.447433
1493783292335	-1.385086	-12.917587	-10.372208
1493783292335	-1.6053314	-10.509552	-7.3938446
1493783292335	-1.779068	-8.568878	-6.221985
1493783292335	-2.7393951	-9.164032	-5.446411
1493783292335	-7.3233795	-13.7986145	-3.7411041
1493783292335	-5.9097443	-17.168365	-1.7760162
1493783292335	-1.1268005	-12.455414	1.948761
1493783292335	1.3999786	-6.6310577	5.78154
1493783292335	0.119628906	-6.1858063	8.540939
1493783292335	-1.2893372	-8.823715	6.4042816
1493783292335	0.6682129	-11.605972	3.974945
1493783292335	5.213806	-12.499466	1.6691895
1493783292335	7.717804	-12.377853	-0.49676514
1493783292335	5.389084	-10.74646	-1.4181824
1493783292335	2.459076	-9.674728	-0.47019958
1493783292335	-0.16795349	-9.258072	-0.29960632
1493783292335	-1.8488159	-8.912979	-0.4390564
1493783292335	-2.2065125	-8.938919	-0.34561157
1493783292335	-1.5140991	-9.503082	-0.99905396
1493783292335	0.8215027	-9.860458	-0.46784973
1493783292335	2.750824	-9.832916	-0.13923645
1493783292335	3.1128387	-9.514893	-0.46209717
1493783292335	2.3188782	-8.893951	-0.31578064
1493783292336	1.2833099	-8.8506775	0.25976563
1493783292336	0.61901855	-9.369293	0.65367126
1493783292336	0.6482086	-9.861771	0.35498047
1493783292336	1.5264435	-9.946701	-0.33351135
1493783292336	2.2943878	-10.134354	-1.3014832
1493783292336	2.0194702	-10.727234	-2.0300446
1493783292336	1.6164398	-11.097351	-2.2667847
1493783292336	1.9764557	-10.931793	-1.7268982
1493783292336	3.0145416	-10.638626	-0.7509308
1493783292336	3.9787598	-10.507385	-0.16297913
1493783292336	3.5743103	-10.387741	-0.6964874
1493783292336	2.5320587	-10.496857	-2.0755005
1493783292336	2.7317505	-11.250656	-3.5747833
1493783292336	4.588211	-12.059967	-3.7895966
1493783292336	6.195389	-12.547028	-1.6590881
1493783292336	4.042389	-11.716522	-1.2870941
1493783292336	-1.6255951	-11.308929	-1.2537689
1493783292336	-5.6902924	-13.315521	0.08027649
1493783292336	-5.8742523	-15.641327	2.269577
1493783292336	-3.3813324	-15.398895	2.7132263
1493783292336	0.15805054	-13.28656	3.494339
1493783292336	3.7120972	-11.152161	0.5797119
1493783292336	5.1701965	-10.8029785	-1.5176697
1493783292336	4.110626	-10.522278	-1.3645782
1493783292336	0.24545288	-9.904724	0.0016174316
1493783292336	-1.681015	-8.199524	0.8251953
1493783292336	-1.9976959	-6.7598267	1.4455719
1493783292337	-1.2212524	-5.634201	1.4029694
1493783292337	-0.4598236	-5.1930237	1.8208771
1493783292337	-1.0219269	-5.302017	1.2789612
1493783292337	-1.6631927	-5.457443	0.5208435
1493783292337	-1.6419525	-5.0955353	-0.17802429
1493783292337	-1.4800568	-5.288727	-1.1084137
1493783292337	-1.4851074	-6.084976	-2.2823792
1493783292337	-1.7822418	-7.7154846	-4.5007477
1493783292337	-1.8130188	-10.481522	-7.9776917
1493783292337	-0.9541931	-12.956543	-9.318192
1493783292337	-0.20811462	-14.422272	-9.121475
1493783292337	-1.4787292	-12.633347	-7.1725616
1493783292337	-1.7107086	-9.753281	-6.5415955
1493783292337	-2.3125153	-9.637024	-7.316437
1493783292337	-3.958786	-14.584946	-5.239502
1493783292337	-3.22081	-15.73732	-0.094680786
1493783292337	0.07722473	-9.321487	3.5602722
1493783292338	0.067230225	-5.5891876	6.481949
1493783292338	-2.3526459	-7.4456787	5.918518
1493783292338	-1.832428	-9.703827	5.681961
1493783292338	1.8421783	-11.175522	5.6991425
1493783292338	5.2598724	-11.621002	0.5853882
1493783292338	6.4180603	-12.472946	-2.2273254
1493783292338	5.4611206	-11.510666	-1.0046234
1493783292338	3.3972015	-10.218826	-0.20692444
1493783292338	0.96051025	-9.119568	-0.8516693
1493783292338	-0.38833618	-8.943436	-1.078064
1493783292338	-0.6933899	-9.603149	-1.1573486
1493783292338	0.16001892	-9.961807	-0.8097992
1493783292338	0.7156372	-9.565445	-0.3563385
1493783292338	0.42559814	-8.883331	-0.5886078
1493783292338	0.2403717	-8.044266	-1.2888184
1493783292338	0.32185364	-8.025772	-1.2875366
1493783292338	1.0939941	-8.678482	0.21737671
1493783292338	1.4886932	-9.366074	1.6944122
1493783292338	0.9506836	-9.796768	2.0257874
1493783292338	0.20631409	-10.494583	1.2172394
1493783292338	-0.19491577	-11.04747	-0.3141632
1493783292338	0.15638733	-10.981461	-1.7945099
1493783292338	1.1987915	-10.914886	-1.7450867
1493783292338	2.2304535	-10.86969	-0.6383209
1493783292338	2.7463074	-10.975098	-0.06439209
1493783292338	2.9170074	-11.121124	-0.38090515
1493783292338	3.2329712	-10.932983	-0.8232422
1493783292339	2.8592072	-10.554672	-1.7127533
1493783292339	1.9542694	-10.016754	-3.2240906
1493783292339	1.7649078	-10.244949	-4.2625427
1493783292339	2.327774	-11.68866	-3.5664063
1493783292339	3.541397	-12.2565	-1.8817596
1493783292339	4.631027	-12.428619	0.96229553
1493783292339	1.0822449	-12.550125	2.1494446
1493783292339	-3.3974915	-14.637848	1.7737732
1493783292339	-4.0885315	-16.318024	2.4849854
1493783292339	-3.0676575	-15.593582	1.8370056
1493783292339	-0.40855408	-13.643951	0.55895996
1493783292339	5.1220703	-11.668488	0.20967102
1493783292339	7.5592957	-10.808624	-0.9061432
1493783292339	5.748123	-10.517792	-0.24349976
1493783292339	1.0785522	-10.645187	1.0426178
1493783292339	-1.1974335	-8.915543	1.7504425
1493783292339	-1.9438324	-6.8207397	1.9554596
1493783292339	-1.7744751	-5.333206	2.1214142
1493783292339	-2.048996	-4.5467834	1.9373779
1493783292339	-2.4126434	-4.8148956	1.9542389
1493783292339	-3.0895844	-5.329117	1.4019165
1493783292339	-2.6381989	-5.7835693	0.3276825
1493783292339	-2.286911	-5.595169	-1.3053131
1493783292339	-2.4776611	-5.3425293	-3.2955322
1493783292339	-2.9562073	-6.4389343	-5.6112823
1493783292340	-2.4958801	-7.8460693	-7.292221
1493783292340	-1.2969818	-9.393951	-8.1749115
1493783292340	0.5802765	-10.478592	-8.24408
1493783292340	1.3080139	-10.862762	-7.936798
1493783292340	0.38423157	-10.623444	-6.9940643
1493783292340	-1.4542542	-9.834747	-6.5748596
1493783292340	-2.7993622	-8.653641	-6.482254
1493783292340	-4.074356	-7.8084717	-5.126114
1493783292340	-6.72435	-8.4151	-2.4463959
1493783292340	-10.749176	-12.860016	-1.9328156
1493783292340	-9.230423	-18.628479	-5.835907
1493783292340	-2.4124146	-16.3013	-4.0968475
1493783292340	3.0352173	-7.185211	2.761444
1493783292340	1.8784943	-3.5268707	5.937454
1493783292340	-0.8039398	-5.457733	5.2629395
1493783292340	-0.38832092	-9.704819	5.514282
1493783292340	1.2326355	-12.834396	3.9495087
1493783292340	3.6543274	-14.780838	2.14122
1493783292340	5.0225677	-15.382095	1.2404785
1493783292340	4.424347	-13.67308	0.7284851
1493783292340	2.9121246	-10.940308	0.513443
1493783292340	0.7267456	-9.078934	-0.2181549
1493783292340	-1.4254761	-8.477554	-1.4326172
1493783292340	-2.4771423	-8.572754	-1.1024628
1493783292340	-1.6525726	-9.161255	-0.99897766
1493783292340	0.31887817	-9.589645	-1.1626129
1493783292341	1.9116821	-8.615326	-0.049606323
1493783292341	2.3474426	-7.590027	0.93740845
1493783292341	1.9923706	-7.289139	0.76519775
1493783292341	1.520874	-7.460129	0.47543335
1493783292341	1.2455139	-7.9555206	0.21704102
1493783292341	1.6281586	-8.784332	-0.19662476
1493783292341	2.2958984	-9.687119	-1.2364044
1493783292341	2.427826	-10.333145	-2.1094208
1493783292341	1.2946625	-11.142654	-1.7661285
1493783292341	1.1596069	-11.726349	-0.3075714
1493783292341	3.0316315	-12.275101	1.2446136
1493783292341	4.8111115	-12.442932	0.85795593
1493783292341	3.4920654	-12.143112	-1.4304657
1493783292341	0.6728363	-12.093887	-2.5818024
1493783292341	0.83055115	-11.847214	-3.7237854
1493783292341	3.649109	-11.962265	-3.3221283
1493783292341	6.8201294	-11.581741	-3.4184875
1493783292341	6.444412	-10.9543	-1.5332184
1493783292341	2.937439	-10.961472	-1.3593903
1493783292341	-1.7484436	-12.562119	0.13323975
1493783292341	-4.6471863	-17.462769	3.7004547
1493783292341	-5.9084015	-19.34694	5.189041
1493783292341	-4.064575	-16.438583	1.675354
1493783292341	-1.735199	-13.623688	-1.0050507
1493783292341	1.7438812	-12.197952	-1.9203796
1493783292341	6.371155	-10.063202	2.8546295
1493783292341	5.0435486	-9.927521	0.7356262
1493783292342	2.1477814	-8.423218	0.58883667
1493783292342	0.25054932	-7.0102844	1.7944336
1493783292342	-0.8548584	-4.765335	2.927948
1493783292342	-1.7985382	-3.005371	4.067917
1493783292342	-2.2185974	-2.536377	4.0226746
1493783292342	-2.3483734	-2.9436035	3.5047455
1493783292342	-2.224762	-3.5463562	2.190277
1493783292342	-1.8778076	-4.4814453	0.087005615
1493783292342	-1.371521	-6.1296997	-2.2874603
1493783292342	-1.0136261	-8.463791	-5.112625
1493783292342	-1.3848114	-11.686371	-7.9664
1493783292342	-1.6773682	-14.177292	-9.607834
1493783292342	-1.4187164	-13.758347	-10.738647
1493783292342	-1.6829071	-11.985809	-9.286011
1493783292342	-1.8809052	-11.158035	-6.3379364
1493783292342	-2.917801	-9.559738	-5.404709
1493783292342	-4.5147095	-9.698486	-6.987015
1493783292342	-4.52919	-15.2248535	-8.094971
1493783292342	-1.9712524	-16.815582	-3.0964203
1493783292342	-0.06739807	-9.964508	5.056885
1493783292342	-0.85775757	-3.7760315	7.8741913
1493783292342	-1.867691	-3.5630035	7.2349854
1493783292342	-0.74272156	-7.560913	5.908539
1493783292342	1.8871307	-12.576935	5.129822
1493783292342	4.578598	-15.154114	2.3226929
1493783292342	6.1516724	-14.822754	-0.86813354
1493783292342	5.3220215	-12.921341	-1.5278168
1493783292343	2.8202515	-10.358505	-0.74598694
1493783292343	0.33122253	-8.917221	0.2911682
1493783292343	-1.3173218	-8.758545	0.92111206
1493783292343	-1.9305267	-8.812119	0.4487152
1493783292343	-1.7334442	-9.262299	-0.47549438
1493783292343	-0.31700134	-9.701645	-0.8220825
1493783292343	1.7007141	-9.576263	-0.15423584
1493783292343	2.6465454	-8.763748	-0.03390503
1493783292343	2.216507	-8.512802	-0.50883484
1493783292343	1.9577026	-8.742737	-0.19970703
1493783292343	1.7765045	-9.113617	-0.17100525
1493783292343	1.6419067	-9.266083	-0.5311127
1493783292343	1.880661	-9.523285	-0.8889923
1493783292343	2.007843	-10.529678	-0.8214569
1493783292343	2.1679993	-10.73584	-1.1845398
1493783292343	2.0654144	-10.521133	-1.901474
1493783292343	3.497116	-10.218674	-1.7480621
1493783292343	5.391678	-10.03067	-1.05159
1493783292343	4.239105	-10.64209	-3.1404572
1493783292343	3.5603943	-12.127106	-3.7844696
1493783292343	3.9885712	-13.319534	-3.66687
1493783292343	4.20607	-12.794449	-3.2935333
1493783292343	2.857071	-11.0569	-1.8987122
1493783292343	-1.7448883	-11.387131	-1.8712921
1493783292343	-5.329193	-16.373337	0.92388916
1493783292343	-7.063034	-19.39943	4.8195953
1493783292344	-6.687622	-19.070923	2.2802887
1493783292344	-3.753128	-14.327316	-0.009979248
1493783292344	-0.72772217	-11.657898	-0.1091156
1493783292344	4.1148834	-10.511185	-0.37460327
1493783292344	5.069412	-10.72464	-0.47479248
1493783292344	1.3954163	-10.0009	-1.2507019
1493783292344	-1.3253479	-8.862106	0.19645691
1493783292344	-2.285431	-6.592865	1.9629669
1493783292344	-2.377594	-4.2064514	2.9983368
1493783292344	-2.6789093	-2.965454	3.0413055
1493783292344	-2.4192352	-2.6209717	2.8508759
1493783292344	-1.8233337	-3.189392	2.1180878
1493783292344	-1.1224213	-4.613739	0.8739166
1493783292344	-0.43475342	-6.37381	-1.2093048
1493783292344	-0.0496521	-8.20961	-3.8849792
1493783292344	-0.44960022	-9.752197	-6.5167847
1493783292344	-1.4633636	-10.721176	-8.410843
1493783292344	-2.1630707	-11.255844	-9.221222
1493783292344	-1.9707794	-11.880753	-9.079193
1493783292344	-1.6844482	-12.233704	-7.5459747
1493783292344	-1.6138611	-11.491257	-5.825943
1493783292344	-1.9673615	-9.38475	-5.26355
1493783292344	-2.9152832	-7.27861	-3.9092712
1493783292344	-4.3994446	-7.3702393	-0.06448364
1493783292344	-6.5707855	-10.796631	1.588211
1493783292344	-8.327576	-16.371841	-1.2684021
1493783292344	-2.6710205	-17.160019	-3.8987274
1493783292345	5.8660126	-11.511154	1.7524414
1493783292345	6.8223724	-6.9635925	8.395309
1493783292345	4.8418274	-6.8391876	8.053482
1493783292345	4.221878	-8.91774	5.949646
1493783292345	3.830658	-11.251083	3.732132
1493783292345	3.9697723	-12.189438	1.0911102
1493783292345	3.5640106	-10.840881	-0.42526245
1493783292345	0.94007874	-9.329559	-1.0771027
1493783292345	-1.7754059	-8.310135	-1.210022
1493783292345	-3.7111816	-8.8349	-1.7400208
1493783292345	-3.3425446	-10.395401	-2.580719
1493783292345	0.52279663	-10.99855	-1.6244965
1493783292345	4.654541	-10.150574	0.24516296
1493783292345	6.292816	-9.181213	2.1684875
1493783292345	5.1564484	-8.870972	2.2271576
1493783292345	3.104248	-9.088303	1.2668152
1493783292345	1.5240173	-9.069153	-0.10096741
1493783292345	0.86299133	-8.80864	-1.5504456
1493783292345	0.5159912	-8.991013	-1.4623413
1493783292345	0.6139984	-9.490387	-0.74760437
1493783292345	0.4222412	-10.044128	0.16215515
1493783292345	0.14382935	-10.328857	0.7807312
1493783292345	1.2333374	-10.44136	0.6266937
1493783292345	3.1988373	-10.756912	1.0381927
1493783292345	3.9592133	-11.396805	1.0327148
1493783292345	2.5239563	-11.516174	-0.14216614
1493783292345	1.2063293	-11.461472	-1.7991791
1493783292346	2.82724	-12.5373535	-1.8645935
1493783292346	4.2502747	-13.312683	-2.3970184
1493783292346	4.837631	-11.244904	-3.496292
1493783292346	5.3399963	-11.282715	-2.8665771
1493783292346	1.6631165	-10.426605	-1.2782745
1493783292346	-3.057434	-10.874115	-1.7748413
1493783292346	-5.435135	-14.39473	2.157608
1493783292346	-5.576477	-17.344849	4.4032135
1493783292346	-4.142288	-16.68869	2.141159
1493783292346	-1.4590149	-13.769531	1.2191467
1493783292346	0.87098694	-11.472748	0.40097046
1493783292346	3.4884338	-9.914124	-1.5645294
1493783292346	6.6570435	-9.401474	-0.46479797
1493783292346	4.459854	-9.114792	0.2687683
1493783292346	1.3686523	-8.289032	0.72195435
1493783292346	-0.44343567	-6.5282288	1.8270416
1493783292346	-1.7510834	-5.0354614	2.6409302
1493783292346	-2.5568695	-4.177704	2.8988495
1493783292346	-2.9921417	-3.9852448	2.7499237
1493783292346	-2.7355804	-4.208267	1.759964
1493783292346	-1.9270782	-4.6417847	0.585907
1493783292346	-1.1057129	-5.451462	-0.6435089
1493783292346	-0.86053467	-6.8388367	-2.3012848
1493783292346	-0.8345032	-8.768539	-4.928421
1493783292346	-1.3127594	-11.210419	-8.259766
1493783292346	-1.8009796	-13.555405	-10.532562
1493783292347	-1.6530609	-13.977478	-11.032379
1493783292347	-1.2234802	-12.521973	-8.070648
1493783292347	-0.9462738	-10.7966	-5.363205
1493783292347	-1.9220581	-8.403824	-4.8928223
1493783292347	-3.7772522	-7.172806	-5.0624237
1493783292347	-5.9611816	-11.012619	-3.961731
1493783292347	-6.1707916	-16.195938	-1.4242401
1493783292347	-3.4087067	-15.862244	-0.4407196
1493783292347	0.6967468	-10.369339	2.0570984
1493783292347	1.4553223	-6.0023346	5.9189453
1493783292347	0.7053833	-5.38562	8.335251
1493783292347	0.8343811	-8.069626	7.2120667
1493783292347	2.081192	-11.007095	4.3094482
1493783292347	3.5552673	-12.877487	1.5607147
1493783292347	5.3683777	-12.609497	-0.49998474
1493783292347	4.921036	-10.97995	-1.3947754
1493783292347	2.8335876	-9.216797	-0.802536
1493783292347	0.7259674	-8.204147	0.9091339
1493783292347	-0.9024048	-8.069397	1.4072571
1493783292347	-1.1560059	-8.915726	0.19259644
1493783292347	-0.59407043	-10.093216	0.55155945
1493783292347	1.1897736	-10.495026	-0.2606964
1493783292347	2.0729675	-10.058853	-2.1475525
1493783292347	2.7263794	-9.641998	-2.4839935
1493783292347	3.089737	-8.892517	-0.054138184
1493783292347	2.831192	-8.662949	2.1295776
1493783292348	1.5554962	-9.066269	2.5220184
1493783292348	0.3635559	-9.767517	0.6694031
1493783292348	-0.21507263	-10.233643	-0.9095154
1493783292348	0.06442261	-10.984558	-1.3223877
1493783292348	1.0601807	-10.751526	-0.4489746
1493783292348	2.504364	-10.84082	0.094314575
1493783292348	3.8764954	-10.990036	0.38427734
1493783292348	5.38562	-11.420593	0.88990784
1493783292348	4.994156	-11.941956	0.27630615
1493783292348	0.5881958	-11.635315	-3.1226501
1493783292348	0.14859009	-11.531067	-3.4476776
1493783292348	4.2809143	-12.5	-2.8417816
1493783292348	7.1737213	-11.889633	-2.3135834
1493783292348	5.0501556	-11.283524	-0.90519714
1493783292348	-0.2674713	-10.997223	-1.5247955
1493783292348	-4.5049286	-12.547043	0.84672546
1493783292348	-5.745743	-16.633972	3.838623
1493783292348	-5.3767395	-17.774307	3.2538452
1493783292348	-3.2441406	-15.44603	0.778656
1493783292348	-0.8196869	-13.279266	0.21287537
1493783292348	2.3217468	-11.607758	0.9584198
1493783292348	4.5126343	-10.581253	-0.13700867
1493783292348	4.7648315	-9.503647	1.2717896
1493783292348	2.444397	-8.575256	2.059616
1493783292348	0.3562622	-6.9662323	2.0831757
1493783292348	-1.0986023	-5.545822	2.60495
1493783292348	-1.6409454	-4.411255	3.055008
1493783292349	-2.1102753	-3.6206818	3.1833496
1493783292349	-2.6054535	-3.564499	2.3688507
1493783292349	-2.640564	-3.8352356	0.9046173
1493783292349	-2.1993103	-4.4953766	-0.937973
1493783292349	-1.7826233	-5.9325867	-2.675949
1493783292349	-1.7315979	-8.34079	-4.7888336
1493783292349	-2.119812	-11.340942	-7.214981
1493783292349	-2.312851	-13.807999	-9.832977
1493783292349	-2.3280945	-14.07283	-10.869751
1493783292350	-1.7902069	-12.322052	-7.941101
1493783292350	-1.2006378	-10.111374	-5.258774
1493783292350	-1.9026337	-6.918579	-4.8225403
1493783292350	-2.9470825	-4.5687714	-4.604889
1493783292350	-5.4848175	-7.3625183	-3.613968
1493783292350	-6.7750244	-14.983276	-2.7386475
1493783292350	-4.9277344	-19.06633	-2.4976196
1493783292350	0.6118927	-14.711273	-0.712677
1493783292350	3.2794037	-6.665573	6.3522644
1493783292350	1.001709	-3.8187714	9.142395
1493783292350	-0.17721558	-5.637909	6.94368
1493783292350	1.2737427	-10.862396	4.661087
1493783292350	3.923462	-12.868149	2.850998
1493783292350	6.371292	-13.945145	1.3437805
1493783292350	6.2397614	-11.680084	-1.0669708
1493783292350	2.7188416	-9.720886	-1.8535309
1493783292350	-0.94029236	-8.591568	-1.4730072
1493783292350	-2.5361786	-8.208328	-0.96894836
1493783292350	-3.4596405	-9.079956	-0.47407532
1493783292350	-2.304123	-9.6180725	-0.10647583
1493783292350	1.8170929	-9.723709	0.44688416
1493783292350	4.465622	-9.457901	0.30508423
1493783292351	4.227585	-9.167587	-0.47123718
1493783292351	3.1842346	-8.895081	-1.2841492
1493783292351	1.7728424	-9.494537	-0.7110443
1493783292351	1.661499	-9.573868	0.83735657
1493783292351	1.5131073	-9.365631	1.1425018
1493783292351	1.1616211	-9.88092	0.46672058
1493783292351	-0.18373108	-10.762604	-0.9717865
1493783292351	-1.1625214	-10.978882	-2.8635254
1493783292351	0.43911743	-11.668457	-1.7006989
1493783292351	2.7498627	-11.423569	-0.3103485
1493783292351	4.698807	-10.963669	0.5816345
1493783292351	4.735611	-10.890091	0.25805664
1493783292351	1.2079163	-10.597153	-2.0808258
1493783292351	-0.51553345	-11.461166	-3.9255219
1493783292351	3.092392	-12.133011	-3.9017181
1493783292351	6.536682	-10.496384	-1.5466309
1493783292351	7.3894806	-11.082413	0.36383057
1493783292351	1.5123138	-11.190598	-0.5131836
1493783292351	-3.8547363	-14.017273	1.6474304
1493783292351	-5.759033	-17.447403	4.162201
1493783292351	-5.359436	-17.137451	2.954239
1493783292351	-3.6282501	-14.208237	0.16514587
1493783292351	-1.724823	-12.097885	-0.92523193
1493783292351	1.6994171	-10.579849	0.11691284
1493783292351	4.8251495	-9.873871	1.5573578
1493783292351	4.2521057	-9.399231	1.0370483
1493783292351	2.1190033	-8.39296	0.8934326
1493783292351	0.15309143	-7.143036	1.729126
1493783292351	-1.6611328	-5.702484	2.2150269
1493783292351	-2.3039093	-4.4568634	2.9311676
1493783292351	-1.9512482	-3.772766	3.2266083
1493783292351	-1.7009888	-3.937683	2.535965
1493783292351	-1.8088684	-4.435196	0.9668884
1493783292351	-1.9536743	-5.1960907	-0.9181366
1493783292351	-1.8202057	-6.4748077	-2.3530884
1493783292351	-1.8860321	-8.794662	-4.4680176
1493783292351	-2.1052551	-12.704361	-8.672592
1493783292351	-1.160965	-15.885223	-12.911118
1493783292351	-0.9944763	-15.23848	-11.741959
1493783292352	-1.3916016	-11.986359	-6.920746
1493783292352	-1.2282562	-8.754303	-4.1896667
1493783292352	-1.8551636	-6.4452667	-4.673538
1493783292352	-2.9880219	-9.50415	-5.6154175
1493783292352	-3.4532623	-14.51683	-3.630783
1493783292352	-4.088135	-14.879044	0.3165741
1493783292352	-1.4863739	-9.723267	2.8152008
1493783292352	-0.44728088	-6.5086823	4.494446
1493783292352	-0.08779907	-6.398926	6.2318115
1493783292352	0.8484497	-9.142242	5.525238
1493783292352	3.3940582	-11.938858	3.4105072
1493783292352	6.7733154	-12.962601	0.8959198
1493783292352	6.69075	-12.518677	-0.6121521
1493783292352	3.3062897	-10.472748	-0.7979126
